File: Dati/201104/CV_LTO_Al_grafite_01_1mVs_11_CV_C03.mpt
EC-Lab ASCII FILE
Nb header lines : 57

Cyclic Voltammetry

Run on channel : 3 (SN 6807)
User :
Electrode connection : standard
Ewe ctrl range : min = 0,00 V, max = 5,00 V
Ewe,I filtering : 50 kHz
Safety Limits :
	Do not start on E overload
Channel : Grounded
Acquisition started on : 11/04/2020 18:19:46
Saved on :
	File : CV_LTO_Al_grafite_01_1mVs_11_CV_C03.mpr
	Directory : C:\Users\labsuperfici\Desktop\Biologic\Users\Prisca Viviani\201104\
	Host : 10.78.33.0
Device : VSP-300 (SN 0638)
Address : USB
EC-Lab for windows v11.31 (software)
Internet server v11.30 (firmware)
Command interpretor v11.31 (firmware)
Electrode material :
Initial state :
Electrolyte :
Comments :
Cable : standard
Reference electrode : SCE Saturated Calomel Electrode (0,241 V)
Electrode surface area : 0,001 cm²
Characteristic mass : 0,001 g
Equivalent Weight : 0,000 g/eq.
Density : 0,000 g/cm3
Cycle Definition : Charge/Discharge alternance
Ei (V)              0,000
vs.                 Eoc
dE/dt               1,000
dE/dt unit          mV/s
E1 (V)              1,000
vs.                 Ref
Step percent        50
N                   10
E range min (V)     0,000
E range max (V)     5,000
I Range             Auto
I Range min         Unset
I Range max         Unset
I Range init        Unset
Bandwidth           8
E2 (V)              2,700
vs.                 Ref
nc cycles           1
Reverse Scan        1
Ef (V)              0,000
vs.                 Eoc

mode	ox/red	error	control changes	counter inc.	time/s	control/V	Ewe/V	<I>/mA	cycle number	(Q-Qo)/C	I Range	P/W
2	1	0	0	0	1,995247708186833E+005	2,7417748E+000	2,7411461E+000	2,323091775178909E-002	1,000000000000000E+000	0,0000000E+000	41	6,3679341E-005
2	1	0	1	0	1,995443128217417E+005	2,7222316E+000	2,7216291E+000	8,998162510020197E-003	1,000000000000000E+000	2,4296700E-004	41	2,4489662E-005
2	1	0	1	0	1,995643047248707E+005	2,7022400E+000	2,7016914E+000	5,566259738573623E-003	1,000000000000000E+000	3,8437135E-004	41	1,5038316E-005
2	1	0	1	0	1,995843965280140E+005	2,6821480E+000	2,6815422E+000	3,344686584281525E-003	1,000000000000000E+000	4,7078921E-004	42	8,9689183E-006
2	1	0	1	0	1,996043884311421E+005	2,6621561E+000	2,6615593E+000	1,705210302388521E-003	1,000000000000000E+000	5,1878195E-004	42	4,5385186E-006
2	1	0	1	0	1,996243801342696E+005	2,6421645E+000	2,6415284E+000	4,239393806798560E-004	1,000000000000000E+000	5,3806201E-004	43	1,1198479E-006
2	0	0	1	0	1,996443721373980E+005	2,6221724E+000	2,6216679E+000	-5,640421584889761E-004	1,000000000000000E+000	5,3533335E-004	43	-1,4787312E-006
2	0	0	1	0	1,996643639405253E+005	2,6021807E+000	2,6016426E+000	-1,381607166924571E-003	1,000000000000000E+000	5,1392522E-004	42	-3,5944481E-006
2	0	0	1	0	1,996843556436535E+005	2,5821888E+000	2,5816426E+000	-2,114664716811283E-003	1,000000000000000E+000	4,7711635E-004	42	-5,4593088E-006
2	0	0	1	0	1,997043475467814E+005	2,5621972E+000	2,5616782E+000	-2,755618911501371E-003	1,000000000000000E+000	4,2677205E-004	42	-7,0590090E-006
2	0	0	1	0	1,997243393499092E+005	2,5422053E+000	2,5416856E+000	-3,352184811305177E-003	1,000000000000000E+000	3,6439745E-004	42	-8,5202000E-006
2	0	0	1	0	1,997443312530371E+005	2,5222130E+000	2,5217142E+000	-3,876168492294545E-003	1,000000000000000E+000	2,9075181E-004	42	-9,7745888E-006
2	0	0	1	0	1,997643230561651E+005	2,5022211E+000	2,5017223E+000	-4,391947537221885E-003	1,000000000000000E+000	2,0673918E-004	42	-1,0987434E-005
2	0	0	1	0	1,997843150592931E+005	2,4822297E+000	2,4817071E+000	-4,835494269824089E-003	1,000000000000000E+000	1,1297579E-004	42	-1,2000281E-005
2	0	0	1	0	1,998043067624215E+005	2,4622381E+000	2,4617591E+000	-5,285445165267466E-003	1,000000000000000E+000	1,0271567E-005	42	-1,3011492E-005
2	0	0	1	0	1,998242985655488E+005	2,4422460E+000	2,4417341E+000	-5,686847478170219E-003	1,000000000000000E+000	-1,0093836E-004	42	-1,3885769E-005
2	0	0	1	0	1,998442905686772E+005	2,4222538E+000	2,4217880E+000	-6,048954237075688E-003	1,000000000000000E+000	-2,2009201E-004	42	-1,4649285E-005
2	0	0	1	0	1,998642822718046E+005	2,4022622E+000	2,4017894E+000	-6,452638743722448E-003	1,000000000000000E+000	-3,4663794E-004	42	-1,5497879E-005
2	0	0	1	0	1,998842740749335E+005	2,3822703E+000	2,3817859E+000	-6,817443820050669E-003	1,000000000000000E+000	-4,8063372E-004	42	-1,6237691E-005
2	0	0	1	0	1,999042660780607E+005	2,3622782E+000	2,3618066E+000	-7,164691280540328E-003	1,000000000000000E+000	-6,2187825E-004	42	-1,6921615E-005
2	0	0	1	0	1,999242578811892E+005	2,3422868E+000	2,3418095E+000	-7,544516016097937E-003	1,000000000000000E+000	-7,7034882E-004	42	-1,7667819E-005
2	0	0	1	0	1,999442496843170E+005	2,3222950E+000	2,3218181E+000	-7,894929733690992E-003	1,000000000000000E+000	-9,2607376E-004	42	-1,8330591E-005
2	0	0	1	0	1,999642414874444E+005	2,3023031E+000	2,3018391E+000	-8,295811496218053E-003	1,000000000000000E+000	-1,0892581E-003	42	-1,9095623E-005
2	0	0	1	0	1,999842334905731E+005	2,2823112E+000	2,2818687E+000	-8,701284718554497E-003	1,000000000000000E+000	-1,2605635E-003	42	-1,9855190E-005
2	0	0	1	0	2,000042251937008E+005	2,2623196E+000	2,2618730E+000	-9,169770585930839E-003	1,000000000000000E+000	-1,4407113E-003	42	-2,0740856E-005
2	0	0	1	0	2,000242169968293E+005	2,2423277E+000	2,2419021E+000	-9,680575677395227E-003	1,000000000000000E+000	-1,6305457E-003	42	-2,1702903E-005
2	0	0	1	0	2,000442089999570E+005	2,2223356E+000	2,2217896E+000	-1,027440726139921E-002	1,000000000000000E+000	-1,8317596E-003	41	-2,2827571E-005
2	0	0	1	0	2,000642007030849E+005	2,2023439E+000	2,2017772E+000	-1,089819698382641E-002	1,000000000000000E+000	-2,0448009E-003	41	-2,3995402E-005
2	0	0	1	0	2,000841926062126E+005	2,1823521E+000	2,1817858E+000	-1,159290199538957E-002	1,000000000000000E+000	-2,2711197E-003	41	-2,5293230E-005
2	0	0	1	0	2,001041845093409E+005	2,1623602E+000	2,1617887E+000	-1,238904887797241E-002	1,000000000000000E+000	-2,5122948E-003	41	-2,6782505E-005
2	0	0	1	0	2,001241763124685E+005	2,1423683E+000	2,1418135E+000	-1,324416331298908E-002	1,000000000000000E+000	-2,7696122E-003	41	-2,8366529E-005
2	0	0	1	0	2,001441681155968E+005	2,1223762E+000	2,1218421E+000	-1,420019727201269E-002	1,000000000000000E+000	-3,0449233E-003	41	-3,0130577E-005
2	0	0	1	0	2,001641600187244E+005	2,1023848E+000	2,1018436E+000	-1,523595640964831E-002	1,000000000000000E+000	-3,3403779E-003	41	-3,2023596E-005
2	0	0	1	0	2,001841519218525E+005	2,0823925E+000	2,0818157E+000	-1,636806480087631E-002	1,000000000000000E+000	-3,6577370E-003	41	-3,4075296E-005
2	0	0	1	0	2,002041437249803E+005	2,0624011E+000	2,0618160E+000	-1,761119205593242E-002	1,000000000000000E+000	-3,9984696E-003	41	-3,6311038E-005
2	0	0	1	0	2,002241355281081E+005	2,0424092E+000	2,0418518E+000	-1,893583086550946E-002	1,000000000000000E+000	-4,3650484E-003	41	-3,8664159E-005
2	0	0	1	0	2,002441274312360E+005	2,0224173E+000	2,0218074E+000	-2,041394016183606E-002	1,000000000000000E+000	-4,7592018E-003	41	-4,1273055E-005
2	0	0	1	0	2,002641192343645E+005	2,0024257E+000	2,0018449E+000	-2,193317015540414E-002	1,000000000000000E+000	-5,1835370E-003	41	-4,3906806E-005
2	0	0	1	0	2,002841111374918E+005	1,9824336E+000	1,9818413E+000	-2,361192463727091E-002	1,000000000000000E+000	-5,6398613E-003	41	-4,6795089E-005
2	0	0	1	0	2,003041029406204E+005	1,9624419E+000	1,9618822E+000	-2,539932042610210E-002	1,000000000000000E+000	-6,1310115E-003	41	-4,9830476E-005
2	0	0	1	0	2,003240948437477E+005	1,9424502E+000	1,9418701E+000	-2,732003752827122E-002	1,000000000000000E+000	-6,6592311E-003	41	-5,3051965E-005
2	0	0	1	0	2,003440866468763E+005	1,9224581E+000	1,9219296E+000	-2,936553767209068E-002	1,000000000000000E+000	-7,2267796E-003	41	-5,6438497E-005
2	0	0	1	0	2,003640784500039E+005	1,9024663E+000	1,9019113E+000	-3,156645291571636E-002	1,000000000000000E+000	-7,8371251E-003	41	-6,0036593E-005
2	0	0	1	0	2,003840703531322E+005	1,8824743E+000	1,8819085E+000	-3,387726494608220E-002	1,000000000000000E+000	-8,4925909E-003	41	-6,3753912E-005
2	0	0	1	0	2,004040621562602E+005	1,8624825E+000	1,8619153E+000	-3,636818959897259E-002	1,000000000000000E+000	-9,1959620E-003	41	-6,7714493E-005
2	0	0	1	0	2,004240540593881E+005	1,8424907E+000	1,8419491E+000	-3,892938849386890E-002	1,000000000000000E+000	-9,9498341E-003	41	-7,1705952E-005
2	0	0	1	0	2,004440459625163E+005	1,8224987E+000	1,8219610E+000	-4,164789066665942E-002	1,000000000000000E+000	-1,0756420E-002	41	-7,5880831E-005
2	0	0	1	0	2,004640377656436E+005	1,8025068E+000	1,8019861E+000	-4,453835443268439E-002	1,000000000000000E+000	-1,1619250E-002	41	-8,0257494E-005
2	0	0	1	0	2,004840295687722E+005	1,7825153E+000	1,7819654E+000	-4,760789500658713E-002	1,000000000000000E+000	-1,2541696E-002	41	-8,4835621E-005
2	0	0	1	0	2,005040213719001E+005	1,7625233E+000	1,7620077E+000	-5,079859750960491E-002	1,000000000000000E+000	-1,3526588E-002	41	-8,9507521E-005
2	0	0	1	0	2,005240132750282E+005	1,7425317E+000	1,7420017E+000	-5,421782480561688E-002	1,000000000000000E+000	-1,4577358E-002	41	-9,4447540E-005
2	0	0	1	0	2,005440050781555E+005	1,7225398E+000	1,7220316E+000	-5,780128981337684E-002	1,000000000000000E+000	-1,5698172E-002	41	-9,9535646E-005
2	0	0	1	0	2,005639969812839E+005	1,7025477E+000	1,7020414E+000	-6,164246676399299E-002	1,000000000000000E+000	-1,6893510E-002	41	-1,0491803E-004
2	0	0	1	0	2,005839887844119E+005	1,6825559E+000	1,6820514E+000	-6,580702993995191E-002	1,000000000000000E+000	-1,8168753E-002	41	-1,1069081E-004
2	0	0	1	0	2,006039806875398E+005	1,6625642E+000	1,6620682E+000	-7,035271826736345E-002	1,000000000000000E+000	-1,9530527E-002	41	-1,1693102E-004
2	0	0	1	0	2,006239724906676E+005	1,6425723E+000	1,6421008E+000	-7,538933196411068E-002	1,000000000000000E+000	-2,0988146E-002	41	-1,2379688E-004
2	0	0	1	0	2,006439643937955E+005	1,6225804E+000	1,6220784E+000	-8,119162575006289E-002	1,000000000000000E+000	-2,2553554E-002	41	-1,3169918E-004
2	0	0	1	0	2,006639561969233E+005	1,6025885E+000	1,6021168E+000	-8,798276141858219E-002	1,000000000000000E+000	-2,4244124E-002	41	-1,4095867E-004
2	0	0	1	0	2,006839480000515E+005	1,5825969E+000	1,5821419E+000	-9,604990494304710E-002	1,000000000000000E+000	-2,6083142E-002	41	-1,5196457E-004
2	0	0	1	0	2,007039400031792E+005	1,5626049E+000	1,5620362E+000	-1,059996640970642E-001	1,000000000000000E+000	-2,8101126E-002	40	-1,6557531E-004
2	0	0	1	0	2,007239318063073E+005	1,5426129E+000	1,5420316E+000	-1,176139794228824E-001	1,000000000000000E+000	-3,0333638E-002	40	-1,8136448E-004
2	0	0	1	0	2,007439236094347E+005	1,5226213E+000	1,5220541E+000	-1,321299200781210E-001	1,000000000000000E+000	-3,2825958E-002	40	-2,0110888E-004
2	0	0	1	0	2,007639154125634E+005	1,5026294E+000	1,5020605E+000	-1,502534423615340E-001	1,000000000000000E+000	-3,5644591E-002	40	-2,2568977E-004
2	0	0	1	0	2,007839072156907E+005	1,4826375E+000	1,4820523E+000	-1,711985201752460E-001	1,000000000000000E+000	-3,8857136E-002	40	-2,5372516E-004
2	0	0	1	0	2,008038990188194E+005	1,4626458E+000	1,4620695E+000	-1,930407045362328E-001	1,000000000000000E+000	-4,2500861E-002	40	-2,8223894E-004
2	0	0	1	0	2,008238909219470E+005	1,4426538E+000	1,4421024E+000	-2,138201591578473E-001	1,000000000000000E+000	-4,6573095E-002	40	-3,0835057E-004
2	0	0	1	0	2,008438828250752E+005	1,4226619E+000	1,4220763E+000	-2,320553905198115E-001	1,000000000000000E+000	-5,1037446E-002	40	-3,3000048E-004
2	0	0	1	0	2,008638746282032E+005	1,4026701E+000	1,4021173E+000	-2,465165026893579E-001	1,000000000000000E+000	-5,5830784E-002	40	-3,4564504E-004
2	0	0	1	0	2,008838665313311E+005	1,3826783E+000	1,3821057E+000	-2,561410425447317E-001	1,000000000000000E+000	-6,0866356E-002	40	-3,5401399E-004
2	0	0	1	0	2,009038583344596E+005	1,3626865E+000	1,3621422E+000	-2,604098963107004E-001	1,000000000000000E+000	-6,6040851E-002	40	-3,5471530E-004
2	0	0	1	0	2,009238502375865E+005	1,3426945E+000	1,3421123E+000	-2,594838222928120E-001	1,000000000000000E+000	-7,1247898E-002	40	-3,4825644E-004
2	0	0	1	0	2,009438420407154E+005	1,3227025E+000	1,3221476E+000	-2,541352530415415E-001	1,000000000000000E+000	-7,6390065E-002	40	-3,3600430E-004
2	0	0	1	0	2,009638338438431E+005	1,3027109E+000	1,3021318E+000	-2,456022142783980E-001	1,000000000000000E+000	-8,1390858E-002	40	-3,1980645E-004
2	0	0	1	0	2,009838256469711E+005	1,2827190E+000	1,2821600E+000	-2,354710488087619E-001	1,000000000000000E+000	-8,6202145E-002	40	-3,0191158E-004
2	0	0	1	0	2,010038175500985E+005	1,2627273E+000	1,2621634E+000	-2,249318689116511E-001	1,000000000000000E+000	-9,0805650E-002	40	-2,8390076E-004
2	0	0	1	0	2,010238094532269E+005	1,2427353E+000	1,2421463E+000	-2,147009471846166E-001	1,000000000000000E+000	-9,5200829E-002	40	-2,6668998E-004
2	0	0	1	0	2,010438012563549E+005	1,2227435E+000	1,2221628E+000	-2,050440668829405E-001	1,000000000000000E+000	-9,9396616E-002	40	-2,5059725E-004
2	0	0	1	0	2,010637930594827E+005	1,2027518E+000	1,2021892E+000	-1,961888622109851E-001	1,000000000000000E+000	-1,0340738E-001	40	-2,3585613E-004
2	0	0	1	0	2,010837848626105E+005	1,1827599E+000	1,1821957E+000	-1,881618280422321E-001	1,000000000000000E+000	-1,0724921E-001	40	-2,2244410E-004
2	0	0	1	0	2,011037767657386E+005	1,1627680E+000	1,1621537E+000	-1,809555206773354E-001	1,000000000000000E+000	-1,1093901E-001	40	-2,1029814E-004
2	0	0	1	0	2,011237686688665E+005	1,1427761E+000	1,1421809E+000	-1,745799148860512E-001	1,000000000000000E+000	-1,1449322E-001	40	-1,9940185E-004
2	0	0	1	0	2,011437604719945E+005	1,1227843E+000	1,1221919E+000	-1,689961451981952E-001	1,000000000000000E+000	-1,1792766E-001	40	-1,8964610E-004
2	0	0	1	0	2,011637522751221E+005	1,1027925E+000	1,1021937E+000	-1,642756404376207E-001	1,000000000000000E+000	-1,2125918E-001	40	-1,8106357E-004
2	0	0	1	0	2,011837440782506E+005	1,0828007E+000	1,0822319E+000	-1,602018488437433E-001	1,000000000000000E+000	-1,2450327E-001	40	-1,7337555E-004
2	0	0	1	0	2,012037359813779E+005	1,0628089E+000	1,0622338E+000	-1,569397768474217E-001	1,000000000000000E+000	-1,2767394E-001	40	-1,6670674E-004
2	0	0	1	0	2,012237278845063E+005	1,0428169E+000	1,0422320E+000	-1,542879673576387E-001	1,000000000000000E+000	-1,3078532E-001	40	-1,6080386E-004
2	0	0	1	0	2,012437196876337E+005	1,0228250E+000	1,0222148E+000	-1,523414181742266E-001	1,000000000000000E+000	-1,3385029E-001	40	-1,5572565E-004
2	0	0	1	0	2,012637114907624E+005	1,0028332E+000	1,0022401E+000	-1,510194616999101E-001	1,000000000000000E+000	-1,3688283E-001	40	-1,5135776E-004
2	0	0	1	0	2,012821047936399E+005	1,0155280E+000	1,0149385E+000	-1,106406109437064E-001	1,000000000000000E+000	-1,3930006E-001	40	-1,1229341E-004
2	0	0	1	0	2,013020966967677E+005	1,0355198E+000	1,0349188E+000	-8,070380080746564E-002	1,000000000000000E+000	-1,4118981E-001	40	-8,3521882E-005
2	0	0	1	0	2,013220884998962E+005	1,0555117E+000	1,0549246E+000	-5,986428236176827E-002	1,000000000000000E+000	-1,4258198E-001	40	-6,3152307E-005
2	0	0	1	0	2,013420804030236E+005	1,0755037E+000	1,0749428E+000	-4,415598657756781E-002	1,000000000000000E+000	-1,4361340E-001	41	-4,7465161E-005
2	0	0	1	0	2,013620722061521E+005	1,0954955E+000	1,0949503E+000	-3,213310887736009E-002	1,000000000000000E+000	-1,4436901E-001	41	-3,5184159E-005
2	0	0	1	0	2,013820641092795E+005	1,1154873E+000	1,1149113E+000	-2,258742695556992E-002	1,000000000000000E+000	-1,4491066E-001	41	-2,5182979E-005
2	0	0	1	0	2,014020559124080E+005	1,1354791E+000	1,1349076E+000	-1,482748540458818E-002	1,000000000000000E+000	-1,4527982E-001	41	-1,6827826E-005
2	0	0	1	0	2,014220477155354E+005	1,1554708E+000	1,1548756E+000	-8,396819011972964E-003	1,000000000000000E+000	-1,4550845E-001	41	-9,6972817E-006
2	0	0	1	0	2,014420397186643E+005	1,1754630E+000	1,1748935E+000	-3,040202199820077E-003	1,000000000000000E+000	-1,4561935E-001	42	-3,5719138E-006
2	1	0	1	0	2,014620315217914E+005	1,1954547E+000	1,1948702E+000	1,529541978155993E-003	1,000000000000000E+000	-1,4563209E-001	42	1,8276041E-006
2	1	0	1	0	2,014820233249199E+005	1,2154465E+000	1,2148169E+000	5,440943223696676E-003	1,000000000000000E+000	-1,4556006E-001	42	6,6097500E-006
2	1	0	1	0	2,015020152280479E+005	1,2354385E+000	1,2347862E+000	8,871708801416661E-003	1,000000000000000E+000	-1,4541490E-001	42	1,0954664E-005
2	1	0	1	0	2,015220071311751E+005	1,2554301E+000	1,2548229E+000	1,194986664520820E-002	1,000000000000000E+000	-1,4520416E-001	41	1,4994966E-005
2	1	0	1	0	2,015419989343040E+005	1,2754221E+000	1,2747717E+000	1,473462116456768E-002	1,000000000000000E+000	-1,4493544E-001	41	1,8783277E-005
2	1	0	1	0	2,015619907374317E+005	1,2954137E+000	1,2947825E+000	1,725948619012967E-002	1,000000000000000E+000	-1,4461370E-001	41	2,2347282E-005
2	1	0	1	0	2,015819826405600E+005	1,3154057E+000	1,3147808E+000	1,962817333775074E-002	1,000000000000000E+000	-1,4424355E-001	41	2,5806747E-005
2	1	0	1	0	2,016019744436881E+005	1,3353976E+000	1,3347685E+000	2,183681136224924E-002	1,000000000000000E+000	-1,4382748E-001	41	2,9147088E-005
2	1	0	1	0	2,016219663468157E+005	1,3553892E+000	1,3547232E+000	2,394476764488018E-002	1,000000000000000E+000	-1,4336821E-001	41	3,2438533E-005
2	1	0	1	0	2,016419581499435E+005	1,3753812E+000	1,3747534E+000	2,602707100496826E-002	1,000000000000000E+000	-1,4286707E-001	41	3,5780802E-005
2	1	0	1	0	2,016619500530716E+005	1,3953731E+000	1,3947285E+000	2,806269355391455E-002	1,000000000000000E+000	-1,4232491E-001	41	3,9139839E-005
2	1	0	1	0	2,016819419561992E+005	1,4153651E+000	1,4147475E+000	3,009003455622783E-002	1,000000000000000E+000	-1,4174198E-001	41	4,2569802E-005
2	1	0	1	0	2,017019337593275E+005	1,4353567E+000	1,4346807E+000	3,219055304224333E-002	1,000000000000000E+000	-1,4111790E-001	41	4,6183166E-005
2	1	0	1	0	2,017219255624551E+005	1,4553485E+000	1,4546824E+000	3,436543472993797E-002	1,000000000000000E+000	-1,4045100E-001	41	4,9990791E-005
2	1	0	1	0	2,017419174655834E+005	1,4753406E+000	1,4746723E+000	3,671326805088582E-002	1,000000000000000E+000	-1,3973933E-001	41	5,4140040E-005
2	1	0	1	0	2,017619093687108E+005	1,4953322E+000	1,4946864E+000	3,913543805658137E-002	1,000000000000000E+000	-1,3897990E-001	41	5,8495207E-005
2	1	0	1	0	2,017819011718389E+005	1,5153242E+000	1,5146626E+000	4,181955056275033E-002	1,000000000000000E+000	-1,3816939E-001	41	6,3342508E-005
2	1	0	1	0	2,018018929749667E+005	1,5353159E+000	1,5346416E+000	4,475294036120457E-002	1,000000000000000E+000	-1,3730302E-001	41	6,8679728E-005
2	1	0	1	0	2,018218848780952E+005	1,5553079E+000	1,5546319E+000	4,847529758137337E-002	1,000000000000000E+000	-1,3637125E-001	41	7,5361248E-005
2	1	0	1	0	2,018418767812226E+005	1,5752997E+000	1,5746298E+000	5,372506933555754E-002	1,000000000000000E+000	-1,3535112E-001	41	8,4597094E-005
2	1	0	1	0	2,018618685843511E+005	1,5952914E+000	1,5945953E+000	6,249642541911871E-002	1,000000000000000E+000	-1,3419831E-001	41	9,9656507E-005
2	1	0	1	0	2,018818603874785E+005	1,6152834E+000	1,6145825E+000	8,212258811184370E-002	1,000000000000000E+000	-1,3277341E-001	41	1,3259369E-004
2	1	0	1	0	2,019018523906069E+005	1,6352752E+000	1,6346582E+000	1,120842612173159E-001	1,000000000000000E+000	-1,3083920E-001	40	1,8321945E-004
2	1	0	1	0	2,019218441937345E+005	1,6552670E+000	1,6546513E+000	1,440626615748406E-001	1,000000000000000E+000	-1,2827545E-001	40	2,3837347E-004
2	1	0	1	0	2,019418359968630E+005	1,6752589E+000	1,6746372E+000	1,743926440760031E-001	1,000000000000000E+000	-1,2508656E-001	40	2,9204439E-004
2	1	0	1	0	2,019618278999907E+005	1,6952507E+000	1,6946471E+000	2,021282113336098E-001	1,000000000000000E+000	-1,2131492E-001	40	3,4253599E-004
2	1	0	1	0	2,019818198031187E+005	1,7152425E+000	1,7146225E+000	2,267332519606835E-001	1,000000000000000E+000	-1,1702012E-001	40	3,8876192E-004
2	1	0	1	0	2,020018116062471E+005	1,7352344E+000	1,7346187E+000	2,479357778400533E-001	1,000000000000000E+000	-1,1226661E-001	40	4,3007403E-004
2	1	0	1	0	2,020218035093741E+005	1,7552263E+000	1,7546252E+000	2,654309927154395E-001	1,000000000000000E+000	-1,0712659E-001	40	4,6573192E-004
2	1	0	1	0	2,020417953125030E+005	1,7752182E+000	1,7745873E+000	2,786994882600805E-001	1,000000000000000E+000	-1,0167895E-001	40	4,9457658E-004
2	1	0	1	0	2,020617872156305E+005	1,7952100E+000	1,7945948E+000	2,873144560684393E-001	1,000000000000000E+000	-9,6011840E-002	40	5,1561301E-004
2	1	0	1	0	2,020817790187588E+005	1,8152015E+000	1,8145733E+000	2,908596304319984E-001	1,000000000000000E+000	-9,0222217E-002	40	5,2778609E-004
2	1	0	1	0	2,021017709218869E+005	1,8351938E+000	1,8345731E+000	2,893736901126318E-001	1,000000000000000E+000	-8,4412165E-002	40	5,3087721E-004
2	1	0	1	0	2,021217628250148E+005	1,8551855E+000	1,8545555E+000	2,831817849487599E-001	1,000000000000000E+000	-7,8680106E-002	40	5,2517635E-004
2	1	0	1	0	2,021417546281423E+005	1,8751775E+000	1,8745544E+000	2,731127804895119E-001	1,000000000000000E+000	-7,3112629E-002	40	5,1196478E-004
2	1	0	1	0	2,021617464312706E+005	1,8951693E+000	1,8945212E+000	2,601784689405546E-001	1,000000000000000E+000	-6,7777596E-002	40	4,9291365E-004
2	1	0	1	0	2,021817383343983E+005	1,9151610E+000	1,9145420E+000	2,455944160401793E-001	1,000000000000000E+000	-6,2718414E-002	40	4,7020082E-004
2	1	0	1	0	2,022017302375264E+005	1,9351529E+000	1,9345250E+000	2,302325375109429E-001	1,000000000000000E+000	-5,7959523E-002	40	4,4539061E-004
2	1	0	1	0	2,022217220406539E+005	1,9551446E+000	1,9545612E+000	2,146693851769435E-001	1,000000000000000E+000	-5,3511076E-002	40	4,1958445E-004
2	1	0	1	0	2,022417138437820E+005	1,9751364E+000	1,9745308E+000	1,991306755544890E-001	1,000000000000000E+000	-4,9374480E-002	40	3,9318966E-004
2	1	0	1	0	2,022617057469096E+005	1,9951286E+000	1,9945540E+000	1,839399616959068E-001	1,000000000000000E+000	-4,5545258E-002	40	3,6687820E-004
2	1	0	1	0	2,022816976500377E+005	2,0151200E+000	2,0145299E+000	1,693128720253569E-001	1,000000000000000E+000	-4,2014167E-002	40	3,4108586E-004
2	1	0	1	0	2,023016896531656E+005	2,0351121E+000	2,0345290E+000	1,553870149231117E-001	1,000000000000000E+000	-3,8768459E-002	40	3,1613940E-004
2	1	0	1	0	2,023216813562941E+005	2,0551038E+000	2,0545132E+000	1,423815782820322E-001	1,000000000000000E+000	-3,5792414E-002	40	2,9252484E-004
2	1	0	1	0	2,023416731594215E+005	2,0750959E+000	2,0744951E+000	1,302360472817066E-001	1,000000000000000E+000	-3,3067267E-002	40	2,7017403E-004
2	1	0	1	0	2,023616651625498E+005	2,0950878E+000	2,0944898E+000	1,190464816196097E-001	1,000000000000000E+000	-3,0575689E-002	40	2,4934165E-004
2	1	0	1	0	2,023816569656775E+005	2,1150796E+000	2,1144764E+000	1,087710066098389E-001	1,000000000000000E+000	-2,8298927E-002	40	2,2999373E-004
2	1	0	1	0	2,024016486688061E+005	2,1350710E+000	2,1344748E+000	9,944944227500163E-002	1,000000000000000E+000	-2,6217615E-002	40	2,1227232E-004
2	1	0	1	0	2,024216407719337E+005	2,1550632E+000	2,1544795E+000	9,092182514496283E-002	1,000000000000000E+000	-2,4315180E-002	40	1,9588921E-004
2	1	0	1	0	2,024416326750619E+005	2,1750548E+000	2,1744356E+000	8,316406155739919E-002	1,000000000000000E+000	-2,2574922E-002	40	1,8083490E-004
2	1	0	1	0	2,024616244781900E+005	2,1950467E+000	2,1944494E+000	7,617851756555050E-002	1,000000000000000E+000	-2,0981684E-002	40	1,6716990E-004
2	1	0	1	0	2,024816164813181E+005	2,2150388E+000	2,2144504E+000	6,987813018651723E-002	1,000000000000000E+000	-1,9521570E-002	40	1,5474165E-004
2	1	0	1	0	2,025016082844462E+005	2,2350304E+000	2,2344341E+000	6,416790842801207E-002	1,000000000000000E+000	-1,8181656E-002	40	1,4337896E-004
2	1	0	1	0	2,025215999875730E+005	2,2550223E+000	2,2544427E+000	5,901606424829714E-002	1,000000000000000E+000	-1,6949859E-002	40	1,3304834E-004
2	1	0	1	0	2,025415919907021E+005	2,2750142E+000	2,2744300E+000	5,441944208059601E-002	1,000000000000000E+000	-1,5815621E-002	40	1,2377321E-004
2	1	0	1	0	2,025615837938292E+005	2,2950060E+000	2,2944281E+000	5,029885508402165E-002	1,000000000000000E+000	-1,4768406E-002	40	1,1540711E-004
2	1	0	1	0	2,025815755969577E+005	2,3149979E+000	2,3143768E+000	4,671144833402488E-002	1,000000000000000E+000	-1,3798508E-002	41	1,0810790E-004
2	1	0	1	0	2,026015675000856E+005	2,3349895E+000	2,3343835E+000	4,343142564200353E-002	1,000000000000000E+000	-1,2896637E-002	41	1,0138560E-004
2	1	0	1	0	2,026215595032137E+005	2,3549817E+000	2,3543646E+000	4,050350031011218E-002	1,000000000000000E+000	-1,2056876E-002	41	9,5360010E-005
2	1	0	1	0	2,026415513063413E+005	2,3749733E+000	2,3743474E+000	3,794986429468766E-002	1,000000000000000E+000	-1,1271878E-002	41	9,0106165E-005
2	1	0	1	0	2,026615432094696E+005	2,3949656E+000	2,3943698E+000	3,572219685779510E-002	1,000000000000000E+000	-1,0534469E-002	41	8,5532149E-005
2	1	0	1	0	2,026815351125973E+005	2,4149570E+000	2,4143450E+000	3,383288176010014E-002	1,000000000000000E+000	-9,8381918E-003	41	8,1684251E-005
2	1	0	1	0	2,027015269157253E+005	2,4349487E+000	2,4343605E+000	3,219243827343571E-002	1,000000000000000E+000	-9,1774082E-003	41	7,8368001E-005
2	1	0	1	0	2,027215189188530E+005	2,4549408E+000	2,4543087E+000	3,075100205006398E-002	1,000000000000000E+000	-8,5473368E-003	41	7,5472453E-005
2	1	0	1	0	2,027415106219817E+005	2,4749327E+000	2,4743648E+000	2,953651931802270E-002	1,000000000000000E+000	-7,9435892E-003	41	7,3084120E-005
2	1	0	1	0	2,027615024251088E+005	2,4949243E+000	2,4943440E+000	2,848255843809526E-002	1,000000000000000E+000	-7,3625916E-003	41	7,1045295E-005
2	1	0	1	0	2,027814944282374E+005	2,5149164E+000	2,5143344E+000	2,755048473480889E-002	1,000000000000000E+000	-6,8011470E-003	41	6,9271133E-005
2	1	0	1	0	2,028014861313646E+005	2,5349078E+000	2,5343368E+000	2,674070428363762E-002	1,000000000000000E+000	-6,2571508E-003	41	6,7769950E-005
2	1	0	1	0	2,028214781344933E+005	2,5548999E+000	2,5542834E+000	2,595247350918263E-002	1,000000000000000E+000	-5,7290355E-003	41	6,6289969E-005
2	1	0	1	0	2,028414700376206E+005	2,5748918E+000	2,5743022E+000	2,522079746105993E-002	1,000000000000000E+000	-5,2158716E-003	41	6,4925953E-005
2	1	0	1	0	2,028614619407495E+005	2,5948837E+000	2,5942917E+000	2,454623003678841E-002	1,000000000000000E+000	-4,7169644E-003	41	6,3680083E-005
2	1	0	1	0	2,028814537438765E+005	2,6148756E+000	2,6143324E+000	2,398734722294271E-002	1,000000000000000E+000	-4,2303256E-003	41	6,2710897E-005
2	1	0	1	0	2,029014456470055E+005	2,6348674E+000	2,6343017E+000	2,351246678479668E-002	1,000000000000000E+000	-3,7542807E-003	41	6,1938932E-005
2	1	0	1	0	2,029214374501329E+005	2,6548591E+000	2,6543095E+000	2,316187862559786E-002	1,000000000000000E+000	-3,2863962E-003	41	6,1478793E-005
2	1	0	1	0	2,029414292532606E+005	2,6748512E+000	2,6742735E+000	2,291605965627996E-002	1,000000000000000E+000	-2,8245433E-003	41	6,1283812E-005
2	1	0	1	0	2,029614212563891E+005	2,6948433E+000	2,6942856E+000	2,277985858027187E-002	1,000000000000000E+000	-2,3664141E-003	41	6,1375446E-005
2	1	0	1	1	2,029801136593134E+005	2,6864464E+000	2,6858799E+000	1,156943021971023E-002	2,000000000000000E+000	-2,0486871E-003	41	3,1074102E-005
2	1	0	1	1	2,030001054624417E+005	2,6664546E+000	2,6658900E+000	7,268438830151921E-003	2,000000000000000E+000	-1,8660738E-003	41	1,9376857E-005
2	1	0	1	1	2,030200974655694E+005	2,6464627E+000	2,6458490E+000	4,600455226126024E-003	2,000000000000000E+000	-1,7504069E-003	42	1,2172110E-005
2	1	0	1	1	2,030400891686976E+005	2,6264708E+000	2,6258850E+000	2,727745377178407E-003	2,000000000000000E+000	-1,6793163E-003	42	7,1627455E-006
2	1	0	1	1	2,030600809718252E+005	2,6064789E+000	2,6059105E+000	1,287925939516033E-003	2,000000000000000E+000	-1,6410454E-003	42	3,3562198E-006
2	1	0	1	1	2,030800729749538E+005	2,5864871E+000	2,5858877E+000	1,225924894632485E-004	2,000000000000000E+000	-1,6287190E-003	43	3,1701040E-007
2	0	0	1	1	2,031000647780809E+005	2,5664954E+000	2,5660329E+000	-8,382408130986792E-004	2,000000000000000E+000	-1,6370040E-003	43	-2,1509536E-006
2	0	0	1	1	2,031200566812097E+005	2,5465033E+000	2,5459762E+000	-1,667095830510546E-003	2,000000000000000E+000	-1,6639640E-003	42	-4,2443862E-006
2	0	0	1	1	2,031400485843368E+005	2,5265112E+000	2,5259728E+000	-2,411068209823904E-003	2,000000000000000E+000	-1,7063031E-003	42	-6,0902930E-006
2	0	0	1	1	2,031600403874656E+005	2,5065196E+000	2,5059977E+000	-3,097599282287367E-003	2,000000000000000E+000	-1,7627775E-003	42	-7,7625764E-006
2	0	0	1	1	2,031800321905925E+005	2,4865279E+000	2,4859970E+000	-3,683886931919032E-003	2,000000000000000E+000	-1,8320523E-003	42	-9,1581314E-006
2	0	0	1	1	2,032000240937215E+005	2,4665363E+000	2,4660344E+000	-4,237254989843953E-003	2,000000000000000E+000	-1,9128998E-003	42	-1,0449216E-005
2	0	0	1	1	2,032200158968488E+005	2,4465444E+000	2,4460340E+000	-4,742625405140061E-003	2,000000000000000E+000	-2,0043468E-003	42	-1,1600623E-005
2	0	0	1	1	2,032400076999776E+005	2,4265525E+000	2,4260762E+000	-5,201273955861459E-003	2,000000000000000E+000	-2,1053278E-003	42	-1,2618687E-005
2	0	0	1	1	2,032599996031052E+005	2,4065604E+000	2,4060805E+000	-5,666813647866059E-003	2,000000000000000E+000	-2,2154648E-003	42	-1,3634810E-005
2	0	0	1	1	2,032799914062331E+005	2,3865685E+000	2,3861198E+000	-6,080751527816120E-003	2,000000000000000E+000	-2,3341537E-003	42	-1,4509402E-005
2	0	0	1	1	2,032999834093613E+005	2,3665764E+000	2,3660741E+000	-6,493051948337564E-003	2,000000000000000E+000	-2,4613054E-003	42	-1,5363043E-005
2	0	0	1	1	2,033199752124893E+005	2,3465850E+000	2,3461168E+000	-6,884894775482245E-003	2,000000000000000E+000	-2,5964181E-003	42	-1,6152768E-005
2	0	0	1	1	2,033399670156172E+005	2,3265929E+000	2,3261230E+000	-7,303502157355452E-003	2,000000000000000E+000	-2,7394404E-003	42	-1,6988844E-005
2	0	0	1	1	2,033599587187450E+005	2,3066015E+000	2,3061550E+000	-7,717789310388995E-003	2,000000000000000E+000	-2,8907876E-003	42	-1,7798418E-005
2	0	0	1	1	2,033799507218730E+005	2,2866094E+000	2,2861571E+000	-8,118857884012176E-003	2,000000000000000E+000	-3,0506300E-003	42	-1,8560984E-005
2	0	0	1	1	2,033999425250012E+005	2,2666178E+000	2,2661741E+000	-8,604040225848042E-003	2,000000000000000E+000	-3,2194606E-003	42	-1,9498253E-005
2	0	0	1	1	2,034199343281288E+005	2,2466259E+000	2,2461765E+000	-9,145035139101115E-003	2,000000000000000E+000	-3,3981726E-003	42	-2,0541363E-005
2	0	0	1	1	2,034399262312567E+005	2,2266338E+000	2,2262049E+000	-9,708999712664580E-003	2,000000000000000E+000	-3,5876529E-003	42	-2,1614222E-005
2	0	0	1	1	2,034599180343847E+005	2,2066422E+000	2,2061093E+000	-1,035954766985733E-002	2,000000000000000E+000	-3,7898687E-003	41	-2,2854294E-005
2	0	0	1	1	2,034799099375124E+005	2,1866503E+000	2,1861002E+000	-1,102762768486372E-002	2,000000000000000E+000	-4,0051579E-003	41	-2,4107499E-005
2	0	0	1	1	2,034999018406402E+005	2,1666584E+000	2,1661184E+000	-1,180060511349088E-002	2,000000000000000E+000	-4,2349133E-003	41	-2,5561507E-005
2	0	0	1	1	2,035198936437683E+005	2,1466665E+000	2,1461279E+000	-1,264205843696529E-002	2,000000000000000E+000	-4,4807210E-003	41	-2,7131475E-005
2	0	0	1	1	2,035398854468968E+005	2,1266747E+000	2,1261377E+000	-1,361068293775897E-002	2,000000000000000E+000	-4,7443868E-003	41	-2,8938186E-005
2	0	0	1	1	2,035598771500241E+005	2,1066830E+000	2,1061590E+000	-1,458376021115992E-002	2,000000000000000E+000	-5,0275968E-003	41	-3,0715717E-005
2	0	0	1	1	2,035798691531527E+005	2,0866911E+000	2,0861354E+000	-1,573883045969759E-002	2,000000000000000E+000	-5,3321836E-003	41	-3,2833330E-005
2	0	0	1	1	2,035998609562797E+005	2,0666993E+000	2,0661800E+000	-1,695732763034533E-002	2,000000000000000E+000	-5,6602177E-003	41	-3,5036890E-005
2	0	0	1	1	2,036198528594086E+005	2,0467074E+000	2,0461609E+000	-1,824846889795595E-002	2,000000000000000E+000	-6,0133371E-003	41	-3,7339305E-005
2	0	0	1	1	2,036398446625355E+005	2,0267155E+000	2,0261676E+000	-1,966457202860245E-002	2,000000000000000E+000	-6,3936971E-003	41	-3,9843719E-005
2	0	0	1	1	2,036598364656647E+005	2,0067239E+000	2,0062013E+000	-2,119169107178620E-002	2,000000000000000E+000	-6,8033356E-003	41	-4,2514799E-005
2	0	0	1	1	2,036798284687918E+005	1,9867318E+000	1,9861840E+000	-2,285149406813936E-002	2,000000000000000E+000	-7,2450778E-003	41	-4,5387271E-005
2	0	0	1	1	2,036998202719204E+005	1,9667401E+000	1,9661862E+000	-2,460656681362795E-002	2,000000000000000E+000	-7,7209026E-003	41	-4,8381091E-005
2	0	0	1	1	2,037198121750482E+005	1,9467483E+000	1,9461790E+000	-2,650141563229264E-002	2,000000000000000E+000	-8,2330480E-003	41	-5,1576499E-005
2	0	0	1	1	2,037398038781760E+005	1,9267564E+000	1,9262164E+000	-2,851315467168075E-002	2,000000000000000E+000	-8,7840743E-003	41	-5,4922504E-005
2	0	0	1	1	2,037597956813044E+005	1,9067645E+000	1,9062433E+000	-3,065425906819899E-002	2,000000000000000E+000	-9,3770092E-003	41	-5,8434478E-005
2	0	0	1	1	2,037797875844324E+005	1,8867728E+000	1,8862228E+000	-3,296779449676605E-002	2,000000000000000E+000	-1,0014273E-002	41	-6,2184605E-005
2	0	0	1	1	2,037997794875604E+005	1,8667808E+000	1,8662193E+000	-3,538427499531276E-002	2,000000000000000E+000	-1,0698220E-002	41	-6,6034816E-005
2	0	0	1	1	2,038197713906877E+005	1,8467890E+000	1,8462565E+000	-3,792661241001727E-002	2,000000000000000E+000	-1,1432147E-002	41	-7,0022252E-005
2	0	0	1	1	2,038397631938159E+005	1,8267971E+000	1,8262615E+000	-4,063030255376965E-002	2,000000000000000E+000	-1,2218475E-002	41	-7,4201555E-005
2	0	0	1	1	2,038597549969442E+005	1,8068055E+000	1,8062605E+000	-4,346629534535679E-002	2,000000000000000E+000	-1,3060538E-002	41	-7,8511453E-005
2	0	0	1	1	2,038797469000719E+005	1,7868134E+000	1,7862788E+000	-4,644842205975808E-002	2,000000000000000E+000	-1,3960593E-002	41	-8,2969833E-005
2	0	0	1	1	2,038997387031997E+005	1,7668215E+000	1,7662948E+000	-4,963552274667460E-002	2,000000000000000E+000	-1,4922222E-002	41	-8,7670967E-005
2	0	0	1	1	2,039197305063277E+005	1,7468297E+000	1,7463092E+000	-5,296704260852159E-002	2,000000000000000E+000	-1,5948987E-002	41	-9,2496834E-005
2	0	0	1	1	2,039397223094553E+005	1,7268379E+000	1,7263490E+000	-5,652160303434817E-002	2,000000000000000E+000	-1,7044662E-002	41	-9,7576012E-005
2	0	0	1	1	2,039597142125834E+005	1,7068461E+000	1,7063330E+000	-6,027912954913495E-002	2,000000000000000E+000	-1,8213311E-002	41	-1,0285627E-004
2	0	0	1	1	2,039797061157112E+005	1,6868540E+000	1,6863391E+000	-6,435638506620389E-002	2,000000000000000E+000	-1,9460015E-002	41	-1,0852669E-004
2	0	0	1	1	2,039996979188398E+005	1,6668622E+000	1,6663461E+000	-6,875946376809734E-002	2,000000000000000E+000	-2,0791810E-002	41	-1,1457707E-004
2	0	0	1	1	2,040196898219672E+005	1,6468706E+000	1,6463795E+000	-7,369157384785541E-002	2,000000000000000E+000	-2,2216326E-002	41	-1,2132429E-004
2	0	0	1	1	2,040396817250955E+005	1,6268784E+000	1,6263847E+000	-7,924231144325938E-002	2,000000000000000E+000	-2,3745500E-002	41	-1,2887848E-004
2	0	0	1	1	2,040596735282229E+005	1,6068867E+000	1,6063999E+000	-8,577276032959054E-002	2,000000000000000E+000	-2,5395257E-002	41	-1,3778535E-004
2	0	0	1	1	2,040796653313516E+005	1,5868950E+000	1,5864083E+000	-9,353046964934553E-002	2,000000000000000E+000	-2,7186928E-002	41	-1,4837751E-004
2	0	0	1	1	2,040996572344786E+005	1,5669030E+000	1,5663519E+000	-1,030412573975636E-001	2,000000000000000E+000	-2,9148340E-002	41	-1,6139887E-004
2	0	0	1	1	2,041196491376073E+005	1,5469112E+000	1,5463533E+000	-1,141274333579495E-001	2,000000000000000E+000	-3,1317316E-002	40	-1,7648134E-004
2	0	0	1	1	2,041396408407347E+005	1,5269195E+000	1,5263472E+000	-1,278032508440228E-001	2,000000000000000E+000	-3,3733126E-002	40	-1,9507213E-004
2	0	0	1	1	2,041596327438634E+005	1,5069275E+000	1,5063615E+000	-1,449877457084092E-001	2,000000000000000E+000	-3,6455277E-002	40	-2,1840396E-004
2	0	0	1	1	2,041796245469913E+005	1,4869357E+000	1,4863832E+000	-1,652594153633524E-001	2,000000000000000E+000	-3,9554566E-002	40	-2,4563883E-004
2	0	0	1	1	2,041996163501190E+005	1,4669439E+000	1,4663678E+000	-1,869551260316484E-001	2,000000000000000E+000	-4,3077100E-002	40	-2,7414499E-004
2	0	0	1	1	2,042196082532475E+005	1,4469521E+000	1,4463817E+000	-2,079895352146219E-001	2,000000000000000E+000	-4,7029600E-002	40	-3,0083227E-004
2	0	0	1	1	2,042396001563752E+005	1,4269602E+000	1,4264139E+000	-2,268676138910517E-001	2,000000000000000E+000	-5,1383477E-002	40	-3,2360712E-004
2	0	0	1	1	2,042595919595034E+005	1,4069684E+000	1,4064401E+000	-2,422806747994901E-001	2,000000000000000E+000	-5,6082156E-002	40	-3,4075326E-004
2	0	0	1	1	2,042795837626308E+005	1,3869766E+000	1,3864285E+000	-2,530483964203305E-001	2,000000000000000E+000	-6,1044127E-002	40	-3,5083349E-004
2	0	0	1	1	2,042995756657592E+005	1,3669846E+000	1,3664453E+000	-2,585736546168023E-001	2,000000000000000E+000	-6,6169523E-002	40	-3,5332676E-004
2	0	0	1	1	2,043195675688870E+005	1,3469929E+000	1,3464527E+000	-2,587961209944019E-001	2,000000000000000E+000	-7,1351297E-002	40	-3,4845673E-004
2	0	0	1	1	2,043395592720148E+005	1,3270010E+000	1,3264533E+000	-2,544575275607008E-001	2,000000000000000E+000	-7,6490641E-002	40	-3,3752603E-004
2	0	0	1	1	2,043595510751428E+005	1,3070092E+000	1,3064336E+000	-2,466260715627788E-001	2,000000000000000E+000	-8,1505060E-002	40	-3,2220059E-004
2	0	0	1	1	2,043795429782707E+005	1,2870172E+000	1,2864705E+000	-2,368248481668163E-001	2,000000000000000E+000	-8,6341344E-002	40	-3,0466818E-004
2	0	0	1	1	2,043995348813983E+005	1,2670255E+000	1,2664897E+000	-2,263261819250466E-001	2,000000000000000E+000	-9,0972826E-002	40	-2,8663978E-004
2	0	0	1	1	2,044195266845264E+005	1,2470336E+000	1,2464648E+000	-2,159842873626125E-001	2,000000000000000E+000	-9,5395207E-002	40	-2,6921683E-004
2	0	0	1	1	2,044395185876542E+005	1,2270417E+000	1,2264733E+000	-2,061803523488823E-001	2,000000000000000E+000	-9,9615373E-002	40	-2,5287471E-004
2	0	0	1	1	2,044595103907827E+005	1,2070500E+000	1,2064931E+000	-1,971412211466048E-001	2,000000000000000E+000	-1,0364690E-001	40	-2,3784953E-004
2	0	0	1	1	2,044795021939101E+005	1,1870581E+000	1,1864977E+000	-1,888327312870854E-001	2,000000000000000E+000	-1,0750504E-001	40	-2,2404960E-004
2	0	0	1	1	2,044994940970386E+005	1,1670663E+000	1,1664877E+000	-1,814599493579913E-001	2,000000000000000E+000	-1,1120644E-001	40	-2,1167079E-004
2	0	0	1	1	2,045194860001659E+005	1,1470742E+000	1,1464792E+000	-1,748664451779498E-001	2,000000000000000E+000	-1,1476821E-001	40	-2,0048075E-004
2	0	0	1	1	2,045394777032947E+005	1,1270826E+000	1,1265057E+000	-1,691101675146498E-001	2,000000000000000E+000	-1,1820649E-001	40	-1,9050358E-004
2	0	0	1	1	2,045594696064219E+005	1,1070907E+000	1,1065009E+000	-1,641694574829726E-001	2,000000000000000E+000	-1,2153772E-001	40	-1,8165365E-004
2	0	0	1	1	2,045794614095506E+005	1,0870990E+000	1,0865231E+000	-1,599489886421720E-001	2,000000000000000E+000	-1,2477783E-001	40	-1,7378827E-004
2	0	0	1	1	2,045994533126779E+005	1,0671071E+000	1,0665276E+000	-1,565015602424420E-001	2,000000000000000E+000	-1,2794162E-001	40	-1,6691323E-004
2	0	0	1	1	2,046194451158065E+005	1,0471152E+000	1,0465176E+000	-1,537571216216442E-001	2,000000000000000E+000	-1,3104331E-001	40	-1,6090953E-004
2	0	0	1	1	2,046394369189342E+005	1,0271235E+000	1,0265619E+000	-1,516204630119191E-001	2,000000000000000E+000	-1,3409622E-001	40	-1,5564778E-004
2	0	0	1	1	2,046594288220620E+005	1,0071316E+000	1,0065256E+000	-1,502076458112320E-001	2,000000000000000E+000	-1,3711384E-001	40	-1,5118785E-004
2	0	0	1	1	2,046781219249871E+005	1,0115297E+000	1,0109543E+000	-1,177391236751288E-001	2,000000000000000E+000	-1,3970599E-001	40	-1,1902887E-004
2	0	0	1	1	2,046981138281147E+005	1,0315216E+000	1,0309212E+000	-8,525265960981465E-002	2,000000000000000E+000	-1,4170772E-001	40	-8,7888773E-005
2	0	0	1	1	2,047181057312430E+005	1,0515137E+000	1,0509263E+000	-6,312458077027350E-002	2,000000000000000E+000	-1,4317623E-001	40	-6,6339286E-005
2	0	0	1	1	2,047380975343706E+005	1,0715053E+000	1,0709407E+000	-4,659267135621302E-002	2,000000000000000E+000	-1,4426459E-001	41	-4,9897990E-005
2	0	0	1	1	2,047580894374987E+005	1,0914971E+000	1,0909554E+000	-3,402498690269590E-002	2,000000000000000E+000	-1,4506340E-001	41	-3,7119742E-005
2	0	0	1	1	2,047780812406263E+005	1,1114889E+000	1,1109244E+000	-2,408410686943174E-002	2,000000000000000E+000	-1,4563879E-001	41	-2,6755621E-005
2	0	0	1	1	2,047980730437543E+005	1,1314808E+000	1,1309203E+000	-1,600490132771739E-002	2,000000000000000E+000	-1,4603510E-001	41	-1,8100267E-005
2	0	0	1	1	2,048180649468822E+005	1,1514728E+000	1,1508996E+000	-9,415356189332202E-003	2,000000000000000E+000	-1,4628543E-001	41	-1,0836130E-005
2	0	0	1	1	2,048380568500105E+005	1,1714644E+000	1,1709478E+000	-3,838486187292600E-003	2,000000000000000E+000	-1,4641471E-001	42	-4,4946669E-006
2	1	0	1	1	2,048580486531381E+005	1,1914563E+000	1,1908200E+000	7,030079329706698E-004	2,000000000000000E+000	-1,4644285E-001	43	8,3715588E-007
2	1	0	1	1	2,048780404562666E+005	1,2114481E+000	1,2108194E+000	4,783414956264762E-003	2,000000000000000E+000	-1,4638472E-001	42	5,7918514E-006
2	1	0	1	1	2,048980323593939E+005	1,2314401E+000	1,2308036E+000	8,293544636801625E-003	2,000000000000000E+000	-1,4625147E-001	42	1,0207725E-005
2	1	0	1	1	2,049180242625223E+005	1,2514318E+000	1,2508477E+000	1,145198117879394E-002	2,000000000000000E+000	-1,4605179E-001	41	1,4324684E-005
2	1	0	1	1	2,049380160656499E+005	1,2714236E+000	1,2708274E+000	1,423677203037868E-002	2,000000000000000E+000	-1,4579287E-001	41	1,8092480E-005
2	1	0	1	1	2,049580078687784E+005	1,2914155E+000	1,2908216E+000	1,679502769860403E-002	2,000000000000000E+000	-1,4548099E-001	41	2,1679383E-005
2	1	0	1	1	2,049779997719062E+005	1,3114074E+000	1,3108048E+000	1,912594497819542E-002	2,000000000000000E+000	-1,4512019E-001	41	2,5070382E-005
2	1	0	1	1	2,049979916750342E+005	1,3313993E+000	1,3307717E+000	2,134296017980064E-002	2,000000000000000E+000	-1,4471343E-001	41	2,8402606E-005
2	1	0	1	1	2,050179834781626E+005	1,3513910E+000	1,3507341E+000	2,346997815987673E-002	2,000000000000000E+000	-1,4426370E-001	41	3,1701700E-005
2	1	0	1	1	2,050379753812896E+005	1,3713830E+000	1,3707808E+000	2,552322645894828E-002	2,000000000000000E+000	-1,4377205E-001	41	3,4986748E-005
2	1	0	1	1	2,050579671844185E+005	1,3913748E+000	1,3907380E+000	2,753240474770455E-002	2,000000000000000E+000	-1,4323999E-001	41	3,8290364E-005
2	1	0	1	1	2,050779590875460E+005	1,4113666E+000	1,4107361E+000	2,958412277709314E-002	2,000000000000000E+000	-1,4266746E-001	41	4,1735391E-005
2	1	0	1	1	2,050979508906743E+005	1,4313583E+000	1,4307085E+000	3,160045959642194E-002	2,000000000000000E+000	-1,4205439E-001	41	4,5211047E-005
2	1	0	1	1	2,051179426938016E+005	1,4513501E+000	1,4507074E+000	3,376399337190691E-002	2,000000000000000E+000	-1,4139926E-001	41	4,8981678E-005
2	1	0	1	1	2,051379346969302E+005	1,4713423E+000	1,4706545E+000	3,601958493376423E-002	2,000000000000000E+000	-1,4070040E-001	41	5,2972366E-005
2	1	0	1	1	2,051579265000578E+005	1,4913340E+000	1,4906874E+000	3,842407983290352E-002	2,000000000000000E+000	-1,3995475E-001	41	5,7278292E-005
2	1	0	1	1	2,051779183031861E+005	1,5113257E+000	1,5106637E+000	4,103410168038291E-002	2,000000000000000E+000	-1,3915902E-001	41	6,1988729E-005
2	1	0	1	1	2,051979102063137E+005	1,5313178E+000	1,5306613E+000	4,390501991385044E-002	2,000000000000000E+000	-1,3830896E-001	41	6,7203720E-005
2	1	0	1	1	2,052179021094418E+005	1,5513093E+000	1,5506566E+000	4,737856237248488E-002	2,000000000000000E+000	-1,3739638E-001	41	7,3467876E-005
2	1	0	1	1	2,052378939125694E+005	1,5713013E+000	1,5706328E+000	5,220606082463886E-002	2,000000000000000E+000	-1,3640223E-001	41	8,1996550E-005
2	1	0	1	1	2,052578857156974E+005	1,5912931E+000	1,5906404E+000	5,976876192029729E-002	2,000000000000000E+000	-1,3528912E-001	41	9,5070609E-005
2	1	0	1	1	2,052778776188251E+005	1,6112851E+000	1,6105943E+000	7,640949247694939E-002	2,000000000000000E+000	-1,3394789E-001	41	1,2306469E-004
2	1	0	1	1	2,052978695219532E+005	1,6312770E+000	1,6306524E+000	1,046195120184895E-001	2,000000000000000E+000	-1,3214912E-001	40	1,7059807E-004
2	1	0	1	1	2,053178613250811E+005	1,6512686E+000	1,6506404E+000	1,362798103816583E-001	2,000000000000000E+000	-1,2973927E-001	40	2,2494896E-004
2	1	0	1	1	2,053378531282092E+005	1,6712606E+000	1,6706005E+000	1,668347387855091E-001	2,000000000000000E+000	-1,2670410E-001	40	2,7871420E-004
2	1	0	1	1	2,053578451313371E+005	1,6912524E+000	1,6906343E+000	1,950742818909537E-001	2,000000000000000E+000	-1,2307994E-001	40	3,2979925E-004
2	1	0	1	1	2,053778369344654E+005	1,7112442E+000	1,7106082E+000	2,203361962187917E-001	2,000000000000000E+000	-1,1892001E-001	40	3,7690892E-004
2	1	0	1	1	2,053978287375930E+005	1,7312361E+000	1,7306153E+000	2,423403829377275E-001	2,000000000000000E+000	-1,1428735E-001	40	4,1939795E-004
2	1	0	1	1	2,054178207407221E+005	1,7512279E+000	1,7505736E+000	2,607476376521132E-001	2,000000000000000E+000	-1,0925040E-001	40	4,5645793E-004
2	1	0	1	1	2,054378125438492E+005	1,7712198E+000	1,7706051E+000	2,751051431707436E-001	2,000000000000000E+000	-1,0388511E-001	40	4,8710257E-004
2	1	0	1	1	2,054578043469777E+005	1,7912115E+000	1,7905794E+000	2,849305479044988E-001	2,000000000000000E+000	-9,8277472E-002	40	5,1019079E-004
2	1	0	1	1	2,054777961501055E+005	1,8112034E+000	1,8105830E+000	2,899281672354028E-001	2,000000000000000E+000	-9,2521064E-002	40	5,2493904E-004
2	1	0	1	1	2,054977880532322E+005	1,8311954E+000	1,8305743E+000	2,897368506270599E-001	2,000000000000000E+000	-8,6716741E-002	40	5,3038483E-004
2	1	0	1	1	2,055177799563616E+005	1,8511872E+000	1,8505694E+000	2,846259309327959E-001	2,000000000000000E+000	-8,0965757E-002	40	5,2672002E-004
2	1	0	1	1	2,055377717594886E+005	1,8711789E+000	1,8705701E+000	2,754498661367020E-001	2,000000000000000E+000	-7,5360231E-002	40	5,1524828E-004
2	1	0	1	1	2,055577635626174E+005	1,8911707E+000	1,8905709E+000	2,631867229601209E-001	2,000000000000000E+000	-6,9970675E-002	40	4,9757317E-004
2	1	0	1	1	2,055777554657450E+005	1,9111626E+000	1,9105597E+000	2,489580443508501E-001	2,000000000000000E+000	-6,4847998E-002	40	4,7564920E-004
2	1	0	1	1	2,055977473688731E+005	1,9311544E+000	1,9305214E+000	2,337458431809611E-001	2,000000000000000E+000	-6,0020939E-002	40	4,5125134E-004
2	1	0	1	1	2,056177391720004E+005	1,9511464E+000	1,9505446E+000	2,181593187542311E-001	2,000000000000000E+000	-5,5502482E-002	40	4,2552949E-004
2	1	0	1	1	2,056377310751290E+005	1,9711384E+000	1,9705042E+000	2,024928104448058E-001	2,000000000000000E+000	-5,1297046E-002	40	3,9901293E-004
2	1	0	1	1	2,056577228782568E+005	1,9911302E+000	1,9905461E+000	1,871635183391757E-001	2,000000000000000E+000	-4,7401428E-002	40	3,7255761E-004
2	1	0	1	1	2,056777148813850E+005	2,0111220E+000	2,0105262E+000	1,724100781839741E-001	2,000000000000000E+000	-4,3806940E-002	40	3,4663497E-004
2	1	0	1	1	2,056977066845128E+005	2,0311139E+000	2,0305629E+000	1,583352906750450E-001	2,000000000000000E+000	-4,0500723E-002	40	3,2150975E-004
2	1	0	1	1	2,057176984876413E+005	2,0511055E+000	2,0505049E+000	1,450805816282945E-001	2,000000000000000E+000	-3,7468523E-002	40	2,9748844E-004
2	1	0	1	1	2,057376903907685E+005	2,0710974E+000	2,0705423E+000	1,327197815016210E-001	2,000000000000000E+000	-3,4692325E-002	40	2,7480192E-004
2	1	0	1	1	2,057576821938972E+005	2,0910892E+000	2,0905175E+000	1,213014483963353E-001	2,000000000000000E+000	-3,2153904E-002	40	2,5358281E-004
2	1	0	1	1	2,057776740970241E+005	2,1110811E+000	2,1105123E+000	1,107780694036870E-001	2,000000000000000E+000	-2,9834162E-002	40	2,3379848E-004
2	1	0	1	1	2,057976660001529E+005	2,1310728E+000	2,1304953E+000	1,012419680216774E-001	2,000000000000000E+000	-2,7714940E-002	40	2,1569555E-004
2	1	0	1	1	2,058176580032801E+005	2,1510646E+000	2,1504955E+000	9,252460739634327E-002	2,000000000000000E+000	-2,5778206E-002	40	1,9897375E-004
2	1	0	1	1	2,058376499064090E+005	2,1710567E+000	2,1704717E+000	8,462070905405406E-002	2,000000000000000E+000	-2,4007531E-002	40	1,8366685E-004
2	1	0	1	1	2,058576417095360E+005	2,1910486E+000	2,1904628E+000	7,740766529642179E-002	2,000000000000000E+000	-2,2387946E-002	40	1,6955861E-004
2	1	0	1	1	2,058776335126651E+005	2,2110403E+000	2,2104673E+000	7,094676313868353E-002	2,000000000000000E+000	-2,0904910E-002	40	1,5682550E-004
2	1	0	1	1	2,058976253157923E+005	2,2310324E+000	2,2304697E+000	6,512792304035031E-002	2,000000000000000E+000	-1,9544566E-002	40	1,4526586E-004
2	1	0	1	1	2,059176172189210E+005	2,2510240E+000	2,2504406E+000	5,986269224446775E-002	2,000000000000000E+000	-1,8294862E-002	40	1,3471743E-004
2	1	0	1	1	2,059376090220485E+005	2,2710156E+000	2,2704287E+000	5,514250713511530E-002	2,000000000000000E+000	-1,7144643E-002	40	1,2519713E-004
2	1	0	1	1	2,059576009251764E+005	2,2910075E+000	2,2904112E+000	5,089655010385841E-002	2,000000000000000E+000	-1,6083961E-002	40	1,1657403E-004
2	1	0	1	1	2,059775928283046E+005	2,3109994E+000	2,3103926E+000	4,726977735090171E-002	2,000000000000000E+000	-1,5102574E-002	41	1,0921175E-004
2	1	0	1	1	2,059975846314328E+005	2,3309913E+000	2,3303611E+000	4,391223004233935E-002	2,000000000000000E+000	-1,4190528E-002	41	1,0233135E-004
2	1	0	1	1	2,060175766345607E+005	2,3509831E+000	2,3503764E+000	4,090940839398716E-002	2,000000000000000E+000	-1,3341882E-002	41	9,6152507E-005
2	1	0	1	1	2,060375686376886E+005	2,3709753E+000	2,3703651E+000	3,827958731668901E-002	2,000000000000000E+000	-1,2549358E-002	41	9,0736597E-005
2	1	0	1	1	2,060575603408164E+005	2,3909669E+000	2,3903499E+000	3,600872236644381E-002	2,000000000000000E+000	-1,1805923E-002	41	8,6073444E-005
2	1	0	1	1	2,060775521439444E+005	2,4109588E+000	2,4103472E+000	3,403741154354853E-002	2,000000000000000E+000	-1,1105016E-002	41	8,2041981E-005
2	1	0	1	1	2,060975441470724E+005	2,4309506E+000	2,4303708E+000	3,235093794028338E-002	2,000000000000000E+000	-1,0440527E-002	41	7,8624777E-005
2	1	0	1	1	2,061175358502008E+005	2,4509420E+000	2,4503095E+000	3,087511468611480E-002	2,000000000000000E+000	-9,8076826E-003	41	7,5653588E-005
2	1	0	1	1	2,061375277533280E+005	2,4709344E+000	2,4703143E+000	2,961351937288065E-002	2,000000000000000E+000	-9,2018722E-003	41	7,3154697E-005
2	1	0	1	1	2,061575196564561E+005	2,4909260E+000	2,4903166E+000	2,854638991840425E-002	2,000000000000000E+000	-8,6192694E-003	41	7,1089547E-005
2	1	0	1	1	2,061775114595839E+005	2,5109174E+000	2,5103564E+000	2,763473707310660E-002	2,000000000000000E+000	-8,0566239E-003	41	6,9373040E-005
2	1	0	1	1	2,061975033627115E+005	2,5309098E+000	2,5303216E+000	2,677692816198843E-002	2,000000000000000E+000	-7,5115860E-003	41	6,7754241E-005
2	1	0	1	1	2,062174954658397E+005	2,5509017E+000	2,5503178E+000	2,599057136399111E-002	2,000000000000000E+000	-6,9828006E-003	41	6,6284214E-005
2	1	0	1	1	2,062374871689675E+005	2,5708935E+000	2,5703032E+000	2,525451698232772E-002	2,000000000000000E+000	-6,4692325E-003	41	6,4911765E-005
2	1	0	1	1	2,062574789720960E+005	2,5908854E+000	2,5903039E+000	2,457259136883994E-002	2,000000000000000E+000	-5,9698019E-003	41	6,3650477E-005
2	1	0	1	1	2,062774709752232E+005	2,6108770E+000	2,6102879E+000	2,398894275657582E-002	2,000000000000000E+000	-5,4831570E-003	41	6,2618048E-005
2	1	0	1	1	2,062974627783517E+005	2,6308692E+000	2,6302919E+000	2,350130392420335E-002	2,000000000000000E+000	-5,0071627E-003	41	6,1815292E-005
2	1	0	1	1	2,063174544814790E+005	2,6508603E+000	2,6502774E+000	2,314736346994681E-002	2,000000000000000E+000	-4,5397058E-003	41	6,1346931E-005
2	1	0	1	1	2,063374464846076E+005	2,6708527E+000	2,6702948E+000	2,288835634393893E-002	2,000000000000000E+000	-4,0783244E-003	41	6,1118655E-005
2	1	0	1	1	2,063574382877351E+005	2,6908445E+000	2,6902885E+000	2,272707329815549E-002	2,000000000000000E+000	-3,6210953E-003	41	6,1142382E-005
2	1	0	1	0	2,063761315906597E+005	2,7095368E+000	2,7089581E+000	2,270978619647984E-002	2,000000000000000E+000	-3,1951137E-003	41	6,1519859E-005
2	1	0	1	0	2,063961235937888E+005	2,7295289E+000	2,7289824E+000	2,284987120289639E-002	2,000000000000000E+000	-2,7385450E-003	41	6,2356899E-005
2	1	0	1	0	2,064082732956894E+005	2,7417748E+000	2,7412376E+000	2,330406528452167E-002	2,000000000000000E+000	-2,4590867E-003	41	6,3881984E-005