File: Dati/201104/CV_LTO_Al_grafite_01_1mVs_05_CV_C03.mpt
EC-Lab ASCII FILE
Nb header lines : 57

Cyclic Voltammetry

Run on channel : 3 (SN 6807)
User :
Electrode connection : standard
Ewe ctrl range : min = 0,00 V, max = 5,00 V
Ewe,I filtering : 50 kHz
Safety Limits :
	Do not start on E overload
Channel : Grounded
Acquisition started on : 11/04/2020 18:19:46
Saved on :
	File : CV_LTO_Al_grafite_01_1mVs_05_CV_C03.mpr
	Directory : C:\Users\labsuperfici\Desktop\Biologic\Users\Prisca Viviani\201104\
	Host : 10.78.33.0
Device : VSP-300 (SN 0638)
Address : USB
EC-Lab for windows v11.31 (software)
Internet server v11.30 (firmware)
Command interpretor v11.31 (firmware)
Electrode material :
Initial state :
Electrolyte :
Comments :
Cable : standard
Reference electrode : SCE Saturated Calomel Electrode (0,241 V)
Electrode surface area : 0,001 cm²
Characteristic mass : 0,001 g
Equivalent Weight : 0,000 g/eq.
Density : 0,000 g/cm3
Cycle Definition : Charge/Discharge alternance
Ei (V)              0,000
vs.                 Eoc
dE/dt               0,400
dE/dt unit          mV/s
E1 (V)              1,000
vs.                 Ref
Step percent        50
N                   10
E range min (V)     0,000
E range max (V)     5,000
I Range             Auto
I Range min         Unset
I Range max         Unset
I Range init        Unset
Bandwidth           8
E2 (V)              2,700
vs.                 Ref
nc cycles           1
Reverse Scan        1
Ef (V)              0,000
vs.                 Eoc

mode	ox/red	error	control changes	counter inc.	time/s	control/V	Ewe/V	<I>/mA	cycle number	(Q-Qo)/C	I Range	P/W
2	1	0	0	0	1,309887673280921E+005	2,7417748E+000	2,7411842E+000	9,793231263756752E-003	1,000000000000000E+000	0,0000000E+000	41	2,6845051E-005
2	1	0	1	0	1,310376226165416E+005	2,7222316E+000	2,7216198E+000	3,794557369721733E-003	1,000000000000000E+000	2,5063643E-004	42	1,0327342E-005
2	1	0	1	0	1,310876020108871E+005	2,7022398E+000	2,7016542E+000	2,228345728845890E-003	1,000000000000000E+000	3,9425638E-004	42	6,0202196E-006
2	1	0	1	0	1,311375817187049E+005	2,6822481E+000	2,6816385E+000	1,171639554283604E-003	1,000000000000000E+000	4,7421764E-004	42	3,1419138E-006
2	1	0	1	0	1,311875613265266E+005	2,6622562E+000	2,6616075E+000	4,239798235652040E-004	1,000000000000000E+000	5,0965423E-004	43	1,1284678E-006
2	0	0	1	0	1,312375408343473E+005	2,6422641E+000	2,6416881E+000	-1,443488706931041E-004	1,000000000000000E+000	5,1289384E-004	43	-3,8132470E-007
2	0	0	1	0	1,312875202421653E+005	2,6222727E+000	2,6217585E+000	-6,006914333131271E-004	1,000000000000000E+000	4,9061776E-004	43	-1,5748678E-006
2	0	0	1	0	1,313374999499863E+005	2,6022809E+000	2,6017313E+000	-9,412729121679366E-004	1,000000000000000E+000	4,4808409E-004	42	-2,4489391E-006
2	0	0	1	0	1,313874795578076E+005	2,5822890E+000	2,5817330E+000	-1,260770583878039E-003	1,000000000000000E+000	3,8901463E-004	42	-3,2549731E-006
2	0	0	1	0	1,314374591656253E+005	2,5622971E+000	2,5617616E+000	-1,530948460213481E-003	1,000000000000000E+000	3,1616696E-004	42	-3,9219249E-006
2	0	0	1	0	1,314874388734458E+005	2,5423050E+000	2,5417433E+000	-1,748998472632879E-003	1,000000000000000E+000	2,3088157E-004	42	-4,4455051E-006
2	0	0	1	0	1,315374185812669E+005	2,5223134E+000	2,5217686E+000	-1,990791392773182E-003	1,000000000000000E+000	1,3439641E-004	42	-5,0203153E-006
2	0	0	1	0	1,315873977890858E+005	2,5023215E+000	2,5017772E+000	-2,171053306464880E-003	1,000000000000000E+000	2,7389680E-005	42	-5,4314914E-006
2	0	0	1	0	1,316373773969046E+005	2,4823296E+000	2,4817691E+000	-2,349108501840648E-003	1,000000000000000E+000	-8,9583496E-005	42	-5,8299447E-006
2	0	0	1	0	1,316873571047259E+005	2,4623377E+000	2,4617722E+000	-2,523049286987641E-003	1,000000000000000E+000	-2,1554003E-004	42	-6,2111726E-006
2	0	0	1	0	1,317373365125456E+005	2,4423461E+000	2,4417679E+000	-2,706498899122146E-003	1,000000000000000E+000	-3,5007266E-004	42	-6,6086423E-006
2	0	0	1	0	1,317873162203641E+005	2,4223542E+000	2,4217920E+000	-2,856552765765463E-003	1,000000000000000E+000	-4,9253233E-004	42	-6,9179769E-006
2	0	0	1	0	1,318372957281854E+005	2,4023623E+000	2,4018254E+000	-3,025392505841582E-003	1,000000000000000E+000	-6,4291421E-004	42	-7,2664648E-006
2	0	0	1	0	1,318872754360060E+005	2,3823707E+000	2,3818333E+000	-3,180115739615449E-003	1,000000000000000E+000	-8,0146862E-004	42	-7,5745056E-006
2	0	0	1	0	1,319372550438237E+005	2,3623786E+000	2,3618252E+000	-3,337674327883221E-003	1,000000000000000E+000	-9,6781802E-004	42	-7,8830035E-006
2	0	0	1	0	1,319872347516449E+005	2,3423867E+000	2,3418684E+000	-3,493504282367263E-003	1,000000000000000E+000	-1,1422511E-003	42	-8,1813268E-006
2	0	0	1	0	1,320372139594662E+005	2,3223948E+000	2,3218622E+000	-3,675370542546387E-003	1,000000000000000E+000	-1,3252296E-003	42	-8,5337042E-006
2	0	0	1	0	1,320871936672842E+005	2,3024030E+000	2,3018575E+000	-3,866246662355556E-003	1,000000000000000E+000	-1,5170233E-003	42	-8,8995484E-006
2	0	0	1	0	1,321371733751041E+005	2,2824111E+000	2,2818596E+000	-4,056937079247763E-003	1,000000000000000E+000	-1,7185775E-003	42	-9,2573609E-006
2	0	0	1	0	1,321871530829254E+005	2,2624192E+000	2,2618675E+000	-4,290371061266382E-003	1,000000000000000E+000	-1,9307857E-003	42	-9,7042512E-006
2	0	0	1	0	1,322371322907442E+005	2,2424276E+000	2,2418613E+000	-4,518795327157214E-003	1,000000000000000E+000	-2,1547598E-003	42	-1,0130512E-005
2	0	0	1	0	1,322871118985636E+005	2,2224360E+000	2,2218955E+000	-4,806186493228393E-003	1,000000000000000E+000	-2,3917451E-003	42	-1,0678844E-005
2	0	0	1	0	1,323370916063846E+005	2,2024438E+000	2,2019007E+000	-5,107945606984909E-003	1,000000000000000E+000	-2,6431058E-003	42	-1,1247189E-005
2	0	0	1	0	1,323870713142040E+005	2,1824520E+000	2,1818929E+000	-5,450264011983286E-003	1,000000000000000E+000	-2,9107563E-003	42	-1,1891892E-005
2	0	0	1	0	1,324370508220224E+005	2,1624599E+000	2,1619096E+000	-5,822642511101581E-003	1,000000000000000E+000	-3,1963980E-003	42	-1,2588027E-005
2	0	0	1	0	1,324870305298440E+005	2,1424682E+000	2,1419225E+000	-6,249015136092474E-003	1,000000000000000E+000	-3,5018835E-003	42	-1,3384906E-005
2	0	0	1	0	1,325370099376645E+005	2,1224763E+000	2,1219258E+000	-6,730921735753986E-003	1,000000000000000E+000	-3,8294795E-003	42	-1,4282517E-005
2	0	0	1	0	1,325869896454830E+005	2,1024845E+000	2,1019456E+000	-7,236847505757149E-003	1,000000000000000E+000	-4,1812453E-003	42	-1,5211460E-005
2	0	0	1	0	1,326369690533032E+005	2,0824926E+000	2,0819674E+000	-7,793449463875252E-003	1,000000000000000E+000	-4,5602326E-003	42	-1,6225707E-005
2	0	0	1	0	1,326869487611246E+005	2,0625010E+000	2,0619645E+000	-8,404688934578642E-003	1,000000000000000E+000	-4,9687834E-003	42	-1,7330171E-005
2	0	0	1	0	1,327369281689427E+005	2,0425091E+000	2,0420074E+000	-9,070914835373506E-003	1,000000000000000E+000	-5,4090591E-003	42	-1,8522876E-005
2	0	0	1	0	1,327869078767629E+005	2,0225174E+000	2,0220053E+000	-9,804818734655694E-003	1,000000000000000E+000	-5,8846944E-003	42	-1,9825397E-005
2	0	0	1	0	1,328368873845842E+005	2,0025256E+000	2,0019057E+000	-1,060449357468066E-002	1,000000000000000E+000	-6,3997516E-003	41	-2,1229196E-005
2	0	0	1	0	1,328868671924029E+005	1,9825337E+000	1,9819139E+000	-1,146222968198360E-002	1,000000000000000E+000	-6,9553251E-003	41	-2,2717153E-005
2	0	0	1	0	1,329368469002219E+005	1,9625418E+000	1,9619097E+000	-1,239383768934383E-002	1,000000000000000E+000	-7,5554824E-003	41	-2,4315590E-005
2	0	0	1	0	1,329868264080432E+005	1,9425498E+000	1,9419279E+000	-1,339215471765232E-002	1,000000000000000E+000	-8,2033798E-003	41	-2,6006599E-005
2	0	0	1	0	1,330368058158630E+005	1,9225581E+000	1,9219630E+000	-1,447854870820520E-002	1,000000000000000E+000	-8,9028226E-003	41	-2,7827235E-005
2	0	0	1	0	1,330867854236811E+005	1,9025662E+000	1,9019521E+000	-1,557313688855749E-002	1,000000000000000E+000	-9,6570849E-003	41	-2,9619361E-005
2	0	0	1	0	1,331367652315022E+005	1,8825744E+000	1,8819633E+000	-1,675430477675476E-002	1,000000000000000E+000	-1,0468833E-002	41	-3,1530984E-005
2	0	0	1	0	1,331867448393232E+005	1,8625826E+000	1,8619313E+000	-1,798430304800822E-002	1,000000000000000E+000	-1,1341183E-002	41	-3,3485536E-005
2	0	0	1	0	1,332367242471413E+005	1,8425907E+000	1,8419582E+000	-1,929135393536699E-002	1,000000000000000E+000	-1,2276558E-002	41	-3,5533867E-005
2	0	0	1	0	1,332867037549620E+005	1,8225989E+000	1,8219589E+000	-2,066920893416371E-002	1,000000000000000E+000	-1,3278519E-002	41	-3,7658450E-005
2	0	0	1	0	1,333366834627837E+005	1,8026069E+000	1,8020157E+000	-2,210913964069228E-002	1,000000000000000E+000	-1,4351364E-002	41	-3,9841016E-005
2	0	0	1	0	1,333866630706014E+005	1,7826151E+000	1,7820072E+000	-2,364793937783102E-002	1,000000000000000E+000	-1,5498894E-002	41	-4,2140800E-005
2	0	0	1	0	1,334366424784213E+005	1,7626234E+000	1,7620233E+000	-2,529363109150720E-002	1,000000000000000E+000	-1,6726410E-002	41	-4,4567969E-005
2	0	0	1	0	1,334866221862426E+005	1,7426314E+000	1,7420501E+000	-2,706084216125839E-002	1,000000000000000E+000	-1,8037874E-002	41	-4,7141340E-005
2	0	0	1	0	1,335366016940624E+005	1,7226398E+000	1,7220602E+000	-2,894268314851606E-002	1,000000000000000E+000	-1,9441273E-002	41	-4,9841045E-005
2	0	0	1	0	1,335865815018802E+005	1,7026479E+000	1,7020527E+000	-3,102685159322245E-002	1,000000000000000E+000	-2,0943634E-002	41	-5,2809337E-005
2	0	0	1	0	1,336365609097013E+005	1,6826559E+000	1,6820725E+000	-3,341047176376272E-002	1,000000000000000E+000	-2,2556771E-002	41	-5,6198838E-005
2	0	0	1	0	1,336865406175219E+005	1,6626642E+000	1,6620748E+000	-3,617932006045843E-002	1,000000000000000E+000	-2,4298003E-002	41	-6,0132737E-005
2	0	0	1	0	1,337365203253399E+005	1,6426722E+000	1,6420991E+000	-3,955238084734491E-002	1,000000000000000E+000	-2,6191607E-002	41	-6,4948930E-005
2	0	0	1	0	1,337864998331611E+005	1,6226804E+000	1,6221089E+000	-4,375314417699944E-002	1,000000000000000E+000	-2,8274592E-002	41	-7,0972368E-005
2	0	0	1	0	1,338364791409820E+005	1,6026887E+000	1,6021036E+000	-4,920794941074536E-002	1,000000000000000E+000	-3,0597014E-002	41	-7,8836230E-005
2	0	0	1	0	1,338864589487999E+005	1,5826968E+000	1,5821434E+000	-5,629541729370605E-002	1,000000000000000E+000	-3,3230778E-002	41	-8,9067427E-005
2	0	0	1	0	1,339364385566205E+005	1,5627049E+000	1,5621408E+000	-6,563765370283270E-002	1,000000000000000E+000	-3,6271401E-002	41	-1,0253526E-004
2	0	0	1	0	1,339864181644418E+005	1,5427130E+000	1,5421679E+000	-7,889008313582857E-002	1,000000000000000E+000	-3,9864901E-002	41	-1,2166175E-004
2	0	0	1	0	1,340363975722604E+005	1,5227213E+000	1,5222331E+000	-9,850741181939751E-002	1,000000000000000E+000	-4,4277396E-002	41	-1,4995124E-004
2	0	0	1	0	1,340863771800799E+005	1,5027294E+000	1,5020988E+000	-1,218644851915678E-001	1,000000000000000E+000	-4,9795534E-002	40	-1,8305250E-004
2	0	0	1	0	1,341363567879007E+005	1,4827375E+000	1,4821445E+000	-1,419508716124689E-001	1,000000000000000E+000	-5,6414578E-002	40	-2,1039171E-004
2	0	0	1	0	1,341863365957201E+005	1,4627457E+000	1,4621272E+000	-1,556942993346504E-001	1,000000000000000E+000	-6,3889079E-002	40	-2,2764486E-004
2	0	0	1	0	1,342363159035388E+005	1,4427538E+000	1,4421412E+000	-1,609121363031987E-001	1,000000000000000E+000	-7,1843572E-002	40	-2,3205802E-004
2	0	0	1	0	1,342862956113601E+005	1,4227622E+000	1,4221340E+000	-1,574464348929556E-001	1,000000000000000E+000	-7,9837166E-002	40	-2,2390994E-004
2	0	0	1	0	1,343362752191806E+005	1,4027700E+000	1,4021724E+000	-1,474127028595565E-001	1,000000000000000E+000	-8,7478697E-002	40	-2,0669802E-004
2	0	0	1	0	1,343862548269983E+005	1,3827783E+000	1,3821527E+000	-1,350281089164956E-001	1,000000000000000E+000	-9,4543599E-002	40	-1,8662946E-004
2	0	0	1	0	1,344362342348197E+005	1,3627865E+000	1,3621744E+000	-1,234245321470686E-001	1,000000000000000E+000	-1,0099870E-001	40	-1,6812574E-004
2	0	0	1	0	1,344862138426406E+005	1,3427947E+000	1,3421780E+000	-1,132891170454323E-001	1,000000000000000E+000	-1,0691129E-001	40	-1,5205416E-004
2	0	0	1	0	1,345361934504588E+005	1,3228029E+000	1,3221853E+000	-1,045976704386549E-001	1,000000000000000E+000	-1,1235445E-001	40	-1,3829750E-004
2	0	0	1	0	1,345861730582792E+005	1,3028109E+000	1,3021607E+000	-9,714525266522772E-002	1,000000000000000E+000	-1,1739434E-001	40	-1,2649874E-004
2	0	0	1	0	1,346361526661003E+005	1,2828192E+000	1,2821810E+000	-9,063852596791994E-002	1,000000000000000E+000	-1,2208664E-001	40	-1,1621500E-004
2	0	0	1	0	1,346861321739191E+005	1,2628273E+000	1,2622007E+000	-8,511208888627275E-002	1,000000000000000E+000	-1,2647924E-001	40	-1,0742854E-004
2	0	0	1	0	1,347361118817383E+005	1,2428354E+000	1,2421739E+000	-8,035400030770523E-002	1,000000000000000E+000	-1,3061625E-001	40	-9,9813646E-005
2	0	0	1	0	1,347860912895594E+005	1,2228436E+000	1,2221994E+000	-7,614785314124572E-002	1,000000000000000E+000	-1,3452877E-001	40	-9,3067865E-005
2	0	0	1	0	1,348360708973790E+005	1,2028517E+000	1,2021908E+000	-7,259852166592795E-002	1,000000000000000E+000	-1,3824710E-001	40	-8,7277273E-005
2	0	0	1	0	1,348860505051971E+005	1,1828598E+000	1,1822325E+000	-6,962169031802040E-002	1,000000000000000E+000	-1,4180325E-001	40	-8,2309023E-005
2	0	0	1	0	1,349360301130187E+005	1,1628680E+000	1,1621982E+000	-6,721455495653506E-002	1,000000000000000E+000	-1,4522469E-001	40	-7,8116631E-005
2	0	0	1	0	1,349860098208394E+005	1,1428761E+000	1,1422449E+000	-6,518277062598665E-002	1,000000000000000E+000	-1,4853577E-001	40	-7,4454692E-005
2	0	0	1	0	1,350359891286572E+005	1,1228843E+000	1,1222314E+000	-6,373119788399628E-002	1,000000000000000E+000	-1,5175967E-001	40	-7,1521150E-005
2	0	0	1	0	1,350859688364783E+005	1,1028924E+000	1,1022327E+000	-6,269144833474005E-002	1,000000000000000E+000	-1,5492059E-001	40	-6,9100563E-005
2	0	0	1	0	1,351359485442992E+005	1,0829005E+000	1,0822552E+000	-6,208825559628717E-002	1,000000000000000E+000	-1,5804078E-001	40	-6,7195338E-005
2	0	0	1	0	1,351859280521176E+005	1,0629088E+000	1,0622607E+000	-6,190410704552041E-002	1,000000000000000E+000	-1,6114055E-001	40	-6,5758300E-005
2	0	0	1	0	1,352359073599376E+005	1,0429170E+000	1,0422517E+000	-6,211389218385863E-002	1,000000000000000E+000	-1,6424118E-001	40	-6,4738313E-005
2	0	0	1	0	1,352858871677590E+005	1,0229251E+000	1,0222892E+000	-6,274100208334987E-002	1,000000000000000E+000	-1,6736393E-001	40	-6,4139444E-005
2	0	0	1	0	1,353358667755774E+005	1,0029333E+000	1,0022932E+000	-6,380354282054279E-002	1,000000000000000E+000	-1,7052947E-001	40	-6,3949861E-005
2	0	0	1	0	1,353820985828098E+005	1,0155282E+000	1,0149353E+000	-3,400623447272016E-002	1,000000000000000E+000	-1,7277233E-001	41	-3,4514127E-005
2	0	0	1	0	1,354320783906311E+005	1,0355200E+000	1,0348909E+000	-1,845738791149226E-002	1,000000000000000E+000	-1,7403667E-001	41	-1,9101382E-005
2	0	0	1	0	1,354820578984525E+005	1,0555118E+000	1,0548891E+000	-9,474143478504816E-003	1,000000000000000E+000	-1,7471358E-001	41	-9,9941708E-006
2	0	0	1	0	1,355320376062705E+005	1,0755037E+000	1,0749055E+000	-3,436927921057144E-003	1,000000000000000E+000	-1,7502244E-001	42	-3,6943727E-006
2	1	0	1	0	1,355820172140902E+005	1,0954955E+000	1,0948483E+000	6,626905368321660E-004	1,000000000000000E+000	-1,7508073E-001	43	7,2554559E-007
2	1	0	1	0	1,356319968219115E+005	1,1154875E+000	1,1148206E+000	3,867884433425901E-003	1,000000000000000E+000	-1,7495757E-001	42	4,3119971E-006
2	1	0	1	0	1,356819764297307E+005	1,1354793E+000	1,1348288E+000	6,285134661368381E-003	1,000000000000000E+000	-1,7469718E-001	42	7,1325517E-006
2	1	0	1	0	1,357319561375496E+005	1,1554711E+000	1,1547967E+000	8,226281604489016E-003	1,000000000000000E+000	-1,7432879E-001	42	9,4996831E-006
2	1	0	1	0	1,357819358453708E+005	1,1754630E+000	1,1747832E+000	9,786586879960257E-003	1,000000000000000E+000	-1,7387325E-001	42	1,1497118E-005
2	1	0	1	0	1,358319154531909E+005	1,1954548E+000	1,1948150E+000	1,114641133402675E-002	1,000000000000000E+000	-1,7334372E-001	41	1,3317900E-005
2	1	0	1	0	1,358818950610086E+005	1,2154466E+000	1,2148006E+000	1,224601104754283E-002	1,000000000000000E+000	-1,7275463E-001	41	1,4876461E-005
2	1	0	1	0	1,359318748688302E+005	1,2354385E+000	1,2347654E+000	1,322161136971442E-002	1,000000000000000E+000	-1,7211334E-001	41	1,6325588E-005
2	1	0	1	0	1,359818544766512E+005	1,2554303E+000	1,2547357E+000	1,409446307844098E-002	1,000000000000000E+000	-1,7142515E-001	41	1,7684826E-005
2	1	0	1	0	1,360318338844692E+005	1,2754221E+000	1,2747484E+000	1,495285756712561E-002	1,000000000000000E+000	-1,7069365E-001	41	1,9061132E-005
2	1	0	1	0	1,360818136922893E+005	1,2954139E+000	1,2947489E+000	1,574791396383766E-002	1,000000000000000E+000	-1,6992192E-001	41	2,0389594E-005
2	1	0	1	0	1,361317935001107E+005	1,3154058E+000	1,3147339E+000	1,648838840743848E-002	1,000000000000000E+000	-1,6911143E-001	41	2,1677843E-005
2	1	0	1	0	1,361817730079293E+005	1,3353976E+000	1,3347274E+000	1,723155721218955E-002	1,000000000000000E+000	-1,6826363E-001	41	2,2999431E-005
2	1	0	1	0	1,362317527157487E+005	1,3553895E+000	1,3546942E+000	1,796763516928895E-002	1,000000000000000E+000	-1,6737902E-001	41	2,4340652E-005
2	1	0	1	0	1,362817323235699E+005	1,3753812E+000	1,3747245E+000	1,875714834278741E-002	1,000000000000000E+000	-1,6645706E-001	41	2,5785912E-005
2	1	0	1	0	1,363317120313901E+005	1,3953732E+000	1,3947245E+000	1,954701550579636E-002	1,000000000000000E+000	-1,6549537E-001	41	2,7262700E-005
2	1	0	1	0	1,363816917392076E+005	1,4153651E+000	1,4147011E+000	2,034347243424445E-002	1,000000000000000E+000	-1,6449407E-001	41	2,8779932E-005
2	1	0	1	0	1,364316712470293E+005	1,4353569E+000	1,4346731E+000	2,125799972224784E-002	1,000000000000000E+000	-1,6345045E-001	41	3,0498280E-005
2	1	0	1	0	1,364816507548499E+005	1,4553486E+000	1,4546579E+000	2,220603409153160E-002	1,000000000000000E+000	-1,6236059E-001	41	3,2302185E-005
2	1	0	1	0	1,365316305626682E+005	1,4753404E+000	1,4746556E+000	2,320273391205376E-002	1,000000000000000E+000	-1,6122185E-001	41	3,4216042E-005
2	1	0	1	0	1,365816103704884E+005	1,4953325E+000	1,4946748E+000	2,432258508479801E-002	1,000000000000000E+000	-1,6002993E-001	41	3,6354355E-005
2	1	0	1	0	1,366315899783100E+005	1,5153242E+000	1,5146265E+000	2,556187616449646E-002	1,000000000000000E+000	-1,5877998E-001	41	3,8716695E-005
2	1	0	1	0	1,366815695861285E+005	1,5353162E+000	1,5346291E+000	2,718483389066534E-002	1,000000000000000E+000	-1,5746012E-001	41	4,1718638E-005
2	1	0	1	0	1,367315491939480E+005	1,5553079E+000	1,5546219E+000	2,990062472237354E-002	1,000000000000000E+000	-1,5603539E-001	41	4,6484169E-005
2	1	0	1	0	1,367815288017690E+005	1,5752997E+000	1,5746157E+000	3,496803454003128E-002	1,000000000000000E+000	-1,5443042E-001	41	5,5061217E-005
2	1	0	1	0	1,368315086095887E+005	1,5952917E+000	1,5945876E+000	5,580475232638665E-002	1,000000000000000E+000	-1,5225546E-001	41	8,8985566E-005
2	1	0	1	0	1,368814881174068E+005	1,6152835E+000	1,6145302E+000	8,984548766101119E-002	1,000000000000000E+000	-1,4861941E-001	41	1,4505825E-004
2	1	0	1	0	1,369314679252284E+005	1,6352752E+000	1,6345952E+000	1,221252727160851E-001	1,000000000000000E+000	-1,4329579E-001	40	1,9962538E-004
2	1	0	1	0	1,369814474330489E+005	1,6552671E+000	1,6546006E+000	1,483774625716998E-001	1,000000000000000E+000	-1,3650116E-001	40	2,4550545E-004
2	1	0	1	0	1,370314270408670E+005	1,6752590E+000	1,6745802E+000	1,670383800881763E-001	1,000000000000000E+000	-1,2858288E-001	40	2,7971916E-004
2	1	0	1	0	1,370814068486875E+005	1,6952509E+000	1,6945682E+000	1,777535380355693E-001	1,000000000000000E+000	-1,1992539E-001	40	3,0121548E-004
2	1	0	1	0	1,371313866565092E+005	1,7152426E+000	1,7145659E+000	1,798374568128711E-001	1,000000000000000E+000	-1,1094774E-001	40	3,0834318E-004
2	1	0	1	0	1,371813662643274E+005	1,7352345E+000	1,7345712E+000	1,737138064438064E-001	1,000000000000000E+000	-1,0207585E-001	40	3,0131897E-004
2	1	0	1	0	1,372313458721470E+005	1,7552265E+000	1,7545723E+000	1,618159686147469E-001	1,000000000000000E+000	-9,3669370E-002	40	2,8391782E-004
2	1	0	1	0	1,372813254799682E+005	1,7752181E+000	1,7745767E+000	1,476802179459051E-001	1,000000000000000E+000	-8,5929252E-002	40	2,6206987E-004
2	1	0	1	0	1,373313051877874E+005	1,7952102E+000	1,7945873E+000	1,336998101813651E-001	1,000000000000000E+000	-7,8896768E-002	40	2,3993598E-004
2	1	0	1	0	1,373812848956059E+005	1,8152019E+000	1,8145472E+000	1,203639180938909E-001	1,000000000000000E+000	-7,2547205E-002	40	2,1840601E-004
2	1	0	1	0	1,374312644034275E+005	1,8351938E+000	1,8345678E+000	1,078482349096460E-001	1,000000000000000E+000	-6,6844888E-002	40	1,9785490E-004
2	1	0	1	0	1,374812441112478E+005	1,8551855E+000	1,8545369E+000	9,619214157504508E-002	1,000000000000000E+000	-6,1747260E-002	40	1,7839187E-004
2	1	0	1	0	1,375312237190660E+005	1,8751775E+000	1,8745478E+000	8,559337007873569E-002	1,000000000000000E+000	-5,7206001E-002	40	1,6044886E-004
2	1	0	1	0	1,375812035268866E+005	1,8951694E+000	1,8945327E+000	7,608069487417279E-002	1,000000000000000E+000	-5,3167589E-002	40	1,4413736E-004
2	1	0	1	0	1,376311831347081E+005	1,9151610E+000	1,9145150E+000	6,775539697482613E-002	1,000000000000000E+000	-4,9573373E-002	40	1,2971873E-004
2	1	0	1	0	1,376811627425263E+005	1,9351530E+000	1,9345117E+000	6,055868001431428E-002	1,000000000000000E+000	-4,6367556E-002	40	1,1715147E-004
2	1	0	1	0	1,377311424503463E+005	1,9551449E+000	1,9545295E+000	5,427368139354449E-002	1,000000000000000E+000	-4,3498587E-002	40	1,0607951E-004
2	1	0	1	0	1,377811219581675E+005	1,9751366E+000	1,9745235E+000	4,879663848939056E-002	1,000000000000000E+000	-4,0922929E-002	40	9,6350115E-005
2	1	0	1	0	1,378311017659865E+005	1,9951285E+000	1,9944596E+000	4,423379982481829E-002	1,000000000000000E+000	-3,8593780E-002	41	8,8222529E-005
2	1	0	1	0	1,378810815738051E+005	2,0151203E+000	2,0144393E+000	4,011627803776419E-002	1,000000000000000E+000	-3,6484454E-002	41	8,0811806E-005
2	1	0	1	0	1,379310613816265E+005	2,0351121E+000	2,0344698E+000	3,646770383814013E-002	1,000000000000000E+000	-3,4568686E-002	41	7,4192445E-005
2	1	0	1	0	1,379810406894470E+005	2,0551040E+000	2,0544562E+000	3,328048066066513E-002	1,000000000000000E+000	-3,2822907E-002	41	6,8373294E-005
2	1	0	1	0	1,380310204972653E+005	2,0750957E+000	2,0744541E+000	3,044877326006856E-002	1,000000000000000E+000	-3,1227740E-002	41	6,3164582E-005
2	1	0	1	0	1,380810001050857E+005	2,0950878E+000	2,0944076E+000	2,792039418507680E-002	1,000000000000000E+000	-2,9766083E-002	41	5,8476686E-005
2	1	0	1	0	1,381309802129073E+005	2,1150794E+000	2,1144314E+000	2,570897335968395E-002	1,000000000000000E+000	-2,8422810E-002	41	5,4359862E-005
2	1	0	1	0	1,381809596207254E+005	2,1350713E+000	2,1344194E+000	2,373121884152070E-002	1,000000000000000E+000	-2,7184509E-002	41	5,0652376E-005
2	1	0	1	0	1,382309393285454E+005	2,1550632E+000	2,1544204E+000	2,197607500776644E-002	1,000000000000000E+000	-2,6039904E-002	41	4,7345704E-005
2	1	0	1	0	1,382809190363665E+005	2,1750550E+000	2,1744163E+000	2,041167472897182E-002	1,000000000000000E+000	-2,4977034E-002	41	4,4383480E-005
2	1	0	1	0	1,383308990441854E+005	2,1950469E+000	2,1944182E+000	1,908813670534126E-002	1,000000000000000E+000	-2,3986751E-002	41	4,1887353E-005
2	1	0	1	0	1,383808787520041E+005	2,2150390E+000	2,2144125E+000	1,789412797191825E-002	1,000000000000000E+000	-2,3059193E-002	41	3,9624982E-005
2	1	0	1	0	1,384308584598256E+005	2,2350307E+000	2,2343884E+000	1,687536515318444E-002	1,000000000000000E+000	-2,2186417E-002	41	3,7706119E-005
2	1	0	1	0	1,384808378676460E+005	2,2550223E+000	2,2543674E+000	1,601264111710324E-002	1,000000000000000E+000	-2,1360831E-002	41	3,6098376E-005
2	1	0	1	0	1,385308179754647E+005	2,2750142E+000	2,2743652E+000	1,523259641524734E-002	1,000000000000000E+000	-2,0576753E-002	41	3,4644487E-005
2	1	0	1	0	1,385807976832848E+005	2,2950060E+000	2,2943571E+000	1,454670657721097E-002	1,000000000000000E+000	-1,9829141E-002	41	3,3375338E-005
2	1	0	1	0	1,386307773911064E+005	2,3149981E+000	2,3143857E+000	1,398737797232907E-002	1,000000000000000E+000	-1,9112069E-002	41	3,2372187E-005
2	1	0	1	0	1,386807566989246E+005	2,3349895E+000	2,3343618E+000	1,353667525769744E-002	1,000000000000000E+000	-1,8421208E-002	41	3,1599498E-005
2	1	0	1	0	1,387307368067442E+005	2,3549814E+000	2,3543510E+000	1,310500750449242E-002	1,000000000000000E+000	-1,7752398E-002	41	3,0853789E-005
2	1	0	1	0	1,387807165145655E+005	2,3749735E+000	2,3743436E+000	1,277070293070445E-002	1,000000000000000E+000	-1,7101381E-002	41	3,0322037E-005
2	1	0	1	0	1,388306962223849E+005	2,3949654E+000	2,3943594E+000	1,252810964880346E-002	1,000000000000000E+000	-1,6464505E-002	41	2,9996796E-005
2	1	0	1	0	1,388806759302034E+005	2,4149570E+000	2,4143090E+000	1,235118750873918E-002	1,000000000000000E+000	-1,5838884E-002	41	2,9819583E-005
2	1	0	1	0	1,389306560380248E+005	2,4349494E+000	2,4343379E+000	1,220669696617833E-002	1,000000000000000E+000	-1,5221403E-002	41	2,9715224E-005
2	1	0	1	0	1,389806357458457E+005	2,4549410E+000	2,4543111E+000	1,211132208909912E-002	1,000000000000000E+000	-1,4609902E-002	41	2,9724953E-005
2	1	0	1	0	1,390306150536640E+005	2,4749327E+000	2,4743152E+000	1,203140304468292E-002	1,000000000000000E+000	-1,4002570E-002	41	2,9769482E-005
2	1	0	1	0	1,390805947614838E+005	2,4949243E+000	2,4942803E+000	1,191003927160306E-002	1,000000000000000E+000	-1,3400184E-002	41	2,9706976E-005
2	1	0	1	0	1,391305748693054E+005	2,5149162E+000	2,5143092E+000	1,179428740454197E-002	1,000000000000000E+000	-1,2803295E-002	41	2,9654486E-005
2	1	0	1	0	1,391805542771239E+005	2,5349081E+000	2,5342915E+000	1,164192557828694E-002	1,000000000000000E+000	-1,2214073E-002	41	2,9504034E-005
2	1	0	1	0	1,392305339849433E+005	2,5548999E+000	2,5542655E+000	1,146534854902620E-002	1,000000000000000E+000	-1,1633168E-002	41	2,9285544E-005
2	1	0	1	0	1,392805136927644E+005	2,5748918E+000	2,5742800E+000	1,130332315980996E-002	1,000000000000000E+000	-1,1060823E-002	41	2,9097919E-005
2	1	0	1	0	1,393304938005842E+005	2,5948837E+000	2,5942750E+000	1,118191794842088E-002	1,000000000000000E+000	-1,0495290E-002	41	2,9008970E-005
2	1	0	1	0	1,393804734084024E+005	2,6148758E+000	2,6142766E+000	1,112228467104412E-002	1,000000000000000E+000	-9,9344868E-003	41	2,9076729E-005
2	1	0	1	0	1,394304531162238E+005	2,6348674E+000	2,6342680E+000	1,108747947612707E-002	1,000000000000000E+000	-9,3757547E-003	41	2,9207393E-005
2	1	0	1	0	1,394804325240450E+005	2,6548593E+000	2,6542523E+000	1,110869757018564E-002	1,000000000000000E+000	-8,8168960E-003	41	2,9485285E-005
2	1	0	1	0	1,395304126318633E+005	2,6748509E+000	2,6742351E+000	1,117416662521978E-002	1,000000000000000E+000	-8,2556652E-003	41	2,9882349E-005
2	1	0	1	0	1,395803923396829E+005	2,6948428E+000	2,6942356E+000	1,129520211227179E-002	1,000000000000000E+000	-7,6900506E-003	41	3,0431935E-005
2	1	0	1	1	1,396271232469953E+005	2,6864464E+000	2,6858134E+000	5,636263924113011E-003	2,000000000000000E+000	-7,3069963E-003	41	1,5137954E-005
2	1	0	1	1	1,396771029548156E+005	2,6664546E+000	2,6658034E+000	3,423630510704878E-003	2,000000000000000E+000	-7,0911334E-003	42	9,1267257E-006
2	1	0	1	1	1,397270826626336E+005	2,6464629E+000	2,6458380E+000	2,004486216478953E-003	2,000000000000000E+000	-6,9622807E-003	42	5,3035460E-006
2	1	0	1	1	1,397770620704549E+005	2,6264710E+000	2,6258633E+000	1,029611145730688E-003	2,000000000000000E+000	-6,8915165E-003	42	2,7036181E-006
2	1	0	1	1	1,398270417782757E+005	2,6064792E+000	2,6058440E+000	3,046048540871998E-004	2,000000000000000E+000	-6,8629361E-003	43	7,9375275E-007
2	0	0	1	1	1,398770214860938E+005	2,5864875E+000	2,5858881E+000	-2,637152388013280E-004	2,000000000000000E+000	-6,8660001E-003	43	-6,8193810E-007
2	0	0	1	1	1,399270008939143E+005	2,5664954E+000	2,5659888E+000	-7,174432192615429E-004	2,000000000000000E+000	-6,8939473E-003	43	-1,8409512E-006
2	0	0	1	1	1,399769806017356E+005	2,5465035E+000	2,5459037E+000	-1,095387295924030E-003	2,000000000000000E+000	-6,9431853E-003	42	-2,7887506E-006
2	0	0	1	1	1,400269603095544E+005	2,5265117E+000	2,5259206E+000	-1,387353325872757E-003	2,000000000000000E+000	-7,0094019E-003	42	-3,5043445E-006
2	0	0	1	1	1,400769400173733E+005	2,5065196E+000	2,5059588E+000	-1,684042245124254E-003	2,000000000000000E+000	-7,0906868E-003	42	-4,2201405E-006
2	0	0	1	1	1,401269192251947E+005	2,4865279E+000	2,4859529E+000	-1,927696344493277E-003	2,000000000000000E+000	-7,1852333E-003	42	-4,7921621E-006
2	0	0	1	1	1,401768989330139E+005	2,4665358E+000	2,4659586E+000	-2,164958726684154E-003	2,000000000000000E+000	-7,2916667E-003	42	-5,3386984E-006
2	0	0	1	1	1,402268786408326E+005	2,4465442E+000	2,4459772E+000	-2,341036125745231E-003	2,000000000000000E+000	-7,4081947E-003	42	-5,7261209E-006
2	0	0	1	1	1,402768580486540E+005	2,4265525E+000	2,4259825E+000	-2,532594089975082E-003	2,000000000000000E+000	-7,5344467E-003	42	-6,1440287E-006
2	0	0	1	1	1,403268374564741E+005	2,4065604E+000	2,4059815E+000	-2,722796093958410E-003	2,000000000000000E+000	-7,6700212E-003	42	-6,5509971E-006
2	0	0	1	1	1,403768171642921E+005	2,3865685E+000	2,3860064E+000	-2,895420261759915E-003	2,000000000000000E+000	-7,8147668E-003	42	-6,9084913E-006
2	0	0	1	1	1,404267968721133E+005	2,3665769E+000	2,3660047E+000	-3,065977504038862E-003	2,000000000000000E+000	-7,9684798E-003	42	-7,2541170E-006
2	0	0	1	1	1,404767765799346E+005	2,3465850E+000	2,3460031E+000	-3,256939134082775E-003	2,000000000000000E+000	-8,1308158E-003	42	-7,6407896E-006
2	0	0	1	1	1,405267560877525E+005	2,3265932E+000	2,3260148E+000	-3,446226509229870E-003	2,000000000000000E+000	-8,3019668E-003	42	-8,0159734E-006
2	0	0	1	1	1,405767354955727E+005	2,3066010E+000	2,3060348E+000	-3,615618210001731E-003	2,000000000000000E+000	-8,4823025E-003	42	-8,3377417E-006
2	0	0	1	1	1,406267151033944E+005	2,2866094E+000	2,2860446E+000	-3,811909500055492E-003	2,000000000000000E+000	-8,6727301E-003	42	-8,7141952E-006
2	0	0	1	1	1,406766949112131E+005	2,2666175E+000	2,2660706E+000	-4,058475577986845E-003	2,000000000000000E+000	-8,8740969E-003	42	-9,1967922E-006
2	0	0	1	1	1,407266743190323E+005	2,2466257E+000	2,2460604E+000	-4,319668715978511E-003	2,000000000000000E+000	-9,0875002E-003	42	-9,7022366E-006
2	0	0	1	1	1,407766537268534E+005	2,2266340E+000	2,2261207E+000	-4,593984365547685E-003	2,000000000000000E+000	-9,3139652E-003	42	-1,0226764E-005
2	0	0	1	1	1,408266334346724E+005	2,2066422E+000	2,2060966E+000	-4,900346469929727E-003	2,000000000000000E+000	-9,5554553E-003	42	-1,0810638E-005
2	0	0	1	1	1,408766131424911E+005	2,1866503E+000	2,1861074E+000	-5,262389427345762E-003	2,000000000000000E+000	-9,8133758E-003	42	-1,1504148E-005
2	0	0	1	1	1,409265926503123E+005	2,1666586E+000	2,1661069E+000	-5,634252329129855E-003	2,000000000000000E+000	-1,0089554E-002	42	-1,2204393E-005
2	0	0	1	1	1,409765722581330E+005	2,1466668E+000	2,1461201E+000	-6,072640384796761E-003	2,000000000000000E+000	-1,0385928E-002	42	-1,3032615E-005
2	0	0	1	1	1,410265520659508E+005	2,1266749E+000	2,1261156E+000	-6,543537584606308E-003	2,000000000000000E+000	-1,0704786E-002	42	-1,3912317E-005
2	0	0	1	1	1,410765313737718E+005	2,1066828E+000	2,1061783E+000	-7,049270648862446E-003	2,000000000000000E+000	-1,1048064E-002	42	-1,4847021E-005
2	0	0	1	1	1,411265108815930E+005	2,0866911E+000	2,0861654E+000	-7,633798062823410E-003	2,000000000000000E+000	-1,1418995E-002	42	-1,5925365E-005
2	0	0	1	1	1,411764905894115E+005	2,0666993E+000	2,0661831E+000	-8,264106715360830E-003	2,000000000000000E+000	-1,1819705E-002	42	-1,7075157E-005
2	0	0	1	1	1,412264702972315E+005	2,0467074E+000	2,0461857E+000	-8,928377215512328E-003	2,000000000000000E+000	-1,2253194E-002	42	-1,8269118E-005
2	0	0	1	1	1,412764497050529E+005	2,0267158E+000	2,0262296E+000	-9,680125022378736E-003	2,000000000000000E+000	-1,2721779E-002	42	-1,9614155E-005
2	0	0	1	1	1,413264291128712E+005	2,0067239E+000	2,0061316E+000	-1,048161872894812E-002	2,000000000000000E+000	-1,3231034E-002	41	-2,1027507E-005
2	0	0	1	1	1,413764090206907E+005	1,9867319E+000	1,9861223E+000	-1,135336326736196E-002	2,000000000000000E+000	-1,3781620E-002	41	-2,2549168E-005
2	0	0	1	1	1,414263887285115E+005	1,9667401E+000	1,9661306E+000	-1,229426481010895E-002	2,000000000000000E+000	-1,4377203E-002	41	-2,4172130E-005
2	0	0	1	1	1,414763683363316E+005	1,9467481E+000	1,9461317E+000	-1,330297689855117E-002	2,000000000000000E+000	-1,5021418E-002	41	-2,5889345E-005
2	0	0	1	1	1,415263477441496E+005	1,9267564E+000	1,9261616E+000	-1,436570352908251E-002	2,000000000000000E+000	-1,5717233E-002	41	-2,7670667E-005
2	0	0	1	1	1,415763273519708E+005	1,9067644E+000	1,9061396E+000	-1,551488141888174E-002	2,000000000000000E+000	-1,6468501E-002	41	-2,9573530E-005
2	0	0	1	1	1,416263069597916E+005	1,8867725E+000	1,8861686E+000	-1,670469384650150E-002	2,000000000000000E+000	-1,7277414E-002	41	-3,1507869E-005
2	0	0	1	1	1,416762867676099E+005	1,8667806E+000	1,8661338E+000	-1,795462897237718E-002	2,000000000000000E+000	-1,8147700E-002	41	-3,3505741E-005
2	0	0	1	1	1,417262661754306E+005	1,8467890E+000	1,8461604E+000	-1,925616693935733E-002	2,000000000000000E+000	-1,9081602E-002	41	-3,5549972E-005
2	0	0	1	1	1,417762456832519E+005	1,8267970E+000	1,8261704E+000	-2,063973856703771E-002	2,000000000000000E+000	-2,0082247E-002	41	-3,7691680E-005
2	0	0	1	1	1,418262251910698E+005	1,8068053E+000	1,8061816E+000	-2,211767315687713E-002	2,000000000000000E+000	-2,1154817E-002	41	-3,9948533E-005
2	0	0	1	1	1,418762049988901E+005	1,7868134E+000	1,7861786E+000	-2,366131005103682E-002	2,000000000000000E+000	-2,2302851E-002	41	-4,2263324E-005
2	0	0	1	1	1,419261844067110E+005	1,7668217E+000	1,7662212E+000	-2,531608614401654E-002	2,000000000000000E+000	-2,3530655E-002	41	-4,4713808E-005
2	0	0	1	1	1,419761640145304E+005	1,7468299E+000	1,7462162E+000	-2,708415893178061E-002	2,000000000000000E+000	-2,4843667E-002	41	-4,7294798E-005
2	0	0	1	1	1,420261437223486E+005	1,7268379E+000	1,7262280E+000	-2,896086358875405E-002	2,000000000000000E+000	-2,6248408E-002	41	-4,9993054E-005
2	0	0	1	1	1,420761232301700E+005	1,7068460E+000	1,7062451E+000	-3,111822652699375E-002	2,000000000000000E+000	-2,7753415E-002	41	-5,3095322E-005
2	0	0	1	1	1,421261026379899E+005	1,6868542E+000	1,6862495E+000	-3,346949212243222E-002	2,000000000000000E+000	-2,9370731E-002	41	-5,6437915E-005
2	0	0	1	1	1,421760824458082E+005	1,6668624E+000	1,6662480E+000	-3,629329085592301E-002	2,000000000000000E+000	-3,1118274E-002	41	-6,0473623E-005
2	0	0	1	1	1,422260620536297E+005	1,6468705E+000	1,6462713E+000	-3,978541013346693E-002	2,000000000000000E+000	-3,3022068E-002	41	-6,5497581E-005
2	0	0	1	1	1,422760418614508E+005	1,6268787E+000	1,6263093E+000	-4,415377359463324E-002	2,000000000000000E+000	-3,5119694E-002	41	-7,1807692E-005
2	0	0	1	1	1,423260211692685E+005	1,6068869E+000	1,6062980E+000	-4,986699553330165E-002	2,000000000000000E+000	-3,7468776E-002	41	-8,0101250E-005
2	0	0	1	1	1,423760006770891E+005	1,5868951E+000	1,5863073E+000	-5,727334220189162E-002	2,000000000000000E+000	-4,0142637E-002	41	-9,0853122E-005
2	0	0	1	1	1,424259803849105E+005	1,5669034E+000	1,5663601E+000	-6,716921431514478E-002	2,000000000000000E+000	-4,3246076E-002	41	-1,0521118E-004
2	0	0	1	1	1,424759600927290E+005	1,5469114E+000	1,5463490E+000	-8,129614478605229E-002	2,000000000000000E+000	-4,6937894E-002	41	-1,2571222E-004
2	0	0	1	1	1,425259394005481E+005	1,5269196E+000	1,5263405E+000	-1,028739263915059E-001	2,000000000000000E+000	-5,1508419E-002	41	-1,5702064E-004
2	0	0	1	1	1,425759191083694E+005	1,5069276E+000	1,5062962E+000	-1,288867756648262E-001	2,000000000000000E+000	-5,7306819E-002	40	-1,9414166E-004
2	0	0	1	1	1,426258987161890E+005	1,4869359E+000	1,4863340E+000	-1,516037494575637E-001	2,000000000000000E+000	-6,4347260E-002	40	-2,2533380E-004
2	0	0	1	1	1,426758783240074E+005	1,4669440E+000	1,4663239E+000	-1,664915522207874E-001	2,000000000000000E+000	-7,2343379E-002	40	-2,4413054E-004
2	0	0	1	1	1,427258578318288E+005	1,4469521E+000	1,4463464E+000	-1,712022991431370E-001	2,000000000000000E+000	-8,0832832E-002	40	-2,4761783E-004
2	0	0	1	1	1,427758373396485E+005	1,4269605E+000	1,4263458E+000	-1,654785283951348E-001	2,000000000000000E+000	-8,9290358E-002	40	-2,3602961E-004
2	0	0	1	1	1,428258170474670E+005	1,4069685E+000	1,4063474E+000	-1,525967653973823E-001	2,000000000000000E+000	-9,7261384E-002	40	-2,1460406E-004
2	0	0	1	1	1,428757965552883E+005	1,3869766E+000	1,3863719E+000	-1,378951838170113E-001	2,000000000000000E+000	-1,0452178E-001	40	-1,9117400E-004
2	0	0	1	1	1,429257761631091E+005	1,3669847E+000	1,3663485E+000	-1,247553404938144E-001	2,000000000000000E+000	-1,1108079E-001	40	-1,7045927E-004
2	0	0	1	1	1,429757557709273E+005	1,3469929E+000	1,3463575E+000	-1,135917908799678E-001	2,000000000000000E+000	-1,1703231E-001	40	-1,5293516E-004
2	0	0	1	1	1,430257353787473E+005	1,3270011E+000	1,3263783E+000	-1,040664115080836E-001	2,000000000000000E+000	-1,2246908E-001	40	-1,3803144E-004
2	0	0	1	1	1,430757149865690E+005	1,3070092E+000	1,3063707E+000	-9,591341719939431E-002	2,000000000000000E+000	-1,2746538E-001	40	-1,2529848E-004
2	0	0	1	1	1,431256943943873E+005	1,2870173E+000	1,2864100E+000	-8,890846998325019E-002	2,000000000000000E+000	-1,3208324E-001	40	-1,1437274E-004
2	0	0	1	1	1,431756740022071E+005	1,2670256E+000	1,2663958E+000	-8,287801154061358E-002	2,000000000000000E+000	-1,3637690E-001	40	-1,0495637E-004
2	0	0	1	1	1,432256536100281E+005	1,2470338E+000	1,2464048E+000	-7,767322511837738E-002	2,000000000000000E+000	-1,4039151E-001	40	-9,6812277E-005
2	0	0	1	1	1,432756333178473E+005	1,2270417E+000	1,2264007E+000	-7,327642545235746E-002	2,000000000000000E+000	-1,4416601E-001	40	-8,9866262E-005
2	0	0	1	1	1,433256126256660E+005	1,2070500E+000	1,2064435E+000	-6,960876596531551E-002	2,000000000000000E+000	-1,4773819E-001	40	-8,3979045E-005
2	0	0	1	1	1,433755924334873E+005	1,1870581E+000	1,1864218E+000	-6,657112169156343E-002	2,000000000000000E+000	-1,5114301E-001	40	-7,8981429E-005
2	0	0	1	1	1,434255720413076E+005	1,1670662E+000	1,1664333E+000	-6,413458866165989E-002	2,000000000000000E+000	-1,5441087E-001	40	-7,4808719E-005
2	0	0	1	1	1,434755516491258E+005	1,1470745E+000	1,1464375E+000	-6,217940078327605E-002	2,000000000000000E+000	-1,5756984E-001	40	-7,1284798E-005
2	0	0	1	1	1,435255308569465E+005	1,1270827E+000	1,1264441E+000	-6,079270159843142E-002	2,000000000000000E+000	-1,6064607E-001	40	-6,8479581E-005
2	0	0	1	1	1,435755106647676E+005	1,1070908E+000	1,1064504E+000	-5,992834339578357E-002	2,000000000000000E+000	-1,6366589E-001	40	-6,6307744E-005
2	0	0	1	1	1,436254902725858E+005	1,0870991E+000	1,0864544E+000	-5,946919181742305E-002	2,000000000000000E+000	-1,6665350E-001	40	-6,4610562E-005
2	0	0	1	1	1,436754700804062E+005	1,0671070E+000	1,0664732E+000	-5,952656368414577E-002	2,000000000000000E+000	-1,6962968E-001	40	-6,3483487E-005
2	0	0	1	1	1,437254493882277E+005	1,0471152E+000	1,0464599E+000	-5,991503380982588E-002	2,000000000000000E+000	-1,7261674E-001	40	-6,2698680E-005
2	0	0	1	1	1,437754288960458E+005	1,0271235E+000	1,0264782E+000	-6,077794645528362E-002	2,000000000000000E+000	-1,7563584E-001	40	-6,2387233E-005
2	0	0	1	1	1,438254086038654E+005	1,0071316E+000	1,0064769E+000	-6,203559740622322E-002	2,000000000000000E+000	-1,7870879E-001	40	-6,2437393E-005
2	0	0	1	1	1,438721401111779E+005	1,0115297E+000	1,0109274E+000	-3,567349184056670E-002	2,000000000000000E+000	-1,8115753E-001	41	-3,6063313E-005
2	0	0	1	1	1,439221198189990E+005	1,0315217E+000	1,0308963E+000	-1,766180943288342E-002	2,000000000000000E+000	-1,8242690E-001	41	-1,8207495E-005
2	0	0	1	1	1,439720995268170E+005	1,0515134E+000	1,0508531E+000	-8,070550838579691E-003	2,000000000000000E+000	-1,8304510E-001	41	-8,4809635E-006
2	0	0	1	1	1,440220790346371E+005	1,0715054E+000	1,0708693E+000	-1,893287747322467E-003	2,000000000000000E+000	-1,8327737E-001	42	-2,0274638E-006
2	1	0	1	1	1,440720587424585E+005	1,0914972E+000	1,0908452E+000	2,362164437879032E-003	2,000000000000000E+000	-1,8325536E-001	42	2,5767558E-006
2	1	0	1	1	1,441220383502771E+005	1,1114891E+000	1,1107823E+000	5,424592812973722E-003	2,000000000000000E+000	-1,8305233E-001	42	6,0255416E-006
2	1	0	1	1	1,441720179580967E+005	1,1314809E+000	1,1307977E+000	7,785247354622465E-003	2,000000000000000E+000	-1,8271437E-001	42	8,8035404E-006
2	1	0	1	1	1,442219977659176E+005	1,1514727E+000	1,1507578E+000	9,656467499153935E-003	2,000000000000000E+000	-1,8227273E-001	42	1,1112255E-005
2	1	0	1	1	1,442719773737369E+005	1,1714646E+000	1,1708143E+000	1,116175365313341E-002	2,000000000000000E+000	-1,8174583E-001	41	1,3068340E-005
2	1	0	1	1	1,443219569815556E+005	1,1914563E+000	1,1908032E+000	1,238025570242518E-002	2,000000000000000E+000	-1,8115245E-001	41	1,4742448E-005
2	1	0	1	1	1,443719365893770E+005	1,2114483E+000	1,2107999E+000	1,342445458419175E-002	2,000000000000000E+000	-1,8050261E-001	41	1,6254329E-005
2	1	0	1	1	1,444219163971976E+005	1,2314401E+000	1,2307574E+000	1,436012973491729E-002	2,000000000000000E+000	-1,7980365E-001	41	1,7673836E-005
2	1	0	1	1	1,444718960050158E+005	1,2514319E+000	1,2507591E+000	1,516743504646861E-002	2,000000000000000E+000	-1,7906162E-001	41	1,8970808E-005
2	1	0	1	1	1,445218756128362E+005	1,2714238E+000	1,2707449E+000	1,591526472267119E-002	2,000000000000000E+000	-1,7827995E-001	41	2,0224243E-005
2	1	0	1	1	1,445718552206578E+005	1,2914156E+000	1,2907580E+000	1,664829361020714E-002	2,000000000000000E+000	-1,7746094E-001	41	2,1488919E-005
2	1	0	1	1	1,446218349284763E+005	1,3114074E+000	1,3107388E+000	1,735938075477450E-002	2,000000000000000E+000	-1,7660724E-001	41	2,2753615E-005
2	1	0	1	1	1,446718146362959E+005	1,3313994E+000	1,3307228E+000	1,802382492719212E-002	2,000000000000000E+000	-1,7571896E-001	41	2,3984714E-005
2	1	0	1	1	1,447217941441170E+005	1,3513912E+000	1,3507025E+000	1,871818431344668E-002	2,000000000000000E+000	-1,7479542E-001	41	2,5282699E-005
2	1	0	1	1	1,447717738519362E+005	1,3713830E+000	1,3707345E+000	1,941329165969835E-002	2,000000000000000E+000	-1,7383756E-001	41	2,6610467E-005
2	1	0	1	1	1,448217534597546E+005	1,3913747E+000	1,3907022E+000	2,019542286449386E-002	2,000000000000000E+000	-1,7284341E-001	41	2,8085820E-005
2	1	0	1	1	1,448717332675761E+005	1,4113667E+000	1,4107028E+000	2,095062668165913E-002	2,000000000000000E+000	-1,7181185E-001	41	2,9555109E-005
2	1	0	1	1	1,449217128753965E+005	1,4313586E+000	1,4306345E+000	2,176712205330528E-002	2,000000000000000E+000	-1,7073981E-001	41	3,1140797E-005
2	1	0	1	1	1,449716924832147E+005	1,4513505E+000	1,4506692E+000	2,270615665853823E-002	2,000000000000000E+000	-1,6962399E-001	41	3,2939122E-005
2	1	0	1	1	1,450216721910353E+005	1,4713422E+000	1,4706233E+000	2,364758899166614E-002	2,000000000000000E+000	-1,6846183E-001	41	3,4776695E-005
2	1	0	1	1	1,450716516988566E+005	1,4913340E+000	1,4906504E+000	2,469825738328658E-002	2,000000000000000E+000	-1,6724913E-001	41	3,6816469E-005
2	1	0	1	1	1,451216315066749E+005	1,5113258E+000	1,5106083E+000	2,586960635282698E-002	2,000000000000000E+000	-1,6598170E-001	41	3,9078841E-005
2	1	0	1	1	1,451716111144950E+005	1,5313177E+000	1,5306326E+000	2,738005530562115E-002	2,000000000000000E+000	-1,6464771E-001	41	4,1908806E-005
2	1	0	1	1	1,452215908223162E+005	1,5513096E+000	1,5506147E+000	3,003756517668717E-002	2,000000000000000E+000	-1,6321421E-001	41	4,6576690E-005
2	1	0	1	1	1,452715703301355E+005	1,5713013E+000	1,5705806E+000	3,472740534257551E-002	2,000000000000000E+000	-1,6160706E-001	41	5,4542190E-005
2	1	0	1	1	1,453215500379540E+005	1,5912932E+000	1,5905342E+000	5,506545689612613E-002	2,000000000000000E+000	-1,5947285E-001	41	8,7583496E-005
2	1	0	1	1	1,453715297457749E+005	1,6112852E+000	1,6105187E+000	9,255858831685693E-002	2,000000000000000E+000	-1,5579326E-001	41	1,4906733E-004
2	1	0	1	1	1,454215093535953E+005	1,6312768E+000	1,6305895E+000	1,288035965062151E-001	2,000000000000000E+000	-1,5023273E-001	40	2,1002578E-004
2	1	0	1	1	1,454714890614138E+005	1,6512688E+000	1,6505686E+000	1,579711275528880E-001	2,000000000000000E+000	-1,4302492E-001	40	2,6074218E-004
2	1	0	1	1	1,455214685692344E+005	1,6712606E+000	1,6705713E+000	1,784225521445726E-001	2,000000000000000E+000	-1,3457437E-001	40	2,9806761E-004
2	1	0	1	1	1,455714484770559E+005	1,6912525E+000	1,6905668E+000	1,893425401027287E-001	2,000000000000000E+000	-1,2533778E-001	40	3,2009621E-004
2	1	0	1	1	1,456214280848741E+005	1,7112443E+000	1,7105601E+000	1,902225327556946E-001	2,000000000000000E+000	-1,1580337E-001	40	3,2538708E-004
2	1	0	1	1	1,456714077926941E+005	1,7312361E+000	1,7305601E+000	1,816639134204152E-001	2,000000000000000E+000	-1,0647070E-001	40	3,1438030E-004
2	1	0	1	1	1,457213874005154E+005	1,7512280E+000	1,7505410E+000	1,668159909982445E-001	2,000000000000000E+000	-9,7742923E-002	40	2,9201823E-004
2	1	0	1	1	1,457713670083340E+005	1,7712200E+000	1,7705591E+000	1,503752448612092E-001	2,000000000000000E+000	-8,9813516E-002	40	2,6624824E-004
2	1	0	1	1	1,458213466161531E+005	1,7912116E+000	1,7905109E+000	1,345389772741195E-001	2,000000000000000E+000	-8,2692727E-002	40	2,4089351E-004
2	1	0	1	1	1,458713264239740E+005	1,8112037E+000	1,8105556E+000	1,196745275426361E-001	2,000000000000000E+000	-7,6340273E-002	40	2,1667738E-004
2	1	0	1	1	1,459213060317943E+005	1,8311954E+000	1,8305259E+000	1,057305782829895E-001	2,000000000000000E+000	-7,0708111E-002	40	1,9354255E-004
2	1	0	1	1	1,459712857396123E+005	1,8511873E+000	1,8505300E+000	9,314643686521462E-002	2,000000000000000E+000	-6,5738216E-002	40	1,7237027E-004
2	1	0	1	1	1,460212653474334E+005	1,8711791E+000	1,8705305E+000	8,197842379692666E-002	2,000000000000000E+000	-6,1364569E-002	40	1,5334314E-004
2	1	0	1	1	1,460712448552544E+005	1,8911710E+000	1,8905271E+000	7,222686950105639E-002	2,000000000000000E+000	-5,7514075E-002	40	1,3654686E-004
2	1	0	1	1	1,461212246630727E+005	1,9111626E+000	1,9105258E+000	6,382701367488075E-002	2,000000000000000E+000	-5,4115776E-002	40	1,2194316E-004
2	1	0	1	1	1,461712042708931E+005	1,9311545E+000	1,9304727E+000	5,668563298445162E-002	2,000000000000000E+000	-5,1103931E-002	40	1,0943007E-004
2	1	0	1	1	1,462211839787147E+005	1,9511464E+000	1,9504855E+000	5,060625906961747E-002	2,000000000000000E+000	-4,8421040E-002	40	9,8706776E-005
2	1	0	1	1	1,462714134865720E+005	1,9712384E+000	1,9705420E+000	4,563583585482534E-002	2,000000000000000E+000	-4,6001859E-002	41	8,9927329E-005
2	1	0	1	1	1,463213932943915E+005	1,9912302E+000	1,9905428E+000	4,116206853516280E-002	2,000000000000000E+000	-4,3831278E-002	41	8,1934857E-005
2	1	0	1	1	1,463713731022123E+005	2,0112219E+000	2,0105405E+000	3,733033460643043E-002	2,000000000000000E+000	-4,1867167E-002	41	7,5054151E-005
2	1	0	1	1	1,464213526100325E+005	2,0312135E+000	2,0305421E+000	3,395800922541381E-002	2,000000000000000E+000	-4,0083889E-002	41	6,8953166E-005
2	1	0	1	1	1,464713322178503E+005	2,0512054E+000	2,0505352E+000	3,102663607634637E-002	2,000000000000000E+000	-3,8457539E-002	41	6,3621206E-005
2	1	0	1	1	1,465213119256716E+005	2,0711970E+000	2,0705082E+000	2,844104020798377E-002	2,000000000000000E+000	-3,6968827E-002	41	5,8887406E-005
2	1	0	1	1	1,465712916334928E+005	2,0911891E+000	2,0905390E+000	2,616257784162558E-002	2,000000000000000E+000	-3,5600819E-002	41	5,4693890E-005
2	1	0	1	1	1,466212714413111E+005	2,1111810E+000	2,1105342E+000	2,413454354274425E-002	2,000000000000000E+000	-3,4340635E-002	41	5,0936778E-005
2	1	0	1	1	1,466712511491313E+005	2,1311729E+000	2,1305072E+000	2,233727990573900E-002	2,000000000000000E+000	-3,3176105E-002	41	4,7589736E-005
2	1	0	1	1	1,467212308569530E+005	2,1511650E+000	2,1505206E+000	2,074064209446719E-002	2,000000000000000E+000	-3,2096360E-002	41	4,4603177E-005
2	1	0	1	1	1,467712105647717E+005	2,1711566E+000	2,1704862E+000	1,934716122119627E-002	2,000000000000000E+000	-3,1091366E-002	41	4,1992746E-005
2	1	0	1	1	1,468211905725903E+005	2,1911485E+000	2,1905105E+000	1,815889753805146E-002	2,000000000000000E+000	-3,0150764E-002	41	3,9777256E-005
2	1	0	1	1	1,468711702804114E+005	2,2111404E+000	2,2104774E+000	1,708445733190783E-002	2,000000000000000E+000	-2,9266179E-002	41	3,7764807E-005
2	1	0	1	1	1,469211496882318E+005	2,2311318E+000	2,2304809E+000	1,615329448942708E-002	2,000000000000000E+000	-2,8430987E-002	41	3,6029614E-005
2	1	0	1	1	1,469711293960493E+005	2,2511241E+000	2,2504654E+000	1,538297348816378E-002	2,000000000000000E+000	-2,7638517E-002	41	3,4618850E-005
2	1	0	1	1	1,470211095038707E+005	2,2711158E+000	2,2704401E+000	1,465499441180601E-002	2,000000000000000E+000	-2,6883285E-002	41	3,3273285E-005
2	1	0	1	1	1,470710889116921E+005	2,2911077E+000	2,2904553E+000	1,407148293440991E-002	2,000000000000000E+000	-2,6160840E-002	41	3,2230102E-005
2	1	0	1	1	1,471210686195102E+005	2,3110995E+000	2,3104637E+000	1,356750516531965E-002	2,000000000000000E+000	-2,5466366E-002	41	3,1347226E-005
2	1	0	1	1	1,471710482273304E+005	2,3310914E+000	2,3304565E+000	1,313462816484584E-002	2,000000000000000E+000	-2,4795128E-002	41	3,0609681E-005
2	1	0	1	1	1,472210283351517E+005	2,3510833E+000	2,3504443E+000	1,275862132091710E-002	2,000000000000000E+000	-2,4143692E-002	41	2,9988429E-005
2	1	0	1	1	1,472710080429707E+005	2,3710754E+000	2,3704319E+000	1,250248180147434E-002	2,000000000000000E+000	-2,3508081E-002	41	2,9636281E-005
2	1	0	1	1	1,473209877507894E+005	2,3910670E+000	2,3904202E+000	1,226294545212106E-002	2,000000000000000E+000	-2,2885172E-002	41	2,9313593E-005
2	1	0	1	1	1,473709674586104E+005	2,4110589E+000	2,4104073E+000	1,208734709400480E-002	2,000000000000000E+000	-2,2271978E-002	41	2,9135430E-005
2	1	0	1	1	1,474209471664312E+005	2,4310508E+000	2,4304080E+000	1,197506333798876E-002	2,000000000000000E+000	-2,1666195E-002	41	2,9104289E-005
2	1	0	1	1	1,474709269742491E+005	2,4510422E+000	2,4503686E+000	1,189622184155017E-002	2,000000000000000E+000	-2,1065222E-002	41	2,9150129E-005
2	1	0	1	1	1,475209065820698E+005	2,4710340E+000	2,4703774E+000	1,182403994372684E-002	2,000000000000000E+000	-2,0467296E-002	41	2,9209841E-005
2	1	0	1	1	1,475708862898913E+005	2,4910262E+000	2,4903851E+000	1,176094662219060E-002	2,000000000000000E+000	-1,9872621E-002	41	2,9289286E-005
2	1	0	1	1	1,476208660977096E+005	2,5110180E+000	2,5103922E+000	1,163601399373906E-002	2,000000000000000E+000	-1,9282885E-002	41	2,9210958E-005
2	1	0	1	1	1,476708458055293E+005	2,5310102E+000	2,5303581E+000	1,149980845831425E-002	2,000000000000000E+000	-1,8699963E-002	41	2,9098634E-005
2	1	0	1	1	1,477208255133501E+005	2,5510020E+000	2,5503490E+000	1,133029202447178E-002	2,000000000000000E+000	-1,8124649E-002	41	2,8896198E-005
2	1	0	1	1	1,477708051211699E+005	2,5709937E+000	2,5703549E+000	1,119363841746424E-002	2,000000000000000E+000	-1,7557416E-002	41	2,8771623E-005
2	1	0	1	1	1,478207852289882E+005	2,5909855E+000	2,5903399E+000	1,106036748825071E-002	2,000000000000000E+000	-1,6997308E-002	41	2,8650111E-005
2	1	0	1	1	1,478707649368095E+005	2,6109774E+000	2,6103048E+000	1,099842476426954E-002	2,000000000000000E+000	-1,6441273E-002	41	2,8709241E-005
2	1	0	1	1	1,479207443446303E+005	2,6309688E+000	2,6303287E+000	1,100156674606556E-002	2,000000000000000E+000	-1,5886689E-002	41	2,8937737E-005
2	1	0	1	1	1,479707240524483E+005	2,6509607E+000	2,6503413E+000	1,104201230882795E-002	2,000000000000000E+000	-1,5331106E-002	41	2,9265100E-005
2	1	0	1	1	1,480207041602689E+005	2,6709526E+000	2,6703110E+000	1,111066656418025E-002	2,000000000000000E+000	-1,4772920E-002	41	2,9668934E-005
2	1	0	1	1	1,480706835680902E+005	2,6909447E+000	2,6903002E+000	1,124822944384327E-002	2,000000000000000E+000	-1,4209598E-002	41	3,0261113E-005
2	1	0	1	0	1,481171668753633E+005	2,7095368E+000	2,7089045E+000	1,143359643302463E-002	2,000000000000000E+000	-1,3678280E-002	41	3,0972522E-005
2	1	0	1	0	1,481671466831816E+005	2,7295287E+000	2,7289090E+000	1,172898890427141E-002	2,000000000000000E+000	-1,3095198E-002	41	3,2007345E-005
2	1	0	0	0	1,481975207879334E+005	2,7417748E+000	2,7411652E+000	1,231470060181514E-002	2,000000000000000E+000	-1,2732306E-002	41	3,3756627E-005