File: Dati/201104/CV_LTO_Al_grafite_01_1mVs_09_CV_C03.mpt
EC-Lab ASCII FILE
Nb header lines : 57

Cyclic Voltammetry

Run on channel : 3 (SN 6807)
User :
Electrode connection : standard
Ewe ctrl range : min = 0,00 V, max = 5,00 V
Ewe,I filtering : 50 kHz
Safety Limits :
	Do not start on E overload
Channel : Grounded
Acquisition started on : 11/04/2020 18:19:46
Saved on :
	File : CV_LTO_Al_grafite_01_1mVs_09_CV_C03.mpr
	Directory : C:\Users\labsuperfici\Desktop\Biologic\Users\Prisca Viviani\201104\
	Host : 10.78.33.0
Device : VSP-300 (SN 0638)
Address : USB
EC-Lab for windows v11.31 (software)
Internet server v11.30 (firmware)
Command interpretor v11.31 (firmware)
Electrode material :
Initial state :
Electrolyte :
Comments :
Cable : standard
Reference electrode : SCE Saturated Calomel Electrode (0,241 V)
Electrode surface area : 0,001 cm²
Characteristic mass : 0,001 g
Equivalent Weight : 0,000 g/eq.
Density : 0,000 g/cm3
Cycle Definition : Charge/Discharge alternance
Ei (V)              0,000
vs.                 Eoc
dE/dt               0,800
dE/dt unit          mV/s
E1 (V)              1,000
vs.                 Ref
Step percent        50
N                   10
E range min (V)     0,000
E range max (V)     5,000
I Range             Auto
I Range min         Unset
I Range max         Unset
I Range init        Unset
Bandwidth           8
E2 (V)              2,700
vs.                 Ref
nc cycles           1
Reverse Scan        1
Ef (V)              0,000
vs.                 Eoc

mode	ox/red	error	control changes	counter inc.	time/s	control/V	Ewe/V	<I>/mA	cycle number	(Q-Qo)/C	I Range	P/W
2	1	0	0	0	1,832716442756909E+005	2,7417748E+000	2,7411385E+000	1,891399547457695E-002	1,000000000000000E+000	0,0000000E+000	41	5,1845880E-005
2	1	0	1	0	1,832960719795148E+005	2,7222319E+000	2,7216709E+000	7,273312678807195E-003	1,000000000000000E+000	2,4493635E-004	41	1,9795563E-005
2	1	0	1	0	1,833210616834245E+005	2,7022398E+000	2,7016430E+000	4,438712701079326E-003	1,000000000000000E+000	3,8633571E-004	42	1,1991817E-005
2	1	0	1	0	1,833460514873331E+005	2,6822484E+000	2,6816380E+000	2,582483068988811E-003	1,000000000000000E+000	4,7085294E-004	42	6,9252847E-006
2	1	0	1	0	1,833710413912451E+005	2,6622562E+000	2,6616790E+000	1,209754029935894E-003	1,000000000000000E+000	5,1562977E-004	42	3,2199769E-006
2	1	0	1	0	1,833960311951542E+005	2,6422646E+000	2,6416721E+000	1,719935350237949E-004	1,000000000000000E+000	5,3063914E-004	43	4,5435053E-007
2	0	0	1	0	1,834210208990634E+005	2,6222727E+000	2,6217718E+000	-6,773463532897452E-004	1,000000000000000E+000	5,2251481E-004	43	-1,7758475E-006
2	0	0	1	0	1,834460107029756E+005	2,6022809E+000	2,6017423E+000	-1,358328898420587E-003	1,000000000000000E+000	4,9486756E-004	42	-3,5340217E-006
2	0	0	1	0	1,834710005068836E+005	2,5822892E+000	2,5817418E+000	-1,957705996030852E-003	1,000000000000000E+000	4,5142820E-004	42	-5,0542913E-006
2	0	0	1	0	1,834959903107933E+005	2,5622973E+000	2,5617328E+000	-2,478149917418956E-003	1,000000000000000E+000	3,9418967E-004	42	-6,3483581E-006
2	0	0	1	0	1,835209801147054E+005	2,5423052E+000	2,5417824E+000	-2,933385580070821E-003	1,000000000000000E+000	3,2459031E-004	42	-7,4560276E-006
2	0	0	1	0	1,835459699186137E+005	2,5223136E+000	2,5217552E+000	-3,374252458717342E-003	1,000000000000000E+000	2,4350497E-004	42	-8,5090387E-006
2	0	0	1	0	1,835709596225233E+005	2,5023220E+000	2,5018077E+000	-3,777463630403127E-003	1,000000000000000E+000	1,5202770E-004	42	-9,4504876E-006
2	0	0	1	0	1,835959495264350E+005	2,4823298E+000	2,4817991E+000	-4,177548525719048E-003	1,000000000000000E+000	5,0753762E-005	42	-1,0367837E-005
2	0	0	1	0	1,836209393303434E+005	2,4623380E+000	2,4618058E+000	-4,521016106464403E-003	1,000000000000000E+000	-5,9549369E-005	42	-1,1129864E-005
2	0	0	1	0	1,836459290342536E+005	2,4423463E+000	2,4418457E+000	-4,824176595885465E-003	1,000000000000000E+000	-1,7805687E-004	42	-1,1779895E-005
2	0	0	1	0	1,836709189381646E+005	2,4223542E+000	2,4218600E+000	-5,130136187766643E-003	1,000000000000000E+000	-3,0446606E-004	42	-1,2424472E-005
2	0	0	1	0	1,836959085420726E+005	2,4023626E+000	2,4018786E+000	-5,429848978801020E-003	1,000000000000000E+000	-4,3833413E-004	42	-1,3041838E-005
2	0	0	1	0	1,837208983459827E+005	2,3823707E+000	2,3818858E+000	-5,724577382745552E-003	1,000000000000000E+000	-5,7950965E-004	42	-1,3635289E-005
2	0	0	1	0	1,837458881498938E+005	2,3623786E+000	2,3618920E+000	-5,989734245599537E-003	1,000000000000000E+000	-7,2788046E-004	42	-1,4147106E-005
2	0	0	1	0	1,837708780538023E+005	2,3423867E+000	2,3419192E+000	-6,303348653760865E-003	1,000000000000000E+000	-8,8355807E-004	42	-1,4761933E-005
2	0	0	1	0	1,837958677577134E+005	2,3223948E+000	2,3219259E+000	-6,621773658924399E-003	1,000000000000000E+000	-1,0467438E-003	42	-1,5375268E-005
2	0	0	1	0	1,838208575616236E+005	2,3024032E+000	2,3019311E+000	-6,920877360464919E-003	1,000000000000000E+000	-1,2177374E-003	42	-1,5931382E-005
2	0	0	1	0	1,838458474655317E+005	2,2824111E+000	2,2819440E+000	-7,276062649769821E-003	1,000000000000000E+000	-1,3970694E-003	42	-1,6603568E-005
2	0	0	1	0	1,838708373694438E+005	2,2624192E+000	2,2619665E+000	-7,668551300730464E-003	1,000000000000000E+000	-1,5856718E-003	42	-1,7346007E-005
2	0	0	1	0	1,838958267733533E+005	2,2424278E+000	2,2419250E+000	-8,116039322869473E-003	1,000000000000000E+000	-1,7846558E-003	42	-1,8195551E-005
2	0	0	1	0	1,839208165772618E+005	2,2224360E+000	2,2219732E+000	-8,589472217213484E-003	1,000000000000000E+000	-1,9948918E-003	42	-1,9085577E-005
2	0	0	1	0	1,839458064811737E+005	2,2024438E+000	2,2019558E+000	-9,121829443677620E-003	1,000000000000000E+000	-2,2179086E-003	42	-2,0085865E-005
2	0	0	1	0	1,839707963850827E+005	2,1824520E+000	2,1820028E+000	-9,712877418201954E-003	1,000000000000000E+000	-2,4551859E-003	42	-2,1193526E-005
2	0	0	1	0	1,839957861889917E+005	2,1624603E+000	2,1618760E+000	-1,041310814647836E-002	1,000000000000000E+000	-2,7091794E-003	41	-2,2511847E-005
2	0	0	1	0	1,840207759929039E+005	2,1424685E+000	2,1418581E+000	-1,113620375232049E-002	1,000000000000000E+000	-2,9799542E-003	41	-2,3852168E-005
2	0	0	1	0	1,840457657968127E+005	2,1224761E+000	2,1218951E+000	-1,194309263437118E-002	1,000000000000000E+000	-3,2700261E-003	41	-2,5341989E-005
2	0	0	1	0	1,840707556007220E+005	2,1024845E+000	2,1019289E+000	-1,282125517866895E-002	1,000000000000000E+000	-3,5810836E-003	41	-2,6949367E-005
2	0	0	1	0	1,840957452046340E+005	2,0824928E+000	2,0819252E+000	-1,382289454846546E-002	1,000000000000000E+000	-3,9154687E-003	41	-2,8778231E-005
2	0	0	1	0	1,841207350085424E+005	2,0625010E+000	2,0619273E+000	-1,484120624091322E-002	1,000000000000000E+000	-4,2751916E-003	41	-3,0601488E-005
2	0	0	1	0	1,841457248124522E+005	2,0425088E+000	2,0419350E+000	-1,600207702611589E-002	1,000000000000000E+000	-4,6624169E-003	41	-3,2675202E-005
2	0	0	1	0	1,841707146163639E+005	2,0225174E+000	2,0219398E+000	-1,725405195850355E-002	1,000000000000000E+000	-5,0795232E-003	41	-3,4886652E-005
2	0	0	1	0	1,841957044202719E+005	2,0025256E+000	2,0019617E+000	-1,856250980449742E-002	1,000000000000000E+000	-5,5284989E-003	41	-3,7161433E-005
2	0	0	1	0	1,842206943241819E+005	1,9825337E+000	1,9819585E+000	-2,001381538032149E-002	1,000000000000000E+000	-6,0122637E-003	41	-3,9666553E-005
2	0	0	1	0	1,842456843280932E+005	1,9625418E+000	1,9619437E+000	-2,158656349324781E-002	1,000000000000000E+000	-6,5337853E-003	41	-4,2351625E-005
2	0	0	1	0	1,842706740320018E+005	1,9425501E+000	1,9419581E+000	-2,323260473292993E-002	1,000000000000000E+000	-7,0954179E-003	41	-4,5116743E-005
2	0	0	1	0	1,842956637359122E+005	1,9225582E+000	1,9219717E+000	-2,503566687753617E-002	1,000000000000000E+000	-7,7001210E-003	41	-4,8117843E-005
2	0	0	1	0	1,843206535398229E+005	1,9025663E+000	1,9019818E+000	-2,688372463743721E-002	1,000000000000000E+000	-8,3504682E-003	41	-5,1132356E-005
2	0	0	1	0	1,843456433437313E+005	1,8825744E+000	1,8820194E+000	-2,891516191442178E-002	1,000000000000000E+000	-9,0495003E-003	41	-5,4418895E-005
2	0	0	1	0	1,843706333476421E+005	1,8625823E+000	1,8620161E+000	-3,102593104893972E-002	1,000000000000000E+000	-9,8001370E-003	41	-5,7770783E-005
2	0	0	1	0	1,843956230515523E+005	1,8425907E+000	1,8420205E+000	-3,329334058920558E-002	1,000000000000000E+000	-1,0605091E-002	41	-6,1327017E-005
2	0	0	1	0	1,844206127554607E+005	1,8225988E+000	1,8220141E+000	-3,562751090460897E-002	1,000000000000000E+000	-1,1467611E-002	41	-6,4913824E-005
2	0	0	1	0	1,844456026593726E+005	1,8026073E+000	1,8020457E+000	-3,811829377325726E-002	1,000000000000000E+000	-1,2390736E-002	41	-6,8690904E-005
2	0	0	1	0	1,844705925632818E+005	1,7826151E+000	1,7820278E+000	-4,072978005814998E-002	1,000000000000000E+000	-1,3377447E-002	41	-7,2581599E-005
2	0	0	1	0	1,844955822671903E+005	1,7626234E+000	1,7620623E+000	-4,354684837437398E-002	1,000000000000000E+000	-1,4431907E-002	41	-7,6732264E-005
2	0	0	1	0	1,845205720711024E+005	1,7426317E+000	1,7420661E+000	-4,647121263683401E-002	1,000000000000000E+000	-1,5557962E-002	41	-8,0955928E-005
2	0	0	1	0	1,845455617750118E+005	1,7226398E+000	1,7221118E+000	-4,956353510434580E-002	1,000000000000000E+000	-1,6759498E-002	41	-8,5353953E-005
2	0	0	1	0	1,845705517789205E+005	1,7026478E+000	1,7021235E+000	-5,294744577705718E-002	1,000000000000000E+000	-1,8042633E-002	41	-9,0123096E-005
2	0	0	1	0	1,845955415828326E+005	1,6826559E+000	1,6821392E+000	-5,662442855990069E-002	1,000000000000000E+000	-1,9413130E-002	41	-9,5250165E-005
2	0	0	1	0	1,846205313867416E+005	1,6626642E+000	1,6621016E+000	-6,074847905915226E-002	1,000000000000000E+000	-2,0880897E-002	41	-1,0097014E-004
2	0	0	1	0	1,846455211906508E+005	1,6426723E+000	1,6421506E+000	-6,533602747938450E-002	1,000000000000000E+000	-2,2456676E-002	41	-1,0729160E-004
2	0	0	1	0	1,846705109945629E+005	1,6226803E+000	1,6221367E+000	-7,081017811746060E-002	1,000000000000000E+000	-2,4158217E-002	41	-1,1486379E-004
2	0	0	1	0	1,846955007984710E+005	1,6026886E+000	1,6021585E+000	-7,731983244394625E-002	1,000000000000000E+000	-2,6008295E-002	41	-1,2387864E-004
2	0	0	1	0	1,847204906023806E+005	1,5826968E+000	1,5822004E+000	-8,525391043035679E-002	1,000000000000000E+000	-2,8038658E-002	41	-1,3488877E-004
2	0	0	1	0	1,847454804062927E+005	1,5627049E+000	1,5622073E+000	-9,503432239984544E-002	1,000000000000000E+000	-3,0289557E-002	41	-1,4846331E-004
2	0	0	1	0	1,847704701102010E+005	1,5427133E+000	1,5421325E+000	-1,072501454591023E-001	1,000000000000000E+000	-3,2812949E-002	40	-1,6539394E-004
2	0	0	1	0	1,847954601141112E+005	1,5227213E+000	1,5221442E+000	-1,229113092565994E-001	1,000000000000000E+000	-3,5682727E-002	40	-1,8708874E-004
2	0	0	1	0	1,848204498180223E+005	1,5027293E+000	1,5021268E+000	-1,425937853107648E-001	1,000000000000000E+000	-3,8994879E-002	40	-2,1419395E-004
2	0	0	1	0	1,848454396219307E+005	1,4827377E+000	1,4821713E+000	-1,646295602662657E-001	1,000000000000000E+000	-4,2834625E-002	40	-2,4400921E-004
2	0	0	1	0	1,848704294258412E+005	1,4627458E+000	1,4621613E+000	-1,861767269414103E-001	1,000000000000000E+000	-4,7224309E-002	40	-2,7222041E-004
2	0	0	1	0	1,848954192297517E+005	1,4427538E+000	1,4421903E+000	-2,051614113229134E-001	1,000000000000000E+000	-5,2123655E-002	40	-2,9588179E-004
2	0	0	1	0	1,849204091336601E+005	1,4227620E+000	1,4221665E+000	-2,200491847317152E-001	1,000000000000000E+000	-5,7449184E-002	40	-3,1294656E-004
2	0	0	1	0	1,849453988375710E+005	1,4027702E+000	1,4021702E+000	-2,294885801238411E-001	1,000000000000000E+000	-6,3080698E-002	40	-3,2178205E-004
2	0	0	1	0	1,849703886414808E+005	1,3827783E+000	1,3821874E+000	-2,328801636513689E-001	1,000000000000000E+000	-6,8872735E-002	40	-3,2188403E-004
2	0	0	1	0	1,849953784453892E+005	1,3627865E+000	1,3622299E+000	-2,304538767847042E-001	1,000000000000000E+000	-7,4675515E-002	40	-3,1393117E-004
2	0	0	1	0	1,850203683493012E+005	1,3427945E+000	1,3422196E+000	-2,233102498621280E-001	1,000000000000000E+000	-8,0355451E-002	40	-2,9973139E-004
2	0	0	1	0	1,850453580532109E+005	1,3228029E+000	1,3222313E+000	-2,132441306227926E-001	1,000000000000000E+000	-8,5816242E-002	40	-2,8195805E-004
2	0	0	1	0	1,850703478571191E+005	1,3028110E+000	1,3022332E+000	-2,022160986705974E-001	1,000000000000000E+000	-9,1009453E-002	40	-2,6333253E-004
2	0	0	1	0	1,850953376610312E+005	1,2828192E+000	1,2822573E+000	-1,912914787294573E-001	1,000000000000000E+000	-9,5926672E-002	40	-2,4528490E-004
2	0	0	1	0	1,851203275649406E+005	1,2628273E+000	1,2622467E+000	-1,811379308220031E-001	1,000000000000000E+000	-1,0058057E-001	40	-2,2864075E-004
2	0	0	1	0	1,851453173688496E+005	1,2428355E+000	1,2422568E+000	-1,718571048717576E-001	1,000000000000000E+000	-1,0499126E-001	40	-2,1349065E-004
2	0	0	1	0	1,851703070727615E+005	1,2228435E+000	1,2222199E+000	-1,635422255702300E-001	1,000000000000000E+000	-1,0918177E-001	40	-1,9988457E-004
2	0	0	1	0	1,851952968766701E+005	1,2028518E+000	1,2022383E+000	-1,560814208392491E-001	1,000000000000000E+000	-1,1317524E-001	40	-1,8764706E-004
2	0	0	1	0	1,852202868805793E+005	1,1828598E+000	1,1822637E+000	-1,494935486868854E-001	1,000000000000000E+000	-1,1699382E-001	40	-1,7674080E-004
2	0	0	1	0	1,852452765844916E+005	1,1628680E+000	1,1622529E+000	-1,437055184731330E-001	1,000000000000000E+000	-1,2065757E-001	40	-1,6702215E-004
2	0	0	1	0	1,852702663884001E+005	1,1428764E+000	1,1422496E+000	-1,386599566184628E-001	1,000000000000000E+000	-1,2418596E-001	40	-1,5838428E-004
2	0	0	1	0	1,852952560923095E+005	1,1228844E+000	1,1222746E+000	-1,343180117092948E-001	1,000000000000000E+000	-1,2759693E-001	40	-1,5074170E-004
2	0	0	1	0	1,853202458962216E+005	1,1028925E+000	1,1022979E+000	-1,306166084990619E-001	1,000000000000000E+000	-1,3090768E-001	40	-1,4397841E-004
2	0	0	1	0	1,853452359001298E+005	1,0829005E+000	1,0822994E+000	-1,275559411025546E-001	1,000000000000000E+000	-1,3413458E-001	40	-1,3805371E-004
2	0	0	1	0	1,853702256040401E+005	1,0629088E+000	1,0623113E+000	-1,251306845412918E-001	1,000000000000000E+000	-1,3729288E-001	40	-1,3292774E-004
2	0	0	1	0	1,853952153079512E+005	1,0429170E+000	1,0422784E+000	-1,233262242003939E-001	1,000000000000000E+000	-1,4039786E-001	40	-1,2854025E-004
2	0	0	1	0	1,854202053118595E+005	1,0229251E+000	1,0223368E+000	-1,220278853052044E-001	1,000000000000000E+000	-1,4346431E-001	40	-1,2475360E-004
2	0	0	1	0	1,854451951157693E+005	1,0029333E+000	1,0023353E+000	-1,213142821158426E-001	1,000000000000000E+000	-1,4650600E-001	40	-1,2159759E-004
2	0	0	1	0	1,854683113193866E+005	1,0155282E+000	1,0149240E+000	-8,314759049609899E-002	1,000000000000000E+000	-1,4888123E-001	40	-8,4388492E-005
2	0	0	1	0	1,854933011232950E+005	1,0355200E+000	1,0349014E+000	-5,656840187455825E-002	1,000000000000000E+000	-1,5059856E-001	40	-5,8542719E-005
2	0	0	1	0	1,855182909272071E+005	1,0555118E+000	1,0549564E+000	-3,887962183024826E-002	1,000000000000000E+000	-1,5177533E-001	41	-4,1016308E-005
2	0	0	1	0	1,855432808311167E+005	1,0755038E+000	1,0749079E+000	-2,628846879507479E-002	1,000000000000000E+000	-1,5257913E-001	41	-2,8257682E-005
2	0	0	1	0	1,855682705350253E+005	1,0954955E+000	1,0949068E+000	-1,680750070334161E-002	1,000000000000000E+000	-1,5311031E-001	41	-1,8402647E-005
2	0	0	1	0	1,855932603389374E+005	1,1154875E+000	1,1149043E+000	-9,501266648755030E-003	1,000000000000000E+000	-1,5343320E-001	41	-1,0593003E-005
2	0	0	1	0	1,856182502428463E+005	1,1354793E+000	1,1349320E+000	-3,652843065449551E-003	1,000000000000000E+000	-1,5359308E-001	42	-4,1457288E-006
2	1	0	1	0	1,856432400467559E+005	1,1554712E+000	1,1548516E+000	1,048462166939327E-003	1,000000000000000E+000	-1,5362257E-001	43	1,2108181E-006
2	1	0	1	0	1,856682298506680E+005	1,1754631E+000	1,1748151E+000	4,908834030580428E-003	1,000000000000000E+000	-1,5354502E-001	42	5,7669722E-006
2	1	0	1	0	1,856932195545758E+005	1,1954547E+000	1,1948030E+000	8,184856917821254E-003	1,000000000000000E+000	-1,5337831E-001	42	9,7792918E-006
2	1	0	1	0	1,857182095584855E+005	1,2154467E+000	1,2148193E+000	1,103566647388862E-002	1,000000000000000E+000	-1,5313523E-001	41	1,3406341E-005
2	1	0	1	0	1,857431993623974E+005	1,2354385E+000	1,2347929E+000	1,349332095453069E-002	1,000000000000000E+000	-1,5282622E-001	41	1,6661457E-005
2	1	0	1	0	1,857681890663059E+005	1,2554303E+000	1,2547785E+000	1,561710159509677E-002	1,000000000000000E+000	-1,5245962E-001	41	1,9596004E-005
2	1	0	1	0	1,857931788702160E+005	1,2754222E+000	1,2747822E+000	1,761194915050798E-002	1,000000000000000E+000	-1,5204169E-001	41	2,2451399E-005
2	1	0	1	0	1,858181687741268E+005	1,2954139E+000	1,2947643E+000	1,942027615383540E-002	1,000000000000000E+000	-1,5157697E-001	41	2,5144680E-005
2	1	0	1	0	1,858431585780354E+005	1,3154057E+000	1,3147385E+000	2,109197959845255E-002	1,000000000000000E+000	-1,5106839E-001	41	2,7730437E-005
2	1	0	1	0	1,858681484819464E+005	1,3353976E+000	1,3347718E+000	2,274144893964486E-002	1,000000000000000E+000	-1,5051837E-001	41	3,0354644E-005
2	1	0	1	0	1,858931382858565E+005	1,3553896E+000	1,3547238E+000	2,430081294120556E-002	1,000000000000000E+000	-1,4992861E-001	41	3,2920889E-005
2	1	0	1	0	1,859181279897643E+005	1,3753812E+000	1,3747435E+000	2,584993897948196E-002	1,000000000000000E+000	-1,4930008E-001	41	3,5537036E-005
2	1	0	1	0	1,859431179936756E+005	1,3953735E+000	1,3947265E+000	2,737739655895169E-002	1,000000000000000E+000	-1,4863303E-001	41	3,8183982E-005
2	1	0	1	0	1,859681077975857E+005	1,4153651E+000	1,4147167E+000	2,894007415608988E-002	1,000000000000000E+000	-1,4792742E-001	41	4,0942006E-005
2	1	0	1	0	1,859930975014942E+005	1,4353569E+000	1,4346952E+000	3,056573704603607E-002	1,000000000000000E+000	-1,4718208E-001	41	4,3852517E-005
2	1	0	1	0	1,860180872054058E+005	1,4553486E+000	1,4546771E+000	3,229023729148994E-002	1,000000000000000E+000	-1,4639480E-001	41	4,6971869E-005
2	1	0	1	0	1,860430772093157E+005	1,4753405E+000	1,4746839E+000	3,416626277325663E-002	1,000000000000000E+000	-1,4556262E-001	41	5,0384439E-005
2	1	0	1	0	1,860680670132241E+005	1,4953322E+000	1,4946877E+000	3,615478324914778E-002	1,000000000000000E+000	-1,4468238E-001	41	5,4040109E-005
2	1	0	1	0	1,860930570171364E+005	1,5153244E+000	1,5146812E+000	3,830968811125335E-002	1,000000000000000E+000	-1,4375067E-001	41	5,8026966E-005
2	1	0	1	0	1,861180467210455E+005	1,5353161E+000	1,5346503E+000	4,078966989466914E-002	1,000000000000000E+000	-1,4276205E-001	41	6,2597879E-005
2	1	0	1	0	1,861430364249544E+005	1,5553079E+000	1,5546169E+000	4,410006725163773E-002	1,000000000000000E+000	-1,4170197E-001	41	6,8558715E-005
2	1	0	1	0	1,861680262288665E+005	1,5752997E+000	1,5746214E+000	4,910450833482427E-002	1,000000000000000E+000	-1,4053941E-001	41	7,7321012E-005
2	1	0	1	0	1,861930162327749E+005	1,5952917E+000	1,5946072E+000	5,918165739772463E-002	1,000000000000000E+000	-1,3920482E-001	41	9,4371499E-005
2	1	0	1	0	1,862180059366846E+005	1,6152834E+000	1,6145685E+000	8,304618320601576E-002	1,000000000000000E+000	-1,3745499E-001	41	1,3408375E-004
2	1	0	1	0	1,862429959405963E+005	1,6352754E+000	1,6346539E+000	1,151109207984917E-001	1,000000000000000E+000	-1,3498043E-001	40	1,8816652E-004
2	1	0	1	0	1,862679856445049E+005	1,6552672E+000	1,6546084E+000	1,468774328749842E-001	1,000000000000000E+000	-1,3169953E-001	40	2,4302462E-004
2	1	0	1	0	1,862929754484147E+005	1,6752590E+000	1,6746017E+000	1,758624036604519E-001	1,000000000000000E+000	-1,2765735E-001	40	2,9449948E-004
2	1	0	1	0	1,863179653523262E+005	1,6952509E+000	1,6946075E+000	2,011104697895372E-001	1,000000000000000E+000	-1,2293602E-001	40	3,4080332E-004
2	1	0	1	0	1,863429552562346E+005	1,7152427E+000	1,7145910E+000	2,221462002228161E-001	1,000000000000000E+000	-1,1763602E-001	40	3,8088989E-004
2	1	0	1	0	1,863679450601451E+005	1,7352346E+000	1,7345659E+000	2,388558313515725E-001	1,000000000000000E+000	-1,1186387E-001	40	4,1431116E-004
2	1	0	1	0	1,863929347640558E+005	1,7552264E+000	1,7545882E+000	2,507225835590114E-001	1,000000000000000E+000	-1,0573374E-001	40	4,3991490E-004
2	1	0	1	0	1,864179246679635E+005	1,7752182E+000	1,7745693E+000	2,572104389915690E-001	1,000000000000000E+000	-9,9373810E-002	40	4,5643773E-004
2	1	0	1	0	1,864429144718745E+005	1,7952100E+000	1,7945548E+000	2,579960994524244E-001	1,000000000000000E+000	-9,2922360E-002	40	4,6298816E-004
2	1	0	1	0	1,864679043757848E+005	1,8152020E+000	1,8145375E+000	2,534005235458503E-001	1,000000000000000E+000	-8,6519912E-002	40	4,5980475E-004
2	1	0	1	0	1,864928941796934E+005	1,8351939E+000	1,8345590E+000	2,442055115951693E-001	1,000000000000000E+000	-8,0292374E-002	40	4,4800941E-004
2	1	0	1	0	1,865178839836051E+005	1,8551857E+000	1,8545415E+000	2,318197646903057E-001	1,000000000000000E+000	-7,4338034E-002	40	4,2991940E-004
2	1	0	1	0	1,865428736875148E+005	1,8751775E+000	1,8745285E+000	2,178033342610788E-001	1,000000000000000E+000	-6,8717107E-002	40	4,0827857E-004
2	1	0	1	0	1,865678636914231E+005	1,8951694E+000	1,8945261E+000	2,030327887359014E-001	1,000000000000000E+000	-6,3456587E-002	40	3,8465092E-004
2	1	0	1	0	1,865928534953352E+005	1,9151613E+000	1,9145254E+000	1,882187564827631E-001	1,000000000000000E+000	-5,8566250E-002	40	3,6034960E-004
2	1	0	1	0	1,866178431992445E+005	1,9351530E+000	1,9344921E+000	1,736584998823969E-001	1,000000000000000E+000	-5,4043531E-002	40	3,3594100E-004
2	1	0	1	0	1,866428332031537E+005	1,9551451E+000	1,9545206E+000	1,595508125910208E-001	1,000000000000000E+000	-4,9879737E-002	40	3,1184536E-004
2	1	0	1	0	1,866678229070655E+005	1,9751364E+000	1,9745030E+000	1,461138241306004E-001	1,000000000000000E+000	-4,6060730E-002	40	2,8850220E-004
2	1	0	1	0	1,866928127109740E+005	1,9951285E+000	1,9945222E+000	1,335180745896962E-001	1,000000000000000E+000	-4,2567089E-002	40	2,6630476E-004
2	1	0	1	0	1,867178027148834E+005	2,0151203E+000	2,0144908E+000	1,217676389689042E-001	1,000000000000000E+000	-3,9378032E-002	40	2,4529980E-004
2	1	0	1	0	1,867427926187958E+005	2,0351124E+000	2,0345206E+000	1,110774748529506E-001	1,000000000000000E+000	-3,6469188E-002	40	2,2598941E-004
2	1	0	1	0	1,867677822227040E+005	2,0551038E+000	2,0545056E+000	1,012938975137360E-001	1,000000000000000E+000	-3,3815846E-002	40	2,0810888E-004
2	1	0	1	0	1,867927721266137E+005	2,0750959E+000	2,0745056E+000	9,239873423852418E-002	1,000000000000000E+000	-3,1396158E-002	40	1,9168168E-004
2	1	0	1	0	1,868177619305253E+005	2,0950878E+000	2,0944750E+000	8,435002846171735E-002	1,000000000000000E+000	-2,9187581E-002	40	1,7666903E-004
2	1	0	1	0	1,868427518344338E+005	2,1150794E+000	2,1144698E+000	7,707302855329268E-002	1,000000000000000E+000	-2,7170142E-002	40	1,6296859E-004
2	1	0	1	0	1,868677416383442E+005	2,1350715E+000	2,1344538E+000	7,048822126435805E-002	1,000000000000000E+000	-2,5326349E-002	40	1,5045385E-004
2	1	0	1	0	1,868927314422550E+005	2,1550634E+000	2,1544750E+000	6,456643259428496E-002	1,000000000000000E+000	-2,3638783E-002	40	1,3910676E-004
2	1	0	1	0	1,869177212461629E+005	2,1750553E+000	2,1744409E+000	5,915681202236506E-002	1,000000000000000E+000	-2,2092812E-002	40	1,2863299E-004
2	1	0	1	0	1,869427111500734E+005	2,1950469E+000	2,1944525E+000	5,429636354358808E-002	1,000000000000000E+000	-2,0674635E-002	40	1,1915079E-004
2	1	0	1	0	1,869677010539840E+005	2,2150388E+000	2,2144530E+000	4,991600414681119E-002	1,000000000000000E+000	-1,9371612E-002	40	1,1053665E-004
2	1	0	1	0	1,869928156579123E+005	2,2351310E+000	2,2344964E+000	4,609977689518541E-002	1,000000000000000E+000	-1,8165091E-002	41	1,0300978E-004
2	1	0	1	0	1,870178055618233E+005	2,2551224E+000	2,2544575E+000	4,254493741711574E-002	1,000000000000000E+000	-1,7056480E-002	41	9,5915755E-005
2	1	0	1	0	1,870427954657335E+005	2,2751143E+000	2,2744687E+000	3,937097580234966E-002	1,000000000000000E+000	-1,6031481E-002	41	8,9548048E-005
2	1	0	1	0	1,870677852696418E+005	2,2951062E+000	2,2944493E+000	3,656416755450073E-002	1,000000000000000E+000	-1,5081298E-002	41	8,3894629E-005
2	1	0	1	0	1,870927750735539E+005	2,3150980E+000	2,3144865E+000	3,404807668398710E-002	1,000000000000000E+000	-1,4197674E-002	41	7,8803816E-005
2	1	0	1	0	1,871177648774632E+005	2,3350897E+000	2,3344810E+000	3,185271731890882E-002	1,000000000000000E+000	-1,3373102E-002	41	7,4359566E-005
2	1	0	1	0	1,871427546813721E+005	2,3550816E+000	2,3544371E+000	2,990924679694051E-002	1,000000000000000E+000	-1,2600286E-002	41	7,0419439E-005
2	1	0	1	0	1,871677444852842E+005	2,3750734E+000	2,3744466E+000	2,828090481962131E-002	1,000000000000000E+000	-1,1871863E-002	41	6,7151501E-005
2	1	0	1	0	1,871927342891926E+005	2,3950653E+000	2,3944414E+000	2,686692007963463E-002	1,000000000000000E+000	-1,1181679E-002	41	6,4331267E-005
2	1	0	1	0	1,872177240931019E+005	2,4150572E+000	2,4144435E+000	2,568121463064511E-002	1,000000000000000E+000	-1,0523703E-002	41	6,2005842E-005
2	1	0	1	0	1,872427140970142E+005	2,4350491E+000	2,4344621E+000	2,467707397626670E-002	1,000000000000000E+000	-9,8932479E-003	41	6,0075399E-005
2	1	0	1	0	1,872677039009227E+005	2,4550409E+000	2,4544182E+000	2,380096580561131E-002	1,000000000000000E+000	-9,2861401E-003	41	5,8417525E-005
2	1	0	1	0	1,872926937048323E+005	2,4750328E+000	2,4744182E+000	2,308844038597724E-002	1,000000000000000E+000	-8,6985240E-003	41	5,7130455E-005
2	1	0	1	0	1,873176836087441E+005	2,4950244E+000	2,4944019E+000	2,245081554974951E-002	1,000000000000000E+000	-8,1278207E-003	41	5,6001358E-005
2	1	0	1	0	1,873426733126524E+005	2,5150163E+000	2,5144203E+000	2,194227861115472E-002	1,000000000000000E+000	-7,5713163E-003	41	5,5172110E-005
2	1	0	1	0	1,873676631165626E+005	2,5350082E+000	2,5343854E+000	2,138376789302834E-002	1,000000000000000E+000	-7,0282505E-003	41	5,4194708E-005
2	1	0	1	0	1,873926530204737E+005	2,5550001E+000	2,5543947E+000	2,088642238262678E-002	1,000000000000000E+000	-6,4981580E-003	41	5,3352167E-005
2	1	0	1	0	1,874176427243818E+005	2,5749922E+000	2,5744047E+000	2,038865208132767E-002	1,000000000000000E+000	-5,9807240E-003	41	5,2488642E-005
2	1	0	1	0	1,874426326282918E+005	2,5949836E+000	2,5943923E+000	1,993615535377211E-002	1,000000000000000E+000	-5,4750601E-003	41	5,1722207E-005
2	1	0	1	0	1,874676225322029E+005	2,6149757E+000	2,6144185E+000	1,957940647666909E-002	1,000000000000000E+000	-4,9796393E-003	41	5,1188763E-005
2	1	0	1	0	1,874926123361115E+005	2,6349676E+000	2,6343763E+000	1,929647145631422E-002	1,000000000000000E+000	-4,4923853E-003	41	5,0834165E-005
2	1	0	1	0	1,875176021400224E+005	2,6549594E+000	2,6543765E+000	1,911030814745018E-002	1,000000000000000E+000	-4,0108454E-003	41	5,0725954E-005
2	1	0	1	0	1,875425920439323E+005	2,6749511E+000	2,6744003E+000	1,900169662436549E-002	1,000000000000000E+000	-3,5329135E-003	41	5,0818144E-005
2	1	0	1	0	1,875675817478409E+005	2,6949430E+000	2,6943748E+000	1,899459664686831E-002	1,000000000000000E+000	-3,0565194E-003	41	5,1178562E-005
2	1	0	1	1	1,875908227514797E+005	2,6864464E+000	2,6858535E+000	9,497587892990600E-003	2,000000000000000E+000	-2,7319388E-003	41	2,5509129E-005
2	1	0	1	1	1,876158125553885E+005	2,6664543E+000	2,6658831E+000	5,924000516197001E-003	2,000000000000000E+000	-2,5457451E-003	41	1,5792693E-005
2	1	0	1	1	1,876408023592979E+005	2,6464629E+000	2,6458697E+000	3,687749307794162E-003	2,000000000000000E+000	-2,4294907E-003	42	9,7573047E-006
2	1	0	1	1	1,876657921632095E+005	2,6264710E+000	2,6258891E+000	2,100369613857154E-003	2,000000000000000E+000	-2,3598853E-003	42	5,5153378E-006
2	1	0	1	1	1,876907819671179E+005	2,6064794E+000	2,6058795E+000	9,024237656237825E-004	2,000000000000000E+000	-2,3248242E-003	42	2,3516077E-006
2	0	0	1	1	1,877157717710277E+005	2,5864873E+000	2,5859206E+000	-7,656972720196918E-005	2,000000000000000E+000	-2,3166398E-003	43	-1,9800324E-007
2	0	0	1	1	1,877407615749394E+005	2,5664957E+000	2,5659988E+000	-9,073704657194342E-004	2,000000000000000E+000	-2,3300343E-003	43	-2,3283114E-006
2	0	0	1	1	1,877657514788479E+005	2,5465035E+000	2,5459552E+000	-1,551249899528871E-003	2,000000000000000E+000	-2,3626811E-003	42	-3,9494125E-006
2	0	0	1	1	1,877907413827581E+005	2,5265117E+000	2,5259793E+000	-2,177042939803291E-003	2,000000000000000E+000	-2,4111648E-003	42	-5,4991656E-006
2	0	0	1	1	1,878157311866691E+005	2,5065198E+000	2,5059772E+000	-2,740014342208104E-003	2,000000000000000E+000	-2,4744484E-003	42	-6,8664135E-006
2	0	0	1	1	1,878407208905777E+005	2,4865279E+000	2,4859889E+000	-3,201717984647930E-003	2,000000000000000E+000	-2,5505209E-003	42	-7,9594356E-006
2	0	0	1	1	1,878657106944881E+005	2,4665363E+000	2,4660375E+000	-3,655426731892002E-003	2,000000000000000E+000	-2,6383509E-003	42	-9,0144194E-006
2	0	0	1	1	1,878907005983987E+005	2,4465444E+000	2,4460392E+000	-4,061735897017943E-003	2,000000000000000E+000	-2,7368811E-003	42	-9,9351655E-006
2	0	0	1	1	1,879156902023067E+005	2,4265525E+000	2,4260292E+000	-4,460705030673008E-003	2,000000000000000E+000	-2,8452307E-003	42	-1,0821801E-005
2	0	0	1	1	1,879406799062174E+005	2,4065604E+000	2,4060419E+000	-4,798968021665018E-003	2,000000000000000E+000	-2,9625820E-003	42	-1,1546518E-005
2	0	0	1	1	1,879656698101279E+005	2,3865688E+000	2,3860743E+000	-5,143151689116436E-003	2,000000000000000E+000	-3,0884920E-003	42	-1,2271942E-005
2	0	0	1	1	1,879906596140366E+005	2,3665769E+000	2,3660967E+000	-5,453539430243855E-003	2,000000000000000E+000	-3,2226136E-003	42	-1,2903602E-005
2	0	0	1	1	1,880156494179480E+005	2,3465853E+000	2,3460877E+000	-5,797477617806676E-003	2,000000000000000E+000	-3,3649099E-003	42	-1,3601390E-005
2	0	0	1	1	1,880406392218577E+005	2,3265932E+000	2,3260970E+000	-6,093932336908118E-003	2,000000000000000E+000	-3,5152528E-003	42	-1,4175078E-005
2	0	0	1	1	1,880656290257662E+005	2,3066013E+000	2,3061299E+000	-6,444009067005211E-003	2,000000000000000E+000	-3,6737537E-003	42	-1,4860722E-005
2	0	0	1	1	1,880906188296783E+005	2,2866096E+000	2,2861156E+000	-6,796583884757026E-003	2,000000000000000E+000	-3,8410544E-003	42	-1,5537777E-005
2	0	0	1	1	1,881156086335875E+005	2,2666178E+000	2,2661216E+000	-7,211927955280750E-003	2,000000000000000E+000	-4,0177703E-003	42	-1,6343105E-005
2	0	0	1	1	1,881405983374962E+005	2,2466259E+000	2,2461326E+000	-7,637696337351688E-003	2,000000000000000E+000	-4,2048893E-003	42	-1,7155278E-005
2	0	0	1	1	1,881655880414080E+005	2,2266340E+000	2,2261670E+000	-8,091692201586953E-003	2,000000000000000E+000	-4,4033206E-003	42	-1,8013458E-005
2	0	0	1	1	1,881905778453170E+005	2,2066424E+000	2,2061667E+000	-8,643752946814298E-003	2,000000000000000E+000	-4,6143308E-003	42	-1,9069561E-005
2	0	0	1	1	1,882155676492262E+005	2,1866505E+000	2,1861901E+000	-9,230737910957881E-003	2,000000000000000E+000	-4,8392969E-003	42	-2,0180149E-005
2	0	0	1	1	1,882405576531384E+005	2,1666586E+000	2,1662219E+000	-9,884690898455419E-003	2,000000000000000E+000	-5,0798836E-003	42	-2,1412434E-005
2	0	0	1	1	1,882655474570470E+005	2,1466668E+000	2,1460948E+000	-1,062585212929799E-002	2,000000000000000E+000	-5,3387405E-003	41	-2,2804086E-005
2	0	0	1	1	1,882905372609566E+005	2,1266749E+000	2,1260931E+000	-1,143984879335919E-002	2,000000000000000E+000	-5,6158402E-003	41	-2,4322184E-005
2	0	0	1	1	1,883155269648684E+005	2,1066830E+000	2,1061199E+000	-1,227003239503130E-002	2,000000000000000E+000	-5,9138983E-003	41	-2,5842159E-005
2	0	0	1	1	1,883405166687767E+005	2,0866911E+000	2,0860975E+000	-1,326420682425614E-002	2,000000000000000E+000	-6,2345034E-003	41	-2,7670429E-005
2	0	0	1	1	1,883655064726868E+005	2,0666990E+000	2,0661135E+000	-1,429136432855999E-002	2,000000000000000E+000	-6,5802028E-003	41	-2,9527580E-005
2	0	0	1	1	1,883904962765984E+005	2,0467074E+000	2,0461323E+000	-1,543780821740720E-002	2,000000000000000E+000	-6,9528818E-003	41	-3,1587799E-005
2	0	0	1	1	1,884154860805061E+005	2,0267158E+000	2,0261471E+000	-1,661259294284727E-002	2,000000000000000E+000	-7,3547917E-003	41	-3,3659559E-005
2	0	0	1	1	1,884404758844166E+005	2,0067239E+000	2,0061667E+000	-1,793471776181571E-002	2,000000000000000E+000	-7,7885254E-003	41	-3,5980032E-005
2	0	0	1	1	1,884654657883274E+005	1,9867320E+000	1,9861686E+000	-1,934185555131934E-002	2,000000000000000E+000	-8,2563395E-003	41	-3,8416187E-005
2	0	0	1	1	1,884904555922360E+005	1,9667401E+000	1,9661868E+000	-2,087058716043066E-002	2,000000000000000E+000	-8,7608043E-003	41	-4,1035473E-005
2	0	0	1	1	1,885154453961463E+005	1,9467481E+000	1,9461637E+000	-2,253999751102699E-002	2,000000000000000E+000	-9,3046455E-003	41	-4,3866523E-005
2	0	0	1	1	1,885404352000568E+005	1,9267563E+000	1,9262022E+000	-2,427409163892058E-002	2,000000000000000E+000	-9,8907845E-003	41	-4,6756810E-005
2	0	0	1	1	1,885654250039654E+005	1,9067646E+000	1,9061990E+000	-2,612192418542819E-002	2,000000000000000E+000	-1,0521884E-002	41	-4,9793583E-005
2	0	0	1	1	1,885904148078766E+005	1,8867728E+000	1,8862067E+000	-2,808765925931928E-002	2,000000000000000E+000	-1,1201090E-002	41	-5,2979132E-005
2	0	0	1	1	1,886154046117866E+005	1,8667809E+000	1,8662084E+000	-3,017452752390160E-002	2,000000000000000E+000	-1,1930821E-002	41	-5,6311957E-005
2	0	0	1	1	1,886403944156945E+005	1,8467890E+000	1,8462503E+000	-3,236800384590810E-002	2,000000000000000E+000	-1,2714157E-002	41	-5,9759437E-005
2	0	0	1	1	1,886653843196067E+005	1,8267972E+000	1,8262382E+000	-3,468959054083576E-002	2,000000000000000E+000	-1,3554115E-002	41	-6,3351457E-005
2	0	0	1	1	1,886903740235161E+005	1,8068053E+000	1,8062470E+000	-3,715420569612121E-002	2,000000000000000E+000	-1,4453862E-002	41	-6,7109671E-005
2	0	0	1	1	1,887153638274246E+005	1,7868134E+000	1,7862579E+000	-3,971488680503499E-002	2,000000000000000E+000	-1,5416281E-002	41	-7,0941031E-005
2	0	0	1	1	1,887403536313367E+005	1,7668217E+000	1,7662559E+000	-4,248994625577265E-002	2,000000000000000E+000	-1,6445260E-002	41	-7,5048119E-005
2	0	0	1	1	1,887653434352461E+005	1,7468299E+000	1,7462778E+000	-4,534268811184916E-002	2,000000000000000E+000	-1,7544774E-002	41	-7,9180929E-005
2	0	0	1	1	1,887903333391552E+005	1,7268379E+000	1,7263232E+000	-4,844710764312143E-002	2,000000000000000E+000	-1,8718580E-002	41	-8,3635365E-005
2	0	0	1	1	1,888153230430670E+005	1,7068461E+000	1,7062824E+000	-5,175187544354787E-002	2,000000000000000E+000	-1,9971730E-002	41	-8,8303314E-005
2	0	0	1	1	1,888403128469758E+005	1,6868542E+000	1,6863308E+000	-5,533292767995146E-002	2,000000000000000E+000	-2,1310996E-002	41	-9,3309623E-005
2	0	0	1	1	1,888653028508853E+005	1,6668624E+000	1,6663086E+000	-5,930863453642266E-002	2,000000000000000E+000	-2,2744786E-002	41	-9,8826487E-005
2	0	0	1	1	1,888902926547974E+005	1,6468705E+000	1,6463201E+000	-6,378704378145250E-002	2,000000000000000E+000	-2,4283679E-002	41	-1,0501389E-004
2	0	0	1	1	1,889152824587052E+005	1,6268787E+000	1,6263444E+000	-6,901828952023736E-002	2,000000000000000E+000	-2,5943371E-002	41	-1,1224752E-004
2	0	0	1	1	1,889402721626153E+005	1,6068870E+000	1,6063616E+000	-7,521904106262201E-002	2,000000000000000E+000	-2,7745066E-002	41	-1,2082898E-004
2	0	0	1	1	1,889652618665269E+005	1,5868953E+000	1,5863663E+000	-8,283583948886042E-002	2,000000000000000E+000	-2,9718587E-002	41	-1,3140799E-004
2	0	0	1	1	1,889902518704353E+005	1,5669034E+000	1,5664222E+000	-9,202891880479891E-002	2,000000000000000E+000	-3,1901591E-002	41	-1,4415615E-004
2	0	0	1	1	1,890152416743455E+005	1,5469115E+000	1,5463336E+000	-1,037085701177536E-001	2,000000000000000E+000	-3,4341503E-002	40	-1,6036804E-004
2	0	0	1	1	1,890402313782563E+005	1,5269197E+000	1,5263498E+000	-1,182302654677510E-001	2,000000000000000E+000	-3,7108615E-002	40	-1,8046075E-004
2	0	0	1	1	1,890652212821648E+005	1,5069277E+000	1,5063362E+000	-1,368983571957445E-001	2,000000000000000E+000	-4,0291138E-002	40	-2,0621496E-004
2	0	0	1	1	1,890902110860758E+005	1,4869359E+000	1,4863722E+000	-1,584459715341773E-001	2,000000000000000E+000	-4,3980602E-002	40	-2,3550969E-004
2	0	0	1	1	1,891152008899858E+005	1,4669439E+000	1,4663622E+000	-1,801250283636464E-001	2,000000000000000E+000	-4,8216119E-002	40	-2,6412855E-004
2	0	0	1	1	1,891401906938937E+005	1,4469521E+000	1,4463620E+000	-1,997506494542212E-001	2,000000000000000E+000	-5,2971337E-002	40	-2,8891175E-004
2	0	0	1	1	1,891651803978053E+005	1,4269603E+000	1,4263728E+000	-2,156067499139566E-001	2,000000000000000E+000	-5,8172628E-002	40	-3,0753561E-004
2	0	0	1	1	1,891901703017151E+005	1,4069685E+000	1,4063780E+000	-2,263831255819229E-001	2,000000000000000E+000	-6,3709445E-002	40	-3,1838025E-004
2	0	0	1	1	1,892151601056235E+005	1,3869765E+000	1,3864156E+000	-2,311687540537131E-001	2,000000000000000E+000	-6,9441341E-002	40	-3,2049598E-004
2	0	0	1	1	1,892401499095354E+005	1,3669847E+000	1,3663869E+000	-2,301995793251841E-001	2,000000000000000E+000	-7,5220510E-002	40	-3,1454168E-004
2	0	0	1	1	1,892651397134452E+005	1,3469930E+000	1,3464135E+000	-2,241517028273892E-001	2,000000000000000E+000	-8,0908678E-002	40	-3,0180087E-004
2	0	0	1	1	1,892901296173539E+005	1,3270011E+000	1,3264136E+000	-2,146556913046149E-001	2,000000000000000E+000	-8,6398616E-002	40	-2,8472225E-004
2	0	0	1	1	1,893151193212657E+005	1,3070092E+000	1,3064227E+000	-2,037546998058901E-001	2,000000000000000E+000	-9,1628961E-002	40	-2,6618977E-004
2	0	0	1	1	1,893401091251749E+005	1,2870173E+000	1,2864662E+000	-1,927508969468383E-001	2,000000000000000E+000	-9,6584387E-002	40	-2,4796752E-004
2	0	0	1	1	1,893650989290839E+005	1,2670256E+000	1,2664253E+000	-1,824511983407331E-001	2,000000000000000E+000	-1,0127290E-001	40	-2,3106081E-004
2	0	0	1	1	1,893900887329960E+005	1,2470336E+000	1,2464416E+000	-1,729134018233536E-001	2,000000000000000E+000	-1,0571314E-001	40	-2,1552645E-004
2	0	0	1	1	1,894150786369044E+005	1,2270417E+000	1,2264328E+000	-1,643684750315448E-001	2,000000000000000E+000	-1,0992742E-001	40	-2,0158690E-004
2	0	0	1	1	1,894400683408137E+005	1,2070500E+000	1,2064487E+000	-1,567043462390596E-001	2,000000000000000E+000	-1,1393884E-001	40	-1,8905575E-004
2	0	0	1	1	1,894650581447259E+005	1,1870581E+000	1,1864611E+000	-1,498698556828542E-001	2,000000000000000E+000	-1,1776949E-001	40	-1,7781476E-004
2	0	0	1	1	1,894900479486344E+005	1,1670665E+000	1,1664498E+000	-1,438545427721539E-001	2,000000000000000E+000	-1,2143942E-001	40	-1,6779909E-004
2	0	0	1	1	1,895150378525443E+005	1,1470745E+000	1,1464607E+000	-1,386357874625490E-001	2,000000000000000E+000	-1,2496971E-001	40	-1,5894047E-004
2	0	0	1	1	1,895400275564557E+005	1,1270827E+000	1,1264594E+000	-1,341092416839120E-001	2,000000000000000E+000	-1,2837853E-001	40	-1,5106861E-004
2	0	0	1	1	1,895650173603641E+005	1,1070910E+000	1,1064736E+000	-1,302838439320979E-001	2,000000000000000E+000	-1,3168246E-001	40	-1,4415562E-004
2	0	0	1	1	1,895900071642743E+005	1,0870991E+000	1,0864846E+000	-1,270886616586164E-001	2,000000000000000E+000	-1,3489892E-001	40	-1,3807986E-004
2	0	0	1	1	1,896149970681854E+005	1,0671071E+000	1,0664741E+000	-1,245810009816680E-001	2,000000000000000E+000	-1,3804388E-001	40	-1,3286241E-004
2	0	0	1	1	1,896399868720933E+005	1,0471153E+000	1,0464898E+000	-1,225827663457404E-001	2,000000000000000E+000	-1,4113308E-001	40	-1,2828162E-004
2	0	0	1	1	1,896649765760042E+005	1,0271235E+000	1,0265095E+000	-1,212118942255688E-001	2,000000000000000E+000	-1,4418003E-001	40	-1,2442516E-004
2	0	0	1	1	1,896899663799144E+005	1,0071316E+000	1,0064975E+000	-1,204069591760426E-001	2,000000000000000E+000	-1,4719996E-001	40	-1,2118930E-004
2	0	0	1	1	1,897133325835685E+005	1,0115297E+000	1,0109034E+000	-8,971448225664186E-002	2,000000000000000E+000	-1,4975965E-001	40	-9,0692673E-005
2	0	0	1	1	1,897383223874806E+005	1,0315216E+000	1,0308946E+000	-6,059677575303679E-002	2,000000000000000E+000	-1,5160397E-001	40	-6,2468891E-005
2	0	0	1	1	1,897633121913901E+005	1,0515134E+000	1,0509591E+000	-4,165106743433644E-002	2,000000000000000E+000	-1,5286413E-001	41	-4,3773569E-005
2	0	0	1	1	1,897883020952991E+005	1,0715053E+000	1,0708956E+000	-2,829233517698146E-002	2,000000000000000E+000	-1,5372691E-001	41	-3,0298135E-005
2	0	0	1	1	1,898132918992112E+005	1,0914972E+000	1,0909063E+000	-1,836351873496084E-002	2,000000000000000E+000	-1,5430163E-001	41	-2,0032878E-005
2	0	0	1	1	1,898382816031198E+005	1,1114889E+000	1,1108892E+000	-1,067447560504761E-002	2,000000000000000E+000	-1,5465809E-001	41	-1,1858159E-005
2	0	0	1	1	1,898632714070291E+005	1,1314808E+000	1,1309628E+000	-4,524886557414481E-003	2,000000000000000E+000	-1,5484409E-001	42	-5,1174784E-006
2	1	0	1	1	1,898882614109414E+005	1,1514728E+000	1,1508263E+000	1,927485075513256E-004	2,000000000000000E+000	-1,5489428E-001	43	2,2182006E-007
2	1	0	1	1	1,899132511148492E+005	1,1714646E+000	1,1708096E+000	4,263715054339326E-003	2,000000000000000E+000	-1,5483434E-001	42	4,9919986E-006
2	1	0	1	1	1,899382409187593E+005	1,1914563E+000	1,1907877E+000	7,619822917572183E-003	2,000000000000000E+000	-1,5468280E-001	42	9,0735912E-006
2	1	0	1	1	1,899632308226707E+005	1,2114483E+000	1,2108507E+000	1,058858508536889E-002	2,000000000000000E+000	-1,5445280E-001	41	1,2821196E-005
2	1	0	1	1	1,899882206265792E+005	1,2314402E+000	1,2308099E+000	1,303879696759042E-002	2,000000000000000E+000	-1,5415552E-001	41	1,6048281E-005
2	1	0	1	1	1,900132104304894E+005	1,2514321E+000	1,2508056E+000	1,523700144286383E-002	2,000000000000000E+000	-1,5379955E-001	41	1,9058527E-005
2	1	0	1	1	1,900382001344003E+005	1,2714237E+000	1,2707748E+000	1,722702965211791E-002	2,000000000000000E+000	-1,5339208E-001	41	2,1891676E-005
2	1	0	1	1	1,900631900383087E+005	1,2914156E+000	1,2907765E+000	1,902843506852370E-002	2,000000000000000E+000	-1,5293689E-001	41	2,4561457E-005
2	1	0	1	1	1,900881798422192E+005	1,3114074E+000	1,3107874E+000	2,073212136161869E-002	2,000000000000000E+000	-1,5243801E-001	41	2,7175403E-005
2	1	0	1	1	1,901131698461296E+005	1,3313994E+000	1,3307725E+000	2,232974991953990E-002	2,000000000000000E+000	-1,5189786E-001	41	2,9715817E-005
2	1	0	1	1	1,901381595500377E+005	1,3513912E+000	1,3507355E+000	2,389011905254984E-002	2,000000000000000E+000	-1,5131819E-001	41	3,2269232E-005
2	1	0	1	1	1,901631493539494E+005	1,3713831E+000	1,3707339E+000	2,541629004100149E-002	2,000000000000000E+000	-1,5070005E-001	41	3,4838969E-005
2	1	0	1	1	1,901881391578591E+005	1,3913749E+000	1,3907068E+000	2,692574643906852E-002	2,000000000000000E+000	-1,5004389E-001	41	3,7445818E-005
2	1	0	1	1	1,902131290617674E+005	1,4113667E+000	1,4107019E+000	2,847290866866592E-002	2,000000000000000E+000	-1,4934990E-001	41	4,0166786E-005
2	1	0	1	1	1,902381188656795E+005	1,4313587E+000	1,4306874E+000	3,006463263153003E-002	2,000000000000000E+000	-1,4861669E-001	41	4,3013093E-005
2	1	0	1	1	1,902631085695889E+005	1,4513505E+000	1,4507041E+000	3,175638579167128E-002	2,000000000000000E+000	-1,4784239E-001	41	4,6069119E-005
2	1	0	1	1	1,902880985734980E+005	1,4713422E+000	1,4706737E+000	3,355337241963957E-002	2,000000000000000E+000	-1,4702463E-001	41	4,9346061E-005
2	1	0	1	1	1,903130882774098E+005	1,4913340E+000	1,4906812E+000	3,549327672178132E-002	2,000000000000000E+000	-1,4616011E-001	41	5,2909159E-005
2	1	0	1	1	1,903380781813189E+005	1,5113260E+000	1,5106556E+000	3,760421548382087E-002	2,000000000000000E+000	-1,4524549E-001	41	5,6807021E-005
2	1	0	1	1	1,903630680852281E+005	1,5313177E+000	1,5306314E+000	3,995690754340908E-002	2,000000000000000E+000	-1,4427495E-001	41	6,1159299E-005
2	1	0	1	1	1,903880577891399E+005	1,5513097E+000	1,5506527E+000	4,305783391557516E-002	2,000000000000000E+000	-1,4323749E-001	41	6,6767745E-005
2	1	0	1	1	1,904130474930483E+005	1,5713013E+000	1,5706236E+000	4,757543555224886E-002	2,000000000000000E+000	-1,4210670E-001	41	7,4723102E-005
2	1	0	1	1	1,904380374969579E+005	1,5912933E+000	1,5905894E+000	5,575455808290641E-002	2,000000000000000E+000	-1,4082795E-001	41	8,8682609E-005
2	1	0	1	1	1,904630273008700E+005	1,6112851E+000	1,6105556E+000	7,625825195121805E-002	2,000000000000000E+000	-1,3920769E-001	41	1,2281816E-004
2	1	0	1	1	1,904880172047784E+005	1,6312768E+000	1,6306542E+000	1,071936092355525E-001	2,000000000000000E+000	-1,3692142E-001	40	1,7479571E-004
2	1	0	1	1	1,905130070086885E+005	1,6512688E+000	1,6506376E+000	1,389585370166131E-001	2,000000000000000E+000	-1,3384013E-001	40	2,2937018E-004
2	1	0	1	1	1,905379967125994E+005	1,6712606E+000	1,6706170E+000	1,683115302926970E-001	2,000000000000000E+000	-1,2999174E-001	40	2,8118410E-004
2	1	0	1	1	1,905629866165079E+005	1,6912525E+000	1,6906297E+000	1,942102078079158E-001	2,000000000000000E+000	-1,2545213E-001	40	3,2833754E-004
2	1	0	1	1	1,905879765204191E+005	1,7112443E+000	1,7106069E+000	2,161147585655940E-001	2,000000000000000E+000	-1,2031367E-001	40	3,6968739E-004
2	1	0	1	1	1,906129663243289E+005	1,7312361E+000	1,7306142E+000	2,338027785982768E-001	2,000000000000000E+000	-1,1467989E-001	40	4,0462241E-004
2	1	0	1	1	1,906379561282368E+005	1,7512281E+000	1,7505875E+000	2,469323482654913E-001	2,000000000000000E+000	-1,0866069E-001	40	4,3227666E-004
2	1	0	1	1	1,906629459321480E+005	1,7712200E+000	1,7705811E+000	2,548949933683815E-001	2,000000000000000E+000	-1,0237721E-001	40	4,5131225E-004
2	1	0	1	1	1,906879357360582E+005	1,7912116E+000	1,7905594E+000	2,572634550241879E-001	2,000000000000000E+000	-9,5964022E-002	40	4,6064550E-004
2	1	0	1	1	1,907129255399667E+005	1,8112035E+000	1,8105626E+000	2,541964276704869E-001	2,000000000000000E+000	-8,9560509E-002	40	4,6023855E-004
2	1	0	1	1	1,907379155438785E+005	1,8311954E+000	1,8305556E+000	2,462619967415174E-001	2,000000000000000E+000	-8,3297171E-002	40	4,5079627E-004
2	1	0	1	1	1,907629053477880E+005	1,8511872E+000	1,8505772E+000	2,348093570665384E-001	2,000000000000000E+000	-7,7278599E-002	40	4,3453285E-004
2	1	0	1	1	1,907878950516968E+005	1,8711791E+000	1,8705502E+000	2,212498200019593E-001	2,000000000000000E+000	-7,1576007E-002	40	4,1385888E-004
2	1	0	1	1	1,908128849556088E+005	1,8911707E+000	1,8905410E+000	2,067278167344602E-001	2,000000000000000E+000	-6,6225447E-002	40	3,9082739E-004
2	1	0	1	1	1,908378747595180E+005	1,9111626E+000	1,9105544E+000	1,919191991324025E-001	2,000000000000000E+000	-6,1242182E-002	40	3,6667206E-004
2	1	0	1	1	1,908628645634265E+005	1,9311547E+000	1,9305493E+000	1,773181614801920E-001	2,000000000000000E+000	-5,6626968E-002	40	3,4232144E-004
2	1	0	1	1	1,908878544673389E+005	1,9511464E+000	1,9505628E+000	1,630697013585913E-001	2,000000000000000E+000	-5,2373588E-002	40	3,1807771E-004
2	1	0	1	1	1,909128442712474E+005	1,9711382E+000	1,9705275E+000	1,494117377022197E-001	2,000000000000000E+000	-4,8469547E-002	40	2,9441994E-004
2	1	0	1	1	1,909378339751568E+005	1,9911300E+000	1,9905347E+000	1,365239906495699E-001	2,000000000000000E+000	-4,4896968E-002	40	2,7175574E-004
2	1	0	1	1	1,909628239790690E+005	2,0111217E+000	2,0105157E+000	1,245693882284002E-001	2,000000000000000E+000	-4,1634988E-002	40	2,5044871E-004
2	1	0	1	1	1,909878138829775E+005	2,0311136E+000	2,0305207E+000	1,135630217728498E-001	2,000000000000000E+000	-3,8659889E-002	40	2,3059206E-004
2	1	0	1	1	1,910128034868874E+005	2,0511055E+000	2,0504918E+000	1,034684453445258E-001	2,000000000000000E+000	-3,5948943E-002	40	2,1216121E-004
2	1	0	1	1	1,910377932907988E+005	2,0710974E+000	2,0704811E+000	9,432755884919719E-002	2,000000000000000E+000	-3,3477977E-002	40	1,9530342E-004
2	1	0	1	1	1,910627831947071E+005	2,0910892E+000	2,0904949E+000	8,606037036565573E-002	2,000000000000000E+000	-3,1224173E-002	40	1,7990876E-004
2	1	0	1	1	1,910877730986178E+005	2,1110811E+000	2,1104991E+000	7,853495769997587E-002	2,000000000000000E+000	-2,9167403E-002	40	1,6574796E-004
2	1	0	1	1	1,911127630025281E+005	2,1310730E+000	2,1304760E+000	7,175477866881108E-002	2,000000000000000E+000	-2,7289389E-002	40	1,5287183E-004
2	1	0	1	1	1,911377529064361E+005	2,1510649E+000	2,1504545E+000	6,562907680941166E-002	2,000000000000000E+000	-2,5572104E-002	40	1,4113235E-004
2	1	0	1	1	1,911627427103473E+005	2,1710570E+000	2,1704776E+000	6,011978467476631E-002	2,000000000000000E+000	-2,4000185E-002	40	1,3048865E-004
2	1	0	1	1	1,911877324142572E+005	2,1910484E+000	2,1904690E+000	5,513058070213295E-002	2,000000000000000E+000	-2,2560271E-002	40	1,2076183E-004
2	1	0	1	1	1,912127222181659E+005	2,2110403E+000	2,2104554E+000	5,061210182273523E-002	2,000000000000000E+000	-2,1238532E-002	40	1,1187579E-004
2	1	0	1	1	1,912378369220970E+005	2,2311320E+000	2,2305210E+000	4,667646915812373E-002	2,000000000000000E+000	-2,0016246E-002	41	1,0411284E-004
2	1	0	1	1	1,912628268260066E+005	2,2511241E+000	2,2504947E+000	4,307024505843776E-002	2,000000000000000E+000	-1,8893857E-002	41	9,6929361E-005
2	1	0	1	1	1,912878167299153E+005	2,2711158E+000	2,2704914E+000	3,982568041829559E-002	2,000000000000000E+000	-1,7857205E-002	41	9,0423862E-005
2	1	0	1	1	1,913128064338272E+005	2,2911074E+000	2,2904596E+000	3,691919110903452E-002	2,000000000000000E+000	-1,6897336E-002	41	8,4561914E-005
2	1	0	1	1	1,913377963377366E+005	2,3110995E+000	2,3104711E+000	3,437193024820639E-002	2,000000000000000E+000	-1,6005360E-002	41	7,9415353E-005
2	1	0	1	1	1,913627861416452E+005	2,3310912E+000	2,3304601E+000	3,208855569521751E-002	2,000000000000000E+000	-1,5173838E-002	41	7,4781099E-005
2	1	0	1	1	1,913877759455573E+005	2,3510833E+000	2,3504746E+000	3,011139217623199E-002	2,000000000000000E+000	-1,4395341E-002	41	7,0776063E-005
2	1	0	1	1	1,914127658494660E+005	2,3710752E+000	2,3704669E+000	2,841710536990627E-002	2,000000000000000E+000	-1,3662680E-002	41	6,7361812E-005
2	1	0	1	1	1,914377557533756E+005	2,3910673E+000	2,3904223E+000	2,695468751699648E-002	2,000000000000000E+000	-1,2969558E-002	41	6,4433087E-005
2	1	0	1	1	1,914627455572877E+005	2,4110589E+000	2,4104455E+000	2,574512513515639E-002	2,000000000000000E+000	-1,2309571E-002	41	6,2057217E-005
2	1	0	1	1	1,914877353611961E+005	2,4310508E+000	2,4304268E+000	2,467736750726926E-002	2,000000000000000E+000	-1,1678023E-002	41	5,9976537E-005
2	1	0	1	1	1,915127251651059E+005	2,4510422E+000	2,4504366E+000	2,380714172788487E-002	2,000000000000000E+000	-1,1070486E-002	41	5,8337890E-005
2	1	0	1	1	1,915377149690175E+005	2,4710345E+000	2,4704201E+000	2,304922931522768E-002	2,000000000000000E+000	-1,0483452E-002	41	5,6941280E-005
2	1	0	1	1	1,915627048729258E+005	2,4910266E+000	2,4904163E+000	2,242888987003472E-002	2,000000000000000E+000	-9,9135982E-003	41	5,5857272E-005
2	1	0	1	1	1,915876945768362E+005	2,5110183E+000	2,5104048E+000	2,187817421457816E-002	2,000000000000000E+000	-9,3583949E-003	41	5,4923075E-005
2	1	0	1	1	1,916126843807471E+005	2,5310097E+000	2,5303991E+000	2,135483802934857E-002	2,000000000000000E+000	-8,8164136E-003	41	5,4036263E-005
2	1	0	1	1	1,916376741846551E+005	2,5510018E+000	2,5504062E+000	2,084502002978794E-002	2,000000000000000E+000	-8,2872398E-003	41	5,3163269E-005
2	1	0	1	1	1,916626640885659E+005	2,5709937E+000	2,5703964E+000	2,035083372727653E-002	2,000000000000000E+000	-7,7708275E-003	41	5,2309711E-005
2	1	0	1	1	1,916876539924762E+005	2,5909858E+000	2,5904188E+000	1,987304349908534E-002	2,000000000000000E+000	-7,2662663E-003	41	5,1479507E-005
2	1	0	1	1	1,917126438963846E+005	2,6109776E+000	2,6103971E+000	1,951968435054902E-002	2,000000000000000E+000	-6,7723505E-003	41	5,0954128E-005
2	1	0	1	1	1,917376336002960E+005	2,6309690E+000	2,6303957E+000	1,921088408469993E-002	2,000000000000000E+000	-6,2870174E-003	41	5,0532228E-005
2	1	0	1	1	1,917626234042058E+005	2,6509609E+000	2,6503770E+000	1,902315661650561E-002	2,000000000000000E+000	-5,8077010E-003	41	5,0418537E-005
2	1	0	1	1	1,917876133081140E+005	2,6709528E+000	2,6703856E+000	1,890269855733910E-002	2,000000000000000E+000	-5,3322930E-003	41	5,0477494E-005
2	1	0	1	1	1,918126030120263E+005	2,6909444E+000	2,6903825E+000	1,888943541925164E-002	2,000000000000000E+000	-4,8588053E-003	41	5,0819806E-005
2	1	0	1	0	1,918358450156619E+005	2,7095370E+000	2,7089648E+000	1,892080264798662E-002	2,000000000000000E+000	-4,4179372E-003	41	5,1255789E-005
2	1	0	1	0	1,918608348195716E+005	2,7295289E+000	2,7289522E+000	1,912796427232449E-002	2,000000000000000E+000	-3,9406950E-003	41	5,2199299E-005
2	1	0	0	0	1,918760220219474E+005	2,7417748E+000	2,7411919E+000	1,963613689716520E-002	2,000000000000000E+000	-3,6474203E-003	41	5,3826418E-005