File: Dati/201104/CV_LTO_Al_grafite_01_1mVs_06_CV_C03.mpt
EC-Lab ASCII FILE
Nb header lines : 57

Cyclic Voltammetry

Run on channel : 3 (SN 6807)
User :
Electrode connection : standard
Ewe ctrl range : min = 0,00 V, max = 5,00 V
Ewe,I filtering : 50 kHz
Safety Limits :
	Do not start on E overload
Channel : Grounded
Acquisition started on : 11/04/2020 18:19:46
Saved on :
	File : CV_LTO_Al_grafite_01_1mVs_06_CV_C03.mpr
	Directory : C:\Users\labsuperfici\Desktop\Biologic\Users\Prisca Viviani\201104\
	Host : 10.78.33.0
Device : VSP-300 (SN 0638)
Address : USB
EC-Lab for windows v11.31 (software)
Internet server v11.30 (firmware)
Command interpretor v11.31 (firmware)
Electrode material :
Initial state :
Electrolyte :
Comments :
Cable : standard
Reference electrode : SCE Saturated Calomel Electrode (0,241 V)
Electrode surface area : 0,001 cm²
Characteristic mass : 0,001 g
Equivalent Weight : 0,000 g/eq.
Density : 0,000 g/cm3
Cycle Definition : Charge/Discharge alternance
Ei (V)              0,000
vs.                 Eoc
dE/dt               0,500
dE/dt unit          mV/s
E1 (V)              1,000
vs.                 Ref
Step percent        50
N                   10
E range min (V)     0,000
E range max (V)     5,000
I Range             Auto
I Range min         Unset
I Range max         Unset
I Range init        Unset
Bandwidth           8
E2 (V)              2,700
vs.                 Ref
nc cycles           1
Reverse Scan        1
Ef (V)              0,000
vs.                 Eoc

mode	ox/red	error	control changes	counter inc.	time/s	control/V	Ewe/V	<I>/mA	cycle number	(Q-Qo)/C	I Range	P/W
2	1	0	0	0	1,481978205879810E+005	2,7417748E+000	2,7411537E+000	1,281641423702240E-002	1,000000000000000E+000	0,0000000E+000	41	3,5131761E-005
2	1	0	1	0	1,482369047940958E+005	2,7222316E+000	2,7215552E+000	4,867126167477351E-003	1,000000000000000E+000	2,5892057E-004	42	1,3246153E-005
2	1	0	1	0	1,482768884003516E+005	2,7022402E+000	2,7016065E+000	2,867491124070101E-003	1,000000000000000E+000	4,0755846E-004	42	7,7468330E-006
2	1	0	1	0	1,483168720066072E+005	2,6822481E+000	2,6815908E+000	1,570711343238173E-003	1,000000000000000E+000	4,9083366E-004	42	4,2120050E-006
2	1	0	1	0	1,483568558128634E+005	2,6622562E+000	2,6616313E+000	6,046306547390912E-004	1,000000000000000E+000	5,2933866E-004	42	1,6093039E-006
2	0	0	1	0	1,483968395191194E+005	2,6422644E+000	2,6416557E+000	-1,409525178764832E-004	1,000000000000000E+000	5,3444173E-004	43	-3,7234801E-007
2	0	0	1	0	1,484368230253751E+005	2,6222725E+000	2,6217363E+000	-7,138408181088041E-004	1,000000000000000E+000	5,1371346E-004	43	-1,8715024E-006
2	0	0	1	0	1,484768067316315E+005	2,6022809E+000	2,6016774E+000	-1,171475662911554E-003	1,000000000000000E+000	4,7191672E-004	42	-3,0478018E-006
2	0	0	1	0	1,485167905378873E+005	2,5822890E+000	2,5817156E+000	-1,568420071738073E-003	1,000000000000000E+000	4,1340923E-004	42	-4,0492146E-006
2	0	0	1	0	1,485567742441441E+005	2,5622969E+000	2,5617106E+000	-1,879061310164964E-003	1,000000000000000E+000	3,4058196E-004	42	-4,8136112E-006
2	0	0	1	0	1,485967579504000E+005	2,5423052E+000	2,5417140E+000	-2,185186745773671E-003	1,000000000000000E+000	2,5518538E-004	42	-5,5541195E-006
2	0	0	1	0	1,486367417566553E+005	2,5223129E+000	2,5217354E+000	-2,467772045981739E-003	1,000000000000000E+000	1,5837901E-004	42	-6,2230683E-006
2	0	0	1	0	1,486767252629120E+005	2,5023215E+000	2,5017602E+000	-2,712844214534885E-003	1,000000000000000E+000	5,1110459E-005	42	-6,7868859E-006
2	0	0	1	0	1,487167090691682E+005	2,4823296E+000	2,4817743E+000	-2,967222820837764E-003	1,000000000000000E+000	-6,5924301E-005	42	-7,3639776E-006
2	0	0	1	0	1,487566926754247E+005	2,4623380E+000	2,4617715E+000	-3,161699377207020E-003	1,000000000000000E+000	-1,9197771E-004	42	-7,7833811E-006
2	0	0	1	0	1,487966762816804E+005	2,4423459E+000	2,4417624E+000	-3,375220252635966E-003	1,000000000000000E+000	-3,2662117E-004	42	-8,2414863E-006
2	0	0	1	0	1,488366598879360E+005	2,4223542E+000	2,4218047E+000	-3,574892958546759E-003	1,000000000000000E+000	-4,6921385E-004	42	-8,6576929E-006
2	0	0	1	0	1,488766436941922E+005	2,4023621E+000	2,4017744E+000	-3,779020465874819E-003	1,000000000000000E+000	-6,1991089E-004	42	-9,0763542E-006
2	0	0	1	0	1,489166274004485E+005	2,3823705E+000	2,3817835E+000	-3,981101409423767E-003	1,000000000000000E+000	-7,7846705E-004	42	-9,4821216E-006
2	0	0	1	0	1,489566112067038E+005	2,3623786E+000	2,3617895E+000	-4,160917730678379E-003	1,000000000000000E+000	-9,4480364E-004	42	-9,8272112E-006
2	0	0	1	0	1,489965949129593E+005	2,3423867E+000	2,3418298E+000	-4,370790223517038E-003	1,000000000000000E+000	-1,1191061E-003	42	-1,0235647E-005
2	0	0	1	0	1,490365783192148E+005	2,3223953E+000	2,3218369E+000	-4,600342367177044E-003	1,000000000000000E+000	-1,3018344E-003	42	-1,0681245E-005
2	0	0	1	0	1,490765621254705E+005	2,3024032E+000	2,3018501E+000	-4,820949018976076E-003	1,000000000000000E+000	-1,4935569E-003	42	-1,1097102E-005
2	0	0	1	0	1,491165459317260E+005	2,2824113E+000	2,2818592E+000	-5,065204350969521E-003	1,000000000000000E+000	-1,6948741E-003	42	-1,1558083E-005
2	0	0	1	0	1,491565297379820E+005	2,2624195E+000	2,2618642E+000	-5,351448562378153E-003	1,000000000000000E+000	-1,9067138E-003	42	-1,2104249E-005
2	0	0	1	0	1,491965131442375E+005	2,2424276E+000	2,2418573E+000	-5,670741103032055E-003	1,000000000000000E+000	-2,1303969E-003	42	-1,2712992E-005
2	0	0	1	0	1,492364968504929E+005	2,2224360E+000	2,2218764E+000	-6,005201165525803E-003	1,000000000000000E+000	-2,3670951E-003	42	-1,3342815E-005
2	0	0	1	0	1,492764805567490E+005	2,2024438E+000	2,2018807E+000	-6,393741832014431E-003	1,000000000000000E+000	-2,6183797E-003	42	-1,4078257E-005
2	0	0	1	0	1,493164643630055E+005	2,1824520E+000	2,1819041E+000	-6,803667200130632E-003	1,000000000000000E+000	-2,8860949E-003	42	-1,4844949E-005
2	0	0	1	0	1,493564480692614E+005	2,1624601E+000	2,1619017E+000	-7,315707067813704E-003	1,000000000000000E+000	-3,1719478E-003	42	-1,5815840E-005
2	0	0	1	0	1,493964318755171E+005	2,1424685E+000	2,1419234E+000	-7,821800251076351E-003	1,000000000000000E+000	-3,4776172E-003	42	-1,6753696E-005
2	0	0	1	0	1,494364153817738E+005	2,1224766E+000	2,1219406E+000	-8,424397593699687E-003	1,000000000000000E+000	-3,8060113E-003	42	-1,7876071E-005
2	0	0	1	0	1,494763989880295E+005	2,1024847E+000	2,1019814E+000	-9,066985727539431E-003	1,000000000000000E+000	-4,1587660E-003	42	-1,9058636E-005
2	0	0	1	0	1,495163827942852E+005	2,0824928E+000	2,0819800E+000	-9,782286833742715E-003	1,000000000000000E+000	-4,5388239E-003	42	-2,0366526E-005
2	0	0	1	0	1,495563666005414E+005	2,0625010E+000	2,0618708E+000	-1,055189659792921E-002	1,000000000000000E+000	-4,9503460E-003	41	-2,1756648E-005
2	0	0	1	0	1,495963501067981E+005	2,0425091E+000	2,0419011E+000	-1,138916103238305E-002	1,000000000000000E+000	-5,3933025E-003	41	-2,3255541E-005
2	0	0	1	0	1,496363337130537E+005	2,0225174E+000	2,0218542E+000	-1,231761326979414E-002	1,000000000000000E+000	-5,8717597E-003	41	-2,4904417E-005
2	0	0	1	0	1,496763175193099E+005	2,0025253E+000	2,0019026E+000	-1,331827067806010E-002	1,000000000000000E+000	-6,3880491E-003	41	-2,6661881E-005
2	0	0	1	0	1,497163013255661E+005	1,9825337E+000	1,9818724E+000	-1,442358820159906E-002	1,000000000000000E+000	-6,9465605E-003	41	-2,8585711E-005
2	0	0	1	0	1,497562851318214E+005	1,9625419E+000	1,9618946E+000	-1,558102561096156E-002	1,000000000000000E+000	-7,5502396E-003	41	-3,0568332E-005
2	0	0	1	0	1,497962687380780E+005	1,9425501E+000	1,9418881E+000	-1,684306049098591E-002	1,000000000000000E+000	-8,2023982E-003	41	-3,2707339E-005
2	0	0	1	0	1,498362523443336E+005	1,9225582E+000	1,9219248E+000	-1,817935382793978E-002	1,000000000000000E+000	-8,9055821E-003	41	-3,4939352E-005
2	0	0	1	0	1,498762360505899E+005	1,9025662E+000	1,9019111E+000	-1,956989376039631E-002	1,000000000000000E+000	-9,6640261E-003	41	-3,7220198E-005
2	0	0	1	0	1,499162197568454E+005	1,8825744E+000	1,8819442E+000	-2,103586373387573E-002	1,000000000000000E+000	-1,0478971E-002	41	-3,9588322E-005
2	0	0	1	0	1,499562035631009E+005	1,8625824E+000	1,8619652E+000	-2,254481133984360E-002	1,000000000000000E+000	-1,1353893E-002	41	-4,1977655E-005
2	0	0	1	0	1,499961872693566E+005	1,8425905E+000	1,8420069E+000	-2,415869432118489E-002	1,000000000000000E+000	-1,2292060E-002	41	-4,4500481E-005
2	0	0	1	0	1,500361707756121E+005	1,8225988E+000	1,8219557E+000	-2,593347180560768E-002	1,000000000000000E+000	-1,3297067E-002	41	-4,7249636E-005
2	0	0	1	0	1,500761545818679E+005	1,8026069E+000	1,8019778E+000	-2,770878469470461E-002	1,000000000000000E+000	-1,4372750E-002	41	-4,9930615E-005
2	0	0	1	0	1,501161382881238E+005	1,7826152E+000	1,7819870E+000	-2,965008901760136E-002	1,000000000000000E+000	-1,5523353E-002	41	-5,2836072E-005
2	0	0	1	0	1,501561218943794E+005	1,7626233E+000	1,7620002E+000	-3,170011927218368E-002	1,000000000000000E+000	-1,6753407E-002	41	-5,5855617E-005
2	0	0	1	0	1,501961057006354E+005	1,7426312E+000	1,7419920E+000	-3,389118926133888E-002	1,000000000000000E+000	-1,8067844E-002	41	-5,9038179E-005
2	0	0	1	0	1,502360892068911E+005	1,7226398E+000	1,7220401E+000	-3,622171288837033E-002	1,000000000000000E+000	-1,9473396E-002	41	-6,2375242E-005
2	0	0	1	0	1,502760730131473E+005	1,7026478E+000	1,7020557E+000	-3,888693928441045E-002	1,000000000000000E+000	-2,0978525E-002	41	-6,6187735E-005
2	0	0	1	0	1,503160567194032E+005	1,6826557E+000	1,6820673E+000	-4,183373639359747E-002	1,000000000000000E+000	-2,2595616E-002	41	-7,0367161E-005
2	0	0	1	0	1,503560404256596E+005	1,6626642E+000	1,6620235E+000	-4,541446300663823E-002	1,000000000000000E+000	-2,4342019E-002	41	-7,5479904E-005
2	0	0	1	0	1,503960242319163E+005	1,6426722E+000	1,6420640E+000	-4,963759517654975E-002	1,000000000000000E+000	-2,6242588E-002	41	-8,1508108E-005
2	0	0	1	0	1,504360078381724E+005	1,6226803E+000	1,6220615E+000	-5,501727282019386E-002	1,000000000000000E+000	-2,8334998E-002	41	-8,9241403E-005
2	0	0	1	0	1,504759914444275E+005	1,6026887E+000	1,6021125E+000	-6,194514702849047E-002	1,000000000000000E+000	-3,0671548E-002	41	-9,9243094E-005
2	0	0	1	0	1,505159752506837E+005	1,5826966E+000	1,5821208E+000	-7,091494031772816E-002	1,000000000000000E+000	-3,3324771E-002	41	-1,1219600E-004
2	0	0	1	0	1,505559589569401E+005	1,5627047E+000	1,5621475E+000	-8,272726648669482E-002	1,000000000000000E+000	-3,6389194E-002	41	-1,2923220E-004
2	0	0	1	0	1,505959425631957E+005	1,5427129E+000	1,5421975E+000	-9,933637717897315E-002	1,000000000000000E+000	-4,0011968E-002	41	-1,5319631E-004
2	0	0	1	0	1,506359262694521E+005	1,5227213E+000	1,5220892E+000	-1,240549203574355E-001	1,000000000000000E+000	-4,4463735E-002	40	-1,8882265E-004
2	0	0	1	0	1,506759098757077E+005	1,5027293E+000	1,5020922E+000	-1,525337651211838E-001	1,000000000000000E+000	-4,9997550E-002	40	-2,2911979E-004
2	0	0	1	0	1,507158936819639E+005	1,4827373E+000	1,4821362E+000	-1,776304457603954E-001	1,000000000000000E+000	-5,6623921E-002	40	-2,6327252E-004
2	0	0	1	0	1,507558773882203E+005	1,4627457E+000	1,4621205E+000	-1,949992999537962E-001	1,000000000000000E+000	-6,4109869E-002	40	-2,8511247E-004
2	0	0	1	0	1,507958609944759E+005	1,4427537E+000	1,4421450E+000	-2,021754672713809E-001	1,000000000000000E+000	-7,2091103E-002	40	-2,9156634E-004
2	0	0	1	0	1,508358447007313E+005	1,4227619E+000	1,4221140E+000	-1,986814540924966E-001	1,000000000000000E+000	-8,0142669E-002	40	-2,8254767E-004
2	0	0	1	0	1,508758283069870E+005	1,4027700E+000	1,4021478E+000	-1,865827069373562E-001	1,000000000000000E+000	-8,7870158E-002	40	-2,6161651E-004
2	0	0	1	0	1,509158121132427E+005	1,3827782E+000	1,3821348E+000	-1,706976819972770E-001	1,000000000000000E+000	-9,5020078E-002	40	-2,3592720E-004
2	0	0	1	0	1,509557959194982E+005	1,3627864E+000	1,3621391E+000	-1,553909254399084E-001	1,000000000000000E+000	-1,0153651E-001	40	-2,1166405E-004
2	0	0	1	0	1,509957795257543E+005	1,3427945E+000	1,3421454E+000	-1,420606789096885E-001	1,000000000000000E+000	-1,0747997E-001	40	-1,9066609E-004
2	0	0	1	0	1,510357630320096E+005	1,3228027E+000	1,3221943E+000	-1,306137911567609E-001	1,000000000000000E+000	-1,1292990E-001	40	-1,7269682E-004
2	0	0	1	0	1,510757467382655E+005	1,3028109E+000	1,3021712E+000	-1,208660470346119E-001	1,000000000000000E+000	-1,1795678E-001	40	-1,5738829E-004
2	0	0	1	0	1,511157305445215E+005	1,2828190E+000	1,2821785E+000	-1,123524479335543E-001	1,000000000000000E+000	-1,2261949E-001	40	-1,4405590E-004
2	0	0	1	0	1,511557141507776E+005	1,2628272E+000	1,2621843E+000	-1,050516536174684E-001	1,000000000000000E+000	-1,2696724E-001	40	-1,3259455E-004
2	0	0	1	0	1,511956979570333E+005	1,2428354E+000	1,2421759E+000	-9,873481169651599E-002	1,000000000000000E+000	-1,3104264E-001	40	-1,2264600E-004
2	0	0	1	0	1,512356815632898E+005	1,2228435E+000	1,2221942E+000	-9,325349446483477E-002	1,000000000000000E+000	-1,3488202E-001	40	-1,1397388E-004
2	0	0	1	0	1,512756652695457E+005	1,2028517E+000	1,2021723E+000	-8,872565385791287E-002	1,000000000000000E+000	-1,3852119E-001	40	-1,0666352E-004
2	0	0	1	0	1,513156489758021E+005	1,1828599E+000	1,1821982E+000	-8,483174783615599E-002	1,000000000000000E+000	-1,4199236E-001	40	-1,0028794E-004
2	0	0	1	0	1,513556326820580E+005	1,1628679E+000	1,1621879E+000	-8,156165378176927E-002	1,000000000000000E+000	-1,4532019E-001	40	-9,4789968E-005
2	0	0	1	0	1,513956163883135E+005	1,1428761E+000	1,1422267E+000	-7,901103076724755E-002	1,000000000000000E+000	-1,4853185E-001	40	-9,0248512E-005
2	0	0	1	0	1,514355999945700E+005	1,1228843E+000	1,1222051E+000	-7,706134885246352E-002	1,000000000000000E+000	-1,5165345E-001	40	-8,6478642E-005
2	0	0	1	0	1,514755837008264E+005	1,1028924E+000	1,1022228E+000	-7,572984201625355E-002	1,000000000000000E+000	-1,5470980E-001	40	-8,3471161E-005
2	0	0	1	0	1,515155674070828E+005	1,0829006E+000	1,0822619E+000	-7,491443801935582E-002	1,000000000000000E+000	-1,5772413E-001	40	-8,1077043E-005
2	0	0	1	0	1,515555511133382E+005	1,0629088E+000	1,0622677E+000	-7,466488072738731E-002	1,000000000000000E+000	-1,6071679E-001	40	-7,9314086E-005
2	0	0	1	0	1,515955347195938E+005	1,0429170E+000	1,0422503E+000	-7,487904351075575E-002	1,000000000000000E+000	-1,6370870E-001	40	-7,8042707E-005
2	0	0	1	0	1,516355184258502E+005	1,0229250E+000	1,0222555E+000	-7,560224795780277E-002	1,000000000000000E+000	-1,6671979E-001	40	-7,7284814E-005
2	0	0	1	0	1,516755021321066E+005	1,0029333E+000	1,0022622E+000	-7,677537518073829E-002	1,000000000000000E+000	-1,6976888E-001	40	-7,6949058E-005
2	0	0	1	0	1,517124878378930E+005	1,0155281E+000	1,0149372E+000	-3,958472149918096E-002	1,000000000000000E+000	-1,7190558E-001	41	-4,0176004E-005
2	0	0	1	0	1,517524715441493E+005	1,0355200E+000	1,0348927E+000	-2,044186042888446E-002	1,000000000000000E+000	-1,7305931E-001	41	-2,1155132E-005
2	0	0	1	0	1,517924551504049E+005	1,0555118E+000	1,0548385E+000	-9,510867697060804E-003	1,000000000000000E+000	-1,7363648E-001	41	-1,0032430E-005
2	0	0	1	0	1,518324389566602E+005	1,0755037E+000	1,0748574E+000	-2,302473130457443E-003	1,000000000000000E+000	-1,7385820E-001	42	-2,4748301E-006
2	1	0	1	0	1,518724225629161E+005	1,0954955E+000	1,0948361E+000	2,730191407072560E-003	1,000000000000000E+000	-1,7383997E-001	42	2,9891121E-006
2	1	0	1	0	1,519124062691717E+005	1,1154873E+000	1,1148111E+000	6,417781835373476E-003	1,000000000000000E+000	-1,7364976E-001	42	7,1546142E-006
2	1	0	1	0	1,519523900754272E+005	1,1354792E+000	1,1347476E+000	9,260439890763861E-003	1,000000000000000E+000	-1,7333026E-001	42	1,0508262E-005
2	1	0	1	0	1,519923738816832E+005	1,1554710E+000	1,1547939E+000	1,154320416312912E-002	1,000000000000000E+000	-1,7290704E-001	41	1,3330021E-005
2	1	0	1	0	1,520323575879387E+005	1,1754628E+000	1,1747936E+000	1,334354067410418E-002	1,000000000000000E+000	-1,7240469E-001	41	1,5675907E-005
2	1	0	1	0	1,520723412941943E+005	1,1954547E+000	1,1947671E+000	1,484745849730093E-002	1,000000000000000E+000	-1,7183638E-001	41	1,7739256E-005
2	1	0	1	0	1,521123250004502E+005	1,2154465E+000	1,2147487E+000	1,611044846842935E-002	1,000000000000000E+000	-1,7121270E-001	41	1,9570147E-005
2	1	0	1	0	1,521523087067064E+005	1,2354385E+000	1,2347468E+000	1,727338084991414E-002	1,000000000000000E+000	-1,7054082E-001	41	2,1328253E-005
2	1	0	1	0	1,521922926129624E+005	1,2554302E+000	1,2547110E+000	1,827788365785031E-002	1,000000000000000E+000	-1,6982622E-001	41	2,2933462E-005
2	1	0	1	0	1,522322762192185E+005	1,2754221E+000	1,2747277E+000	1,924151070473812E-002	1,000000000000000E+000	-1,6907196E-001	41	2,4527686E-005
2	1	0	1	0	1,522722599254744E+005	1,2954139E+000	1,2946887E+000	2,007382603302865E-002	1,000000000000000E+000	-1,6828094E-001	41	2,5989355E-005
2	1	0	1	0	1,523122437317302E+005	1,3154058E+000	1,3147027E+000	2,098040244029153E-002	1,000000000000000E+000	-1,6745515E-001	41	2,7582993E-005
2	1	0	1	0	1,523522273379862E+005	1,3353976E+000	1,3346989E+000	2,185871215589452E-002	1,000000000000000E+000	-1,6659509E-001	41	2,9174800E-005
2	1	0	1	0	1,523922112442423E+005	1,3553894E+000	1,3546706E+000	2,265369575655479E-002	1,000000000000000E+000	-1,6570137E-001	41	3,0688298E-005
2	1	0	1	0	1,524321949504986E+005	1,3753815E+000	1,3747128E+000	2,357971694342176E-002	1,000000000000000E+000	-1,6477287E-001	41	3,2415341E-005
2	1	0	1	0	1,524721786567550E+005	1,3953731E+000	1,3946564E+000	2,444217157726405E-002	1,000000000000000E+000	-1,6380921E-001	41	3,4088433E-005
2	1	0	1	0	1,525121623630114E+005	1,4153651E+000	1,4146801E+000	2,538600142315228E-002	1,000000000000000E+000	-1,6280864E-001	41	3,5913072E-005
2	1	0	1	0	1,525521460692668E+005	1,4353567E+000	1,4346664E+000	2,644846094878472E-002	1,000000000000000E+000	-1,6176872E-001	41	3,7944719E-005
2	1	0	1	0	1,525921297755232E+005	1,4553486E+000	1,4546587E+000	2,751326571218866E-002	1,000000000000000E+000	-1,6068572E-001	41	4,0022413E-005
2	1	0	1	0	1,526321135817794E+005	1,4753405E+000	1,4746423E+000	2,873583492916840E-002	1,000000000000000E+000	-1,5955707E-001	41	4,2375075E-005
2	1	0	1	0	1,526720973880347E+005	1,4953325E+000	1,4946324E+000	3,003640087542160E-002	1,000000000000000E+000	-1,5837885E-001	41	4,4893375E-005
2	1	0	1	0	1,527120810942911E+005	1,5153244E+000	1,5146309E+000	3,152821314992338E-002	1,000000000000000E+000	-1,5714587E-001	41	4,7753605E-005
2	1	0	1	0	1,527520647005467E+005	1,5353160E+000	1,5346047E+000	3,345600497939344E-002	1,000000000000000E+000	-1,5584549E-001	41	5,1341740E-005
2	1	0	1	0	1,527920485068029E+005	1,5553077E+000	1,5546124E+000	3,682705008927756E-002	1,000000000000000E+000	-1,5444216E-001	41	5,7251789E-005
2	1	0	1	0	1,528320322130583E+005	1,5752997E+000	1,5745909E+000	4,308987874534398E-002	1,000000000000000E+000	-1,5286078E-001	41	6,7848930E-005
2	1	0	1	0	1,528720160193141E+005	1,5952916E+000	1,5945306E+000	6,808131820485097E-002	1,000000000000000E+000	-1,5072809E-001	41	1,0855775E-004
2	1	0	1	0	1,529119996255697E+005	1,6152836E+000	1,6146055E+000	1,094415041244469E-001	1,000000000000000E+000	-1,4718449E-001	40	1,7670485E-004
2	1	0	1	0	1,529519834318252E+005	1,6352754E+000	1,6345713E+000	1,491290837399020E-001	1,000000000000000E+000	-1,4199103E-001	40	2,4376212E-004
2	1	0	1	0	1,529919672380814E+005	1,6552672E+000	1,6545659E+000	1,818904879505783E-001	1,000000000000000E+000	-1,3533881E-001	40	3,0094982E-004
2	1	0	1	0	1,530319509443366E+005	1,6752589E+000	1,6745788E+000	2,058552669260671E-001	1,000000000000000E+000	-1,2755129E-001	40	3,4472087E-004
2	1	0	1	0	1,530719346505923E+005	1,6952507E+000	1,6945640E+000	2,204978663743078E-001	1,000000000000000E+000	-1,1899167E-001	40	3,7364775E-004
2	1	0	1	0	1,531119184568487E+005	1,7152425E+000	1,7145748E+000	2,252129846142066E-001	1,000000000000000E+000	-1,1004242E-001	40	3,8614450E-004
2	1	0	1	0	1,531519022631049E+005	1,7352346E+000	1,7345400E+000	2,197879494785768E-001	1,000000000000000E+000	-1,0111003E-001	40	3,8123099E-004
2	1	0	1	0	1,531918859693604E+005	1,7552261E+000	1,7545804E+000	2,062163283906755E-001	1,000000000000000E+000	-9,2568636E-002	40	3,6182313E-004
2	1	0	1	0	1,532318696756163E+005	1,7752181E+000	1,7745397E+000	1,884967692354348E-001	1,000000000000000E+000	-8,4668443E-002	40	3,3449501E-004
2	1	0	1	0	1,532718534818725E+005	1,7952101E+000	1,7945402E+000	1,704210379953812E-001	1,000000000000000E+000	-7,7490821E-002	40	3,0582739E-004
2	1	0	1	0	1,533118371881288E+005	1,8152016E+000	1,8145311E+000	1,530052360491907E-001	1,000000000000000E+000	-7,1023829E-002	40	2,7763276E-004
2	1	0	1	0	1,533518207943849E+005	1,8351938E+000	1,8345190E+000	1,366325748357159E-001	1,000000000000000E+000	-6,5232165E-002	40	2,5065505E-004
2	1	0	1	0	1,533918047006410E+005	1,8551855E+000	1,8545135E+000	1,214712940274238E-001	1,000000000000000E+000	-6,0073085E-002	40	2,2527015E-004
2	1	0	1	0	1,534317883068975E+005	1,8751774E+000	1,8744985E+000	1,076606254766763E-001	1,000000000000000E+000	-5,5494346E-002	40	2,0180969E-004
2	1	0	1	0	1,534717721131537E+005	1,8951694E+000	1,8944931E+000	9,528056879657476E-002	1,000000000000000E+000	-5,1439315E-002	40	1,8050837E-004
2	1	0	1	0	1,535117559194099E+005	1,9151610E+000	1,9145185E+000	8,446568500605500E-002	1,000000000000000E+000	-4,7847234E-002	40	1,6171111E-004
2	1	0	1	0	1,535517395256655E+005	1,9351530E+000	1,9344789E+000	7,514133072141771E-002	1,000000000000000E+000	-4,4656374E-002	40	1,4535931E-004
2	1	0	1	0	1,535917234319216E+005	1,9551448E+000	1,9544947E+000	6,716776068851826E-002	1,000000000000000E+000	-4,1812148E-002	40	1,3127903E-004
2	1	0	1	0	1,536317070381772E+005	1,9751364E+000	1,9744983E+000	6,026654882520455E-002	1,000000000000000E+000	-3,9264720E-002	40	1,1899620E-004
2	1	0	1	0	1,536716907444336E+005	1,9951285E+000	1,9944736E+000	5,431310850615458E-002	1,000000000000000E+000	-3,6973521E-002	40	1,0832606E-004
2	1	0	1	0	1,537116746506896E+005	2,0151200E+000	2,0144756E+000	4,913409255916212E-002	1,000000000000000E+000	-3,4904122E-002	40	9,8979428E-005
2	1	0	1	0	1,537518582569750E+005	2,0352120E+000	2,0345466E+000	4,478725248221171E-002	1,000000000000000E+000	-3,3013005E-002	41	9,1121750E-005
2	1	0	1	0	1,537918421632312E+005	2,0552037E+000	2,0545382E+000	4,083021638738538E-002	1,000000000000000E+000	-3,1299353E-002	41	8,3887244E-005
2	1	0	1	0	1,538318258694864E+005	2,0751958E+000	2,0745037E+000	3,731821594109119E-002	1,000000000000000E+000	-2,9735023E-002	41	7,7416778E-005
2	1	0	1	0	1,538718096757424E+005	2,0951874E+000	2,0944753E+000	3,421997373087082E-002	1,000000000000000E+000	-2,8301870E-002	41	7,1672890E-005
2	1	0	1	0	1,539117933819983E+005	2,1151795E+000	2,1144967E+000	3,148105271521884E-002	1,000000000000000E+000	-2,6984807E-002	41	6,6566579E-005
2	1	0	1	0	1,539517768882546E+005	2,1351712E+000	2,1345065E+000	2,908307803259974E-002	1,000000000000000E+000	-2,5770705E-002	41	6,2078019E-005
2	1	0	1	0	1,539917610945106E+005	2,1551633E+000	2,1544788E+000	2,689329253940664E-002	1,000000000000000E+000	-2,4648827E-002	41	5,7941030E-005
2	1	0	1	0	1,540317449007663E+005	2,1751552E+000	2,1744511E+000	2,496497431187322E-002	1,000000000000000E+000	-2,3608832E-002	41	5,4285116E-005
2	1	0	1	0	1,540717283070222E+005	2,1951468E+000	2,1944883E+000	2,327904486526226E-002	1,000000000000000E+000	-2,2640906E-002	41	5,1085590E-005
2	1	0	1	0	1,541117121132789E+005	2,2151387E+000	2,2144737E+000	2,177747996341384E-002	1,000000000000000E+000	-2,1736745E-002	41	4,8225658E-005
2	1	0	1	0	1,541516958195344E+005	2,2351305E+000	2,2344537E+000	2,048581045580722E-002	1,000000000000000E+000	-2,0887634E-002	41	4,5774595E-005
2	1	0	1	0	1,541916800257908E+005	2,2551224E+000	2,2544582E+000	1,938487506170944E-002	1,000000000000000E+000	-2,0086579E-002	41	4,3702392E-005
2	1	0	1	0	1,542316637320463E+005	2,2751143E+000	2,2744520E+000	1,843062059223000E-002	1,000000000000000E+000	-1,9327376E-002	41	4,1919560E-005
2	1	0	1	0	1,542716475383025E+005	2,2951062E+000	2,2944419E+000	1,756722875954844E-002	1,000000000000000E+000	-1,8604068E-002	41	4,0306986E-005
2	1	0	1	0	1,543116309445594E+005	2,3150978E+000	2,3144550E+000	1,685145130134893E-002	1,000000000000000E+000	-1,7911924E-002	41	3,9001927E-005
2	1	0	1	0	1,543516147508156E+005	2,3350897E+000	2,3344393E+000	1,627701857736683E-002	1,000000000000000E+000	-1,7245589E-002	41	3,7997710E-005
2	1	0	1	0	1,543915989570711E+005	2,3550818E+000	2,3544328E+000	1,581403587254537E-002	1,000000000000000E+000	-1,6600624E-002	41	3,7233087E-005
2	1	0	1	0	1,544315824633269E+005	2,3750734E+000	2,3743966E+000	1,541408557245877E-002	1,000000000000000E+000	-1,5973259E-002	41	3,6599151E-005
2	1	0	1	0	1,544715661695832E+005	2,3950651E+000	2,3944376E+000	1,510850249001225E-002	1,000000000000000E+000	-1,5359590E-002	41	3,6176367E-005
2	1	0	1	0	1,545115499758394E+005	2,4150569E+000	2,4144061E+000	1,484992082149454E-002	1,000000000000000E+000	-1,4756820E-002	41	3,5853740E-005
2	1	0	1	0	1,545515336820949E+005	2,4350491E+000	2,4344130E+000	1,470200170185199E-002	1,000000000000000E+000	-1,4162268E-002	41	3,5790745E-005
2	1	0	1	0	1,545915178883513E+005	2,4550407E+000	2,4543874E+000	1,457358839925496E-002	1,000000000000000E+000	-1,3573490E-002	41	3,5769233E-005
2	1	0	1	0	1,546315015946068E+005	2,4750326E+000	2,4743752E+000	1,447691984079708E-002	1,000000000000000E+000	-1,2988869E-002	41	3,5821333E-005
2	1	0	1	0	1,546714854008625E+005	2,4950247E+000	2,4943836E+000	1,432621288528002E-002	1,000000000000000E+000	-1,2408711E-002	41	3,5735069E-005
2	1	0	1	0	1,547114688071178E+005	2,5150163E+000	2,5143940E+000	1,419605971617393E-002	1,000000000000000E+000	-1,1834134E-002	41	3,5694487E-005
2	1	0	1	0	1,547514526133735E+005	2,5350082E+000	2,5343928E+000	1,399663384755007E-002	1,000000000000000E+000	-1,1267052E-002	41	3,5472967E-005
2	1	0	1	0	1,547914368196295E+005	2,5550001E+000	2,5543475E+000	1,377444049686274E-002	1,000000000000000E+000	-1,0708003E-002	41	3,5184708E-005
2	1	0	1	0	1,548314203258851E+005	2,5749917E+000	2,5743327E+000	1,358276482351289E-002	1,000000000000000E+000	-1,0157034E-002	41	3,4966557E-005
2	1	0	1	0	1,548714040321407E+005	2,5949833E+000	2,5943449E+000	1,346507223313900E-002	1,000000000000000E+000	-9,6126935E-003	41	3,4933040E-005
2	1	0	1	0	1,549113878383965E+005	2,6149755E+000	2,6143675E+000	1,338761815741008E-002	1,000000000000000E+000	-9,0723811E-003	41	3,5000154E-005
2	1	0	1	0	1,549513715446524E+005	2,6349673E+000	2,6343296E+000	1,337075971397282E-002	1,000000000000000E+000	-8,5339062E-003	41	3,5222987E-005
2	1	0	1	0	1,549913557509086E+005	2,6549592E+000	2,6543455E+000	1,341300385929788E-002	1,000000000000000E+000	-7,9947682E-003	41	3,5602745E-005
2	1	0	1	0	1,550313394571645E+005	2,6749508E+000	2,6743162E+000	1,348747851008344E-002	1,000000000000000E+000	-7,4533764E-003	41	3,6069781E-005
2	1	0	1	0	1,550713230634201E+005	2,6949430E+000	2,6943233E+000	1,362434210222738E-002	1,000000000000000E+000	-6,9076284E-003	41	3,6708381E-005
2	1	0	1	1	1,551085080692396E+005	2,6864464E+000	2,6857634E+000	6,681210415786686E-003	2,000000000000000E+000	-6,5426850E-003	41	1,7944150E-005
2	1	0	1	1	1,551484916754952E+005	2,6664546E+000	2,6657684E+000	4,051856728176276E-003	2,000000000000000E+000	-6,3370690E-003	42	1,0801312E-005
2	1	0	1	1	1,551884754817523E+005	2,6464627E+000	2,6458240E+000	2,408018294593688E-003	2,000000000000000E+000	-6,2139113E-003	42	6,3711923E-006
2	1	0	1	1	1,552284589880072E+005	2,6264710E+000	2,6258247E+000	1,230033526257786E-003	2,000000000000000E+000	-6,1461166E-003	42	3,2298524E-006
2	1	0	1	1	1,552684427942643E+005	2,6064792E+000	2,6057971E+000	3,447411138179524E-004	2,000000000000000E+000	-6,1186980E-003	43	8,9832537E-007
2	0	0	1	1	1,553084265005197E+005	2,5864871E+000	2,5858872E+000	-3,310813750647418E-004	2,000000000000000E+000	-6,1217183E-003	43	-8,5613908E-007
2	0	0	1	1	1,553484103067759E+005	2,5664949E+000	2,5658662E+000	-8,784705122721857E-004	2,000000000000000E+000	-6,1496724E-003	42	-2,2540378E-006
2	0	0	1	1	1,553883940130323E+005	2,5465033E+000	2,5458949E+000	-1,349941651044871E-003	2,000000000000000E+000	-6,1979610E-003	42	-3,4368095E-006
2	0	0	1	1	1,554283777192878E+005	2,5265117E+000	2,5258882E+000	-1,747237992660156E-003	2,000000000000000E+000	-6,2637464E-003	42	-4,4133280E-006
2	0	0	1	1	1,554683614255432E+005	2,5065198E+000	2,5058985E+000	-2,110954311042051E-003	2,000000000000000E+000	-6,3445801E-003	42	-5,2898372E-006
2	0	0	1	1	1,555083449317990E+005	2,4865282E+000	2,4859264E+000	-2,392714955347666E-003	2,000000000000000E+000	-6,4381487E-003	42	-5,9481131E-006
2	0	0	1	1	1,555483287380547E+005	2,4665363E+000	2,4659431E+000	-2,685847600866688E-003	2,000000000000000E+000	-6,5436643E-003	42	-6,6231473E-006
2	0	0	1	1	1,555883125443102E+005	2,4465444E+000	2,4459383E+000	-2,941227108416336E-003	2,000000000000000E+000	-6,6597587E-003	42	-7,1940603E-006
2	0	0	1	1	1,556282959505657E+005	2,4265521E+000	2,4259803E+000	-3,170071040822599E-003	2,000000000000000E+000	-6,7857271E-003	42	-7,6905299E-006
2	0	0	1	1	1,556682796568219E+005	2,4065607E+000	2,4059446E+000	-3,413387101191060E-003	2,000000000000000E+000	-6,9209631E-003	42	-8,2124207E-006
2	0	0	1	1	1,557082634630774E+005	2,3865685E+000	2,3860126E+000	-3,589027266065054E-003	2,000000000000000E+000	-7,0645846E-003	42	-8,5634638E-006
2	0	0	1	1	1,557482471693330E+005	2,3665767E+000	2,3659887E+000	-3,811354536693935E-003	2,000000000000000E+000	-7,2170063E-003	42	-9,0176218E-006
2	0	0	1	1	1,557882309755890E+005	2,3465850E+000	2,3460317E+000	-4,046312647175997E-003	2,000000000000000E+000	-7,3777405E-003	42	-9,4927773E-006
2	0	0	1	1	1,558282145818449E+005	2,3265929E+000	2,3260257E+000	-4,246393596879186E-003	2,000000000000000E+000	-7,5473739E-003	42	-9,8772207E-006
2	0	0	1	1	1,558681981881009E+005	2,3066013E+000	2,3060622E+000	-4,488008378403283E-003	2,000000000000000E+000	-7,7259056E-003	42	-1,0349627E-005
2	0	0	1	1	1,559081818943569E+005	2,2866096E+000	2,2860057E+000	-4,746805632237311E-003	2,000000000000000E+000	-7,9146242E-003	42	-1,0851225E-005
2	0	0	1	1	1,559481656006132E+005	2,2666178E+000	2,2660396E+000	-5,029875054628596E-003	2,000000000000000E+000	-8,1139859E-003	42	-1,1397896E-005
2	0	0	1	1	1,559881494068694E+005	2,2466259E+000	2,2460382E+000	-5,334972066146831E-003	2,000000000000000E+000	-8,3250999E-003	42	-1,1982551E-005
2	0	0	1	1	1,560281328131254E+005	2,2266338E+000	2,2260823E+000	-5,687711304144544E-003	2,000000000000000E+000	-8,5490691E-003	42	-1,2661314E-005
2	0	0	1	1	1,560681166193811E+005	2,2066422E+000	2,2060795E+000	-6,066646651761237E-003	2,000000000000000E+000	-8,7877335E-003	42	-1,3383505E-005
2	0	0	1	1	1,561081003256375E+005	2,1866505E+000	2,1861098E+000	-6,499883127361217E-003	2,000000000000000E+000	-9,0428228E-003	42	-1,4209458E-005
2	0	0	1	1	1,561480841318937E+005	2,1666584E+000	2,1661015E+000	-6,986115681973278E-003	2,000000000000000E+000	-9,3160551E-003	42	-1,5132636E-005
2	0	0	1	1	1,561880678381501E+005	2,1466665E+000	2,1461258E+000	-7,478756047986174E-003	2,000000000000000E+000	-9,6092969E-003	42	-1,6050351E-005
2	0	0	1	1	1,562280515444065E+005	2,1266747E+000	2,1261349E+000	-8,094577950182792E-003	2,000000000000000E+000	-9,9245422E-003	42	-1,7210165E-005
2	0	0	1	1	1,562680350506622E+005	2,1066830E+000	2,1061957E+000	-8,708150727438607E-003	2,000000000000000E+000	-1,0264314E-002	42	-1,8341070E-005
2	0	0	1	1	1,563080188569175E+005	2,0866914E+000	2,0861955E+000	-9,415727404976343E-003	2,000000000000000E+000	-1,0631063E-002	42	-1,9643048E-005
2	0	0	1	1	1,563480024631741E+005	2,0666993E+000	2,0660868E+000	-1,023634982636180E-002	2,000000000000000E+000	-1,1028865E-002	41	-2,1149186E-005
2	0	0	1	1	1,563879862694303E+005	2,0467074E+000	2,0460594E+000	-1,106040352913074E-002	2,000000000000000E+000	-1,1458937E-002	41	-2,2630242E-005
2	0	0	1	1	1,564279697756851E+005	2,0267155E+000	2,0261004E+000	-1,198505215262384E-002	2,000000000000000E+000	-1,1923689E-002	41	-2,4282919E-005
2	0	0	1	1	1,564679534819406E+005	2,0067239E+000	2,0061026E+000	-1,296399285009736E-002	2,000000000000000E+000	-1,2426629E-002	41	-2,6007099E-005
2	0	0	1	1	1,565079373881964E+005	1,9867318E+000	1,9861016E+000	-1,407071344686400E-002	2,000000000000000E+000	-1,2971096E-002	41	-2,7945867E-005
2	0	0	1	1	1,565479210944520E+005	1,9667400E+000	1,9660999E+000	-1,525619916210254E-002	2,000000000000000E+000	-1,3560459E-002	41	-2,9995212E-005
2	0	0	1	1	1,565879049007078E+005	1,9467480E+000	1,9460887E+000	-1,649538388959576E-002	2,000000000000000E+000	-1,4197811E-002	41	-3,2101481E-005
2	0	0	1	1	1,566278884069633E+005	1,9267564E+000	1,9261248E+000	-1,777592092330835E-002	2,000000000000000E+000	-1,4886208E-002	41	-3,4238641E-005
2	0	0	1	1	1,566678720132192E+005	1,9067647E+000	1,9061370E+000	-1,915479285221831E-002	2,000000000000000E+000	-1,5628668E-002	41	-3,6511658E-005
2	0	0	1	1	1,567078558194751E+005	1,8867726E+000	1,8861533E+000	-2,061686492505618E-002	2,000000000000000E+000	-1,6427599E-002	41	-3,8886570E-005
2	0	0	1	1	1,567478396257311E+005	1,8667808E+000	1,8661410E+000	-2,214305373734443E-002	2,000000000000000E+000	-1,7286839E-002	41	-4,1322059E-005
2	0	0	1	1	1,567878233319870E+005	1,8467888E+000	1,8461497E+000	-2,377112066638712E-002	2,000000000000000E+000	-1,8209197E-002	41	-4,3885047E-005
2	0	0	1	1	1,568278068382433E+005	1,8267971E+000	1,8261634E+000	-2,547688985824981E-002	2,000000000000000E+000	-1,9197645E-002	41	-4,6524965E-005
2	0	0	1	1	1,568677905444992E+005	1,8068054E+000	1,8061894E+000	-2,729576999642128E-002	2,000000000000000E+000	-2,0256305E-002	41	-4,9301332E-005
2	0	0	1	1	1,569077742507556E+005	1,7868134E+000	1,7861817E+000	-2,922233635151222E-002	2,000000000000000E+000	-2,1389756E-002	41	-5,2196403E-005
2	0	0	1	1	1,569477580570113E+005	1,7668215E+000	1,7662007E+000	-3,123100225766445E-002	2,000000000000000E+000	-2,2601798E-002	41	-5,5160217E-005
2	0	0	1	1	1,569877416632678E+005	1,7468297E+000	1,7462050E+000	-3,335639770643423E-002	2,000000000000000E+000	-2,3898060E-002	41	-5,8247108E-005
2	0	0	1	1	1,570277253695242E+005	1,7268379E+000	1,7262228E+000	-3,575947536425006E-002	2,000000000000000E+000	-2,5283474E-002	41	-6,1728817E-005
2	0	0	1	1	1,570677089757798E+005	1,7068459E+000	1,7062213E+000	-3,834742515113421E-002	2,000000000000000E+000	-2,6768681E-002	41	-6,5429194E-005
2	0	0	1	1	1,571076926820362E+005	1,6868544E+000	1,6862613E+000	-4,126703498010653E-002	2,000000000000000E+000	-2,8363355E-002	41	-6,9587004E-005
2	0	0	1	1	1,571476764882924E+005	1,6668624E+000	1,6662588E+000	-4,471024051292066E-002	2,000000000000000E+000	-3,0085191E-002	41	-7,4498836E-005
2	0	0	1	1	1,571876602945477E+005	1,6468704E+000	1,6462590E+000	-4,894690399906221E-002	2,000000000000000E+000	-3,1959288E-002	41	-8,0579281E-005
2	0	0	1	1	1,572276439008042E+005	1,6268787E+000	1,6262648E+000	-5,421955646150733E-002	2,000000000000000E+000	-3,4021951E-002	41	-8,8175359E-005
2	0	0	1	1	1,572676275070598E+005	1,6068869E+000	1,6062741E+000	-6,105940664547205E-002	2,000000000000000E+000	-3,6324844E-002	41	-9,8078148E-005
2	0	0	1	1	1,573076111133154E+005	1,5868950E+000	1,5862924E+000	-6,990012998526574E-002	2,000000000000000E+000	-3,8940206E-002	41	-1,1088204E-004
2	0	0	1	1	1,573475949195712E+005	1,5669032E+000	1,5663420E+000	-8,148918268493541E-002	2,000000000000000E+000	-4,1961193E-002	41	-1,2763993E-004
2	0	0	1	1	1,573875787258269E+005	1,5469112E+000	1,5463824E+000	-9,758613153699391E-002	2,000000000000000E+000	-4,5526315E-002	41	-1,5090549E-004
2	0	0	1	1	1,574275622320825E+005	1,5269195E+000	1,5262502E+000	-1,219449440076228E-001	2,000000000000000E+000	-4,9896579E-002	40	-1,8611850E-004
2	0	0	1	1	1,574675460383380E+005	1,5069275E+000	1,5062896E+000	-1,514605697104807E-001	2,000000000000000E+000	-5,5361114E-002	40	-2,2814349E-004
2	0	0	1	1	1,575075296445941E+005	1,4869359E+000	1,4863614E+000	-1,784077293001984E-001	2,000000000000000E+000	-6,1981004E-002	40	-2,6517836E-004
2	0	0	1	1	1,575475133508495E+005	1,4669440E+000	1,4663117E+000	-1,976986240701109E-001	2,000000000000000E+000	-6,9537483E-002	40	-2,8988780E-004
2	0	0	1	1	1,575874971571050E+005	1,4469521E+000	1,4463195E+000	-2,061544528049726E-001	2,000000000000000E+000	-7,7654406E-002	40	-2,9816519E-004
2	0	0	1	1	1,576274806633610E+005	1,4269602E+000	1,4263240E+000	-2,031294036819631E-001	2,000000000000000E+000	-8,5877001E-002	40	-2,8972834E-004
2	0	0	1	1	1,576674644696172E+005	1,4069682E+000	1,4063383E+000	-1,905437067132012E-001	2,000000000000000E+000	-9,3776338E-002	40	-2,6796892E-004
2	0	0	1	1	1,577074480758733E+005	1,3869766E+000	1,3863475E+000	-1,732279036211410E-001	2,000000000000000E+000	-1,0105685E-001	40	-2,4015407E-004
2	0	0	1	1	1,577474317821292E+005	1,3669847E+000	1,3663727E+000	-1,560622828144238E-001	2,000000000000000E+000	-1,0763687E-001	40	-2,1323924E-004
2	0	0	1	1	1,577874155883850E+005	1,3469927E+000	1,3463694E+000	-1,408753731141879E-001	2,000000000000000E+000	-1,1357242E-001	40	-1,8967029E-004
2	0	0	1	1	1,578273991946410E+005	1,3270010E+000	1,3263831E+000	-1,281320115787610E-001	2,000000000000000E+000	-1,1894930E-001	40	-1,6995214E-004
2	0	0	1	1	1,578673828008976E+005	1,3070091E+000	1,3063757E+000	-1,170736672196568E-001	2,000000000000000E+000	-1,2384781E-001	40	-1,5294220E-004
2	0	0	1	1	1,579073666071538E+005	1,2870172E+000	1,2864099E+000	-1,076872196660271E-001	2,000000000000000E+000	-1,2834056E-001	40	-1,3852990E-004
2	0	0	1	1	1,579473503134102E+005	1,2670254E+000	1,2664006E+000	-9,990416898383625E-002	2,000000000000000E+000	-1,3249092E-001	40	-1,2651870E-004
2	0	0	1	1	1,579873339196658E+005	1,2470337E+000	1,2464207E+000	-9,320732685666955E-002	2,000000000000000E+000	-1,3635097E-001	40	-1,1617554E-004
2	0	0	1	1	1,580273176259222E+005	1,2270418E+000	1,2264119E+000	-8,761131931028965E-002	2,000000000000000E+000	-1,3996568E-001	40	-1,0744757E-004
2	0	0	1	1	1,580673012321778E+005	1,2070501E+000	1,2064366E+000	-8,306169111702255E-002	2,000000000000000E+000	-1,4337823E-001	40	-1,0020866E-004
2	0	0	1	1	1,581072850384340E+005	1,1870580E+000	1,1864642E+000	-7,926706983637474E-002	2,000000000000000E+000	-1,4662492E-001	40	-9,4047537E-005
2	0	0	1	1	1,581472687446903E+005	1,1670662E+000	1,1664485E+000	-7,614415040519806E-002	2,000000000000000E+000	-1,4973341E-001	40	-8,8818226E-005
2	0	0	1	1	1,581872523509460E+005	1,1470743E+000	1,1464369E+000	-7,359449163996534E-002	2,000000000000000E+000	-1,5272874E-001	40	-8,4371444E-005
2	0	0	1	1	1,582272359572016E+005	1,1270826E+000	1,1264682E+000	-7,164955906831935E-002	2,000000000000000E+000	-1,5563466E-001	40	-8,0710946E-005
2	0	0	1	1	1,582672196634572E+005	1,1070907E+000	1,1065124E+000	-7,031473236084662E-002	2,000000000000000E+000	-1,5847547E-001	40	-7,7804129E-005
2	0	0	1	1	1,583072034697128E+005	1,0870990E+000	1,0864841E+000	-6,950861357871851E-002	2,000000000000000E+000	-1,6127317E-001	40	-7,5520002E-005
2	0	0	1	1	1,583471872759685E+005	1,0671071E+000	1,0665168E+000	-6,911056670563853E-002	2,000000000000000E+000	-1,6404632E-001	40	-7,3707575E-005
2	0	0	1	1	1,583871708822241E+005	1,0471151E+000	1,0464941E+000	-6,927128046397579E-002	2,000000000000000E+000	-1,6681343E-001	40	-7,2491988E-005
2	0	0	1	1	1,584271543884797E+005	1,0271233E+000	1,0265170E+000	-6,978262573093286E-002	2,000000000000000E+000	-1,6959517E-001	40	-7,1633054E-005
2	0	0	1	1	1,584671380947353E+005	1,0071316E+000	1,0065157E+000	-7,058917377310769E-002	2,000000000000000E+000	-1,7240408E-001	40	-7,1049115E-005
2	0	0	1	1	1,585045237005856E+005	1,0115298E+000	1,0109738E+000	-4,298884835748429E-002	2,000000000000000E+000	-1,7467399E-001	41	-4,3460601E-005
2	0	0	1	1	1,585445075068418E+005	1,0315216E+000	1,0309491E+000	-2,186104536777583E-002	2,000000000000000E+000	-1,7591558E-001	41	-2,2537626E-005
2	0	0	1	1	1,585844912130982E+005	1,0515134E+000	1,0509099E+000	-1,033130688404243E-002	2,000000000000000E+000	-1,7653653E-001	41	-1,0857272E-005
2	0	0	1	1	1,586244748193538E+005	1,0715052E+000	1,0709296E+000	-2,832491946634770E-003	2,000000000000000E+000	-1,7678532E-001	42	-3,0333997E-006
2	1	0	1	1	1,586644586256100E+005	1,0914971E+000	1,0908910E+000	2,258402774710741E-003	2,000000000000000E+000	-1,7678803E-001	42	2,4636713E-006
2	1	0	1	1	1,587044422318665E+005	1,1114889E+000	1,1108439E+000	5,970917111454727E-003	2,000000000000000E+000	-1,7661636E-001	42	6,6327570E-006
2	1	0	1	1	1,587444259381220E+005	1,1314808E+000	1,1308292E+000	8,748188617100474E-003	2,000000000000000E+000	-1,7631608E-001	42	9,8927076E-006
2	1	0	1	1	1,587844099443778E+005	1,1514727E+000	1,1508441E+000	1,092528346020513E-002	2,000000000000000E+000	-1,7591698E-001	41	1,2573298E-005
2	1	0	1	1	1,588243935506344E+005	1,1714644E+000	1,1708356E+000	1,266791824350771E-002	2,000000000000000E+000	-1,7544051E-001	41	1,4832050E-005
2	1	0	1	1	1,588643772568898E+005	1,1914563E+000	1,1908135E+000	1,407333970641783E-002	2,000000000000000E+000	-1,7490168E-001	41	1,6758724E-005
2	1	0	1	1	1,589043609631462E+005	1,2114482E+000	1,2108229E+000	1,531291788892822E-002	2,000000000000000E+000	-1,7431095E-001	41	1,8541232E-005
2	1	0	1	1	1,589443446694014E+005	1,2314398E+000	1,2308077E+000	1,637332345834781E-002	2,000000000000000E+000	-1,7367457E-001	41	2,0152413E-005
2	1	0	1	1	1,589843285756570E+005	1,2514317E+000	1,2507913E+000	1,730419873540492E-002	2,000000000000000E+000	-1,7299803E-001	41	2,1643942E-005
2	1	0	1	1	1,590243121819126E+005	1,2714236E+000	1,2708185E+000	1,815053954666895E-002	2,000000000000000E+000	-1,7228584E-001	41	2,3066041E-005
2	1	0	1	1	1,590642958881683E+005	1,2914156E+000	1,2907909E+000	1,890961483448161E-002	2,000000000000000E+000	-1,7154153E-001	41	2,4408359E-005
2	1	0	1	1	1,591042795944239E+005	1,3114073E+000	1,3107855E+000	1,972765522812681E-002	2,000000000000000E+000	-1,7076594E-001	41	2,5858724E-005
2	1	0	1	1	1,591442634006799E+005	1,3313993E+000	1,3307651E+000	2,049789647248057E-002	2,000000000000000E+000	-1,6995904E-001	41	2,7277885E-005
2	1	0	1	1	1,591842472069357E+005	1,3513911E+000	1,3507694E+000	2,130637697820321E-002	2,000000000000000E+000	-1,6912006E-001	41	2,8780001E-005
2	1	0	1	1	1,592242309131913E+005	1,3713828E+000	1,3707519E+000	2,209817150820009E-002	2,000000000000000E+000	-1,6824910E-001	41	3,0291110E-005
2	1	0	1	1	1,592642146194475E+005	1,3913748E+000	1,3907428E+000	2,287478894085535E-002	2,000000000000000E+000	-1,6734676E-001	41	3,1812946E-005
2	1	0	1	1	1,593041983257034E+005	1,4113666E+000	1,4107362E+000	2,376100014829810E-002	2,000000000000000E+000	-1,6641176E-001	41	3,3520504E-005
2	1	0	1	1	1,593441820319593E+005	1,4313586E+000	1,4306964E+000	2,466236264586377E-002	2,000000000000000E+000	-1,6544154E-001	41	3,5284353E-005
2	1	0	1	1	1,593841658382155E+005	1,4513501E+000	1,4506989E+000	2,568091741673156E-002	2,000000000000000E+000	-1,6443232E-001	41	3,7255279E-005
2	1	0	1	1	1,594241496444722E+005	1,4713422E+000	1,4706850E+000	2,679665799300113E-002	2,000000000000000E+000	-1,6338100E-001	41	3,9409442E-005
2	1	0	1	1	1,594641332507283E+005	1,4913338E+000	1,4906850E+000	2,798742626504976E-002	2,000000000000000E+000	-1,6228279E-001	41	4,1720436E-005
2	1	0	1	1	1,595041170569845E+005	1,5113260E+000	1,5106924E+000	2,928203301188001E-002	2,000000000000000E+000	-1,6113602E-001	41	4,4236145E-005
2	1	0	1	1	1,595441007632399E+005	1,5313177E+000	1,5306735E+000	3,088820235354289E-002	2,000000000000000E+000	-1,5993121E-001	41	4,7279755E-005
2	1	0	1	1	1,595840845694961E+005	1,5513095E+000	1,5506589E+000	3,324326098100330E-002	2,000000000000000E+000	-1,5864989E-001	41	5,1548959E-005
2	1	0	1	1	1,596240681757526E+005	1,5713013E+000	1,5706449E+000	3,716166315488934E-002	2,000000000000000E+000	-1,5724510E-001	41	5,8367776E-005
2	1	0	1	1	1,596640518820090E+005	1,5912932E+000	1,5906245E+000	4,777194909036361E-002	2,000000000000000E+000	-1,5559086E-001	41	7,5987227E-005
2	1	0	1	1	1,597040356882643E+005	1,6112851E+000	1,6106035E+000	7,426631437156754E-002	2,000000000000000E+000	-1,5318620E-001	41	1,1961359E-004
2	1	0	1	1	1,597440192945208E+005	1,6312768E+000	1,6306773E+000	1,051125649312279E-001	2,000000000000000E+000	-1,4959122E-001	40	1,7140468E-004
2	1	0	1	1	1,597840032007769E+005	1,6512687E+000	1,6506281E+000	1,331623311440371E-001	2,000000000000000E+000	-1,4480720E-001	40	2,1980148E-004
2	1	0	1	1	1,598239869070323E+005	1,6712606E+000	1,6706238E+000	1,566112447455388E-001	2,000000000000000E+000	-1,3899393E-001	40	2,6163846E-004
2	1	0	1	1	1,598639707132876E+005	1,6912524E+000	1,6906352E+000	1,746645329350649E-001	2,000000000000000E+000	-1,3234742E-001	40	2,9529401E-004
2	1	0	1	1	1,599039543195437E+005	1,7112443E+000	1,7106255E+000	1,869821091873677E-001	2,000000000000000E+000	-1,2509367E-001	40	3,1985636E-004
2	1	0	1	1	1,599439381257994E+005	1,7312361E+000	1,7306222E+000	1,931553236594765E-001	2,000000000000000E+000	-1,1747052E-001	40	3,3427888E-004
2	1	0	1	1	1,599839220320550E+005	1,7512279E+000	1,7506188E+000	1,927563872817146E-001	2,000000000000000E+000	-1,0972996E-001	40	3,3744297E-004
2	1	0	1	1	1,600239056383106E+005	1,7712198E+000	1,7706144E+000	1,864937237322665E-001	2,000000000000000E+000	-1,0212693E-001	40	3,3020848E-004
2	1	0	1	1	1,600638893445663E+005	1,7912115E+000	1,7905953E+000	1,762966859552177E-001	2,000000000000000E+000	-9,4862230E-002	40	3,1567601E-004
2	1	0	1	1	1,601038730508222E+005	1,8112035E+000	1,8105983E+000	1,639727536543809E-001	2,000000000000000E+000	-8,8053316E-002	40	2,9688879E-004
2	1	0	1	1	1,601438568570777E+005	1,8311952E+000	1,8306074E+000	1,509370579399363E-001	2,000000000000000E+000	-8,1754081E-002	40	2,7630650E-004
2	1	0	1	1	1,601838407633337E+005	1,8511872E+000	1,8505905E+000	1,379780450364692E-001	2,000000000000000E+000	-7,5978361E-002	40	2,5534086E-004
2	1	0	1	1	1,602238243695896E+005	1,8711789E+000	1,8705776E+000	1,255446485796421E-001	2,000000000000000E+000	-7,0709966E-002	40	2,3484101E-004
2	1	0	1	1	1,602638079758454E+005	1,8911710E+000	1,8905798E+000	1,137496416326909E-001	2,000000000000000E+000	-6,5925434E-002	40	2,1505277E-004
2	1	0	1	1	1,603037917821016E+005	1,9111627E+000	1,9105719E+000	1,028861908034846E-001	2,000000000000000E+000	-6,1596006E-002	40	1,9657146E-004
2	1	0	1	1	1,603437755883574E+005	1,9311546E+000	1,9305533E+000	9,290789166948554E-002	2,000000000000000E+000	-5,7682328E-002	40	1,7936363E-004
2	1	0	1	1	1,603837592946137E+005	1,9511464E+000	1,9505712E+000	8,400725918952667E-002	2,000000000000000E+000	-5,4146521E-002	40	1,6386213E-004
2	1	0	1	1	1,604237431008704E+005	1,9711382E+000	1,9705492E+000	7,609540585179442E-002	2,000000000000000E+000	-5,0946694E-002	40	1,4994974E-004
2	1	0	1	1	1,604637267071265E+005	1,9911301E+000	1,9905908E+000	6,909223054162661E-002	2,000000000000000E+000	-4,8044313E-002	40	1,3753436E-004
2	1	0	1	1	1,605037105133822E+005	2,0111220E+000	2,0105736E+000	6,279604330060873E-002	2,000000000000000E+000	-4,5407183E-002	40	1,2625607E-004
2	1	0	1	1	1,605436943196375E+005	2,0311139E+000	2,0305741E+000	5,722215609539039E-002	2,000000000000000E+000	-4,3007590E-002	40	1,1619383E-004
2	1	0	1	1	1,605836780258948E+005	2,0511055E+000	2,0505254E+000	5,222515681933637E-002	2,000000000000000E+000	-4,0819399E-002	40	1,0708901E-004
2	1	0	1	1	1,606236617321502E+005	2,0710974E+000	2,0704682E+000	4,775783354341717E-002	2,000000000000000E+000	-3,8821466E-002	41	9,8881072E-005
2	1	0	1	1	1,606636455384074E+005	2,0910892E+000	2,0904789E+000	4,377338463045954E-002	2,000000000000000E+000	-3,6989894E-002	41	9,1507340E-005
2	1	0	1	1	1,607036292446628E+005	2,1110811E+000	2,1104887E+000	4,018800106135101E-002	2,000000000000000E+000	-3,5310060E-002	41	8,4816318E-005
2	1	0	1	1	1,607436130509190E+005	2,1310730E+000	2,1304691E+000	3,695658052433770E-002	2,000000000000000E+000	-3,3766631E-002	41	7,8734854E-005
2	1	0	1	1	1,607835971571747E+005	2,1510649E+000	2,1504707E+000	3,407776280001307E-002	2,000000000000000E+000	-3,2345511E-002	41	7,3283234E-005
2	1	0	1	1	1,608235809634309E+005	2,1710565E+000	2,1704206E+000	3,148978256362334E-002	2,000000000000000E+000	-3,1032348E-002	41	6,8346075E-005
2	1	0	1	1	1,608635643696869E+005	2,1910486E+000	2,1904790E+000	2,918392470992343E-002	2,000000000000000E+000	-2,9816976E-002	41	6,3926775E-005
2	1	0	1	1	1,609035481759419E+005	2,2110405E+000	2,2104487E+000	2,707776473689238E-002	2,000000000000000E+000	-2,8690254E-002	41	5,9854010E-005
2	1	0	1	1	1,609435319821977E+005	2,2310324E+000	2,2304718E+000	2,520369163770822E-002	2,000000000000000E+000	-2,7643200E-002	41	5,6216126E-005
2	1	0	1	1	1,609835158884532E+005	2,2510240E+000	2,2504356E+000	2,355723869605217E-002	2,000000000000000E+000	-2,6666319E-002	41	5,3014050E-005
2	1	0	1	1	1,610234995947089E+005	2,2710159E+000	2,2704325E+000	2,210144609467024E-002	2,000000000000000E+000	-2,5751097E-002	41	5,0179842E-005
2	1	0	1	1	1,610634834009646E+005	2,2910078E+000	2,2904203E+000	2,082564017274186E-002	2,000000000000000E+000	-2,4891008E-002	41	4,7699468E-005
2	1	0	1	1	1,611034671072206E+005	2,3109996E+000	2,3104436E+000	1,968538806425843E-002	2,000000000000000E+000	-2,4078703E-002	41	4,5481978E-005
2	1	0	1	1	1,611434509134761E+005	2,3309913E+000	2,3304145E+000	1,872121376777354E-002	2,000000000000000E+000	-2,3308756E-002	41	4,3628188E-005
2	1	0	1	1	1,611834350197320E+005	2,3509831E+000	2,3503947E+000	1,785674391570763E-002	2,000000000000000E+000	-2,2575300E-002	41	4,1970397E-005
2	1	0	1	1	1,612234188259875E+005	2,3709753E+000	2,3704200E+000	1,715387604601851E-002	2,000000000000000E+000	-2,1872925E-002	41	4,0661889E-005
2	1	0	1	1	1,612634022322441E+005	2,3909669E+000	2,3904121E+000	1,653484483770254E-002	2,000000000000000E+000	-2,1197209E-002	41	3,9525094E-005
2	1	0	1	1	1,613033860384999E+005	2,4109588E+000	2,4103827E+000	1,603528828182352E-002	2,000000000000000E+000	-2,0543592E-002	41	3,8651182E-005
2	1	0	1	1	1,613433698447556E+005	2,4309506E+000	2,4303851E+000	1,563601767916278E-002	2,000000000000000E+000	-1,9908417E-002	41	3,8001544E-005
2	1	0	1	1	1,613833537510117E+005	2,4509425E+000	2,4503691E+000	1,526860904076102E-002	2,000000000000000E+000	-1,9288188E-002	41	3,7413727E-005
2	1	0	1	1	1,614233374572680E+005	2,4709342E+000	2,4703450E+000	1,499648953880699E-002	2,000000000000000E+000	-1,8680269E-002	41	3,7046502E-005
2	1	0	1	1	1,614633212635238E+005	2,4909260E+000	2,4903629E+000	1,478041181386744E-002	2,000000000000000E+000	-1,8082689E-002	41	3,6808589E-005
2	1	0	1	1	1,615033049697801E+005	2,5109179E+000	2,5103645E+000	1,454760368226443E-002	2,000000000000000E+000	-1,7494205E-002	41	3,6519788E-005
2	1	0	1	1	1,615432887760364E+005	2,5309095E+000	2,5303485E+000	1,427884920012512E-002	2,000000000000000E+000	-1,6915431E-002	41	3,6130466E-005
2	1	0	1	1	1,615832728822920E+005	2,5509017E+000	2,5503583E+000	1,402481864351665E-002	2,000000000000000E+000	-1,6346838E-002	41	3,5768313E-005
2	1	0	1	1	1,616232564885486E+005	2,5708935E+000	2,5703192E+000	1,373906484720014E-002	2,000000000000000E+000	-1,5789252E-002	41	3,5313780E-005
2	1	0	1	1	1,616632400948051E+005	2,5908856E+000	2,5903165E+000	1,346759448796175E-002	2,000000000000000E+000	-1,5242674E-002	41	3,4885332E-005
2	1	0	1	1	1,617032239010613E+005	2,6108773E+000	2,6103246E+000	1,327128466430791E-002	2,000000000000000E+000	-1,4705386E-002	41	3,4642362E-005
2	1	0	1	1	1,617432077073166E+005	2,6308692E+000	2,6303551E+000	1,312962889961433E-002	2,000000000000000E+000	-1,4175100E-002	41	3,4535587E-005
2	1	0	1	1	1,617831916135727E+005	2,6508608E+000	2,6503386E+000	1,304401237610719E-002	2,000000000000000E+000	-1,3649724E-002	41	3,4571050E-005
2	1	0	1	1	1,618231753198281E+005	2,6708524E+000	2,6703274E+000	1,300774874154306E-002	2,000000000000000E+000	-1,3126699E-002	41	3,4734949E-005
2	1	0	1	1	1,618631591260843E+005	2,6908445E+000	2,6903059E+000	1,301666685764297E-002	2,000000000000000E+000	-1,2604360E-002	41	3,5018817E-005
2	1	0	1	0	1,619005455319325E+005	2,7095370E+000	2,7089989E+000	1,307881594777893E-002	2,000000000000000E+000	-1,2114490E-002	41	3,5430498E-005
2	1	0	1	0	1,619405291381886E+005	2,7295287E+000	2,7289891E+000	1,325440102529746E-002	2,000000000000000E+000	-1,1585869E-002	41	3,6171117E-005
2	1	0	0	0	1,619648285419908E+005	2,7417748E+000	2,7412033E+000	1,363681019891211E-002	2,000000000000000E+000	-1,1260574E-002	41	3,7381269E-005