File: Dati/201104/CV_LTO_Al_grafite_01_1mVs_02_CV_C03.mpt
EC-Lab ASCII FILE
Nb header lines : 57

Cyclic Voltammetry

Run on channel : 3 (SN 6807)
User :
Electrode connection : standard
Ewe ctrl range : min = 0,00 V, max = 5,00 V
Ewe,I filtering : 50 kHz
Safety Limits :
	Do not start on E overload
Channel : Grounded
Acquisition started on : 11/04/2020 18:19:46
Saved on :
	File : CV_LTO_Al_grafite_01_1mVs_02_CV_C03.mpr
	Directory : C:\Users\labsuperfici\Desktop\Biologic\Users\Prisca Viviani\201104\
	Host : 10.78.33.0
Device : VSP-300 (SN 0638)
Address : USB
EC-Lab for windows v11.31 (software)
Internet server v11.30 (firmware)
Command interpretor v11.31 (firmware)
Electrode material :
Initial state :
Electrolyte :
Comments :
Cable : standard
Reference electrode : SCE Saturated Calomel Electrode (0,241 V)
Electrode surface area : 0,001 cm²
Characteristic mass : 0,001 g
Equivalent Weight : 0,000 g/eq.
Density : 0,000 g/cm3
Cycle Definition : Charge/Discharge alternance
Ei (V)              0,000
vs.                 Eoc
dE/dt               0,100
dE/dt unit          mV/s
E1 (V)              1,000
vs.                 Ref
Step percent        50
N                   10
E range min (V)     0,000
E range max (V)     5,000
I Range             Auto
I Range min         Unset
I Range max         Unset
I Range init        Unset
Bandwidth           8
E2 (V)              2,700
vs.                 Ref
nc cycles           1
Reverse Scan        1
Ef (V)              0,000
vs.                 Eoc

mode	ox/red	error	control changes	counter inc.	time/s	control/V	Ewe/V	<I>/mA	cycle number	(Q-Qo)/C	I Range	P/W
2	0	0	0	0	4,790049888123336E+003	2,7417748E+000	2,7412376E+000	-4,986440762877464E-004	1,000000000000000E+000	0,0000000E+000	42	-1,3669019E-006
2	0	0	1	0	4,985469985757358E+003	2,7222319E+000	2,7216442E+000	-4,504254971190967E-004	1,000000000000000E+000	-9,0971698E-005	43	-1,2258979E-006
2	0	0	1	0	5,185385483336926E+003	2,7022400E+000	2,7017162E+000	-5,229598243557138E-004	1,000000000000000E+000	-2,0130539E-004	43	-1,4128890E-006
2	0	0	1	0	5,385302280916498E+003	2,6822476E+000	2,6816854E+000	-5,735419538440301E-004	1,000000000000000E+000	-3,2297900E-004	43	-1,5380591E-006
2	0	0	1	0	5,585219078496069E+003	2,6622560E+000	2,6617107E+000	-6,232633255420575E-004	1,000000000000000E+000	-4,5478778E-004	43	-1,6589466E-006
2	0	0	1	0	5,785135776075636E+003	2,6422646E+000	2,6417477E+000	-6,733426540893889E-004	1,000000000000000E+000	-5,9688656E-004	43	-1,7788014E-006
2	0	0	1	0	5,985051273655219E+003	2,6222725E+000	2,6217663E+000	-7,298320848260070E-004	1,000000000000000E+000	-7,4935233E-004	43	-1,9134493E-006
2	0	0	1	0	6,184968071234805E+003	2,6022806E+000	2,6016855E+000	-7,620675497158492E-004	1,000000000000000E+000	-9,1289863E-004	42	-1,9826600E-006
2	0	0	1	0	6,384884868814377E+003	2,5822890E+000	2,5816786E+000	-8,193505498579577E-004	1,000000000000000E+000	-1,0868270E-003	42	-2,1152998E-006
2	0	0	1	0	6,584801566393930E+003	2,5622973E+000	2,5616889E+000	-8,737433047350737E-004	1,000000000000000E+000	-1,2710510E-003	42	-2,2382585E-006
2	0	0	1	0	6,784718363973494E+003	2,5423052E+000	2,5417099E+000	-9,256386696058980E-004	1,000000000000000E+000	-1,4655695E-003	42	-2,3527050E-006
2	0	0	1	0	6,984635061553083E+003	2,5223131E+000	2,5217416E+000	-9,763411037603652E-004	1,000000000000000E+000	-1,6704634E-003	42	-2,4620799E-006
2	0	0	1	0	7,184551659132645E+003	2,5023215E+000	2,5017662E+000	-1,019094098573828E-003	1,000000000000000E+000	-1,8858566E-003	42	-2,5495351E-006
2	0	0	1	0	7,384468356712205E+003	2,4823294E+000	2,4817431E+000	-1,075649647700668E-003	1,000000000000000E+000	-2,1120359E-003	42	-2,6694861E-006
2	0	0	1	0	7,584385154291776E+003	2,4623375E+000	2,4617486E+000	-1,133620657089822E-003	1,000000000000000E+000	-2,3490891E-003	42	-2,7906890E-006
2	0	0	1	0	7,784300651871381E+003	2,4423461E+000	2,4417593E+000	-1,185229528256175E-003	1,000000000000000E+000	-2,5971057E-003	42	-2,8940453E-006
2	0	0	1	0	7,984217449450953E+003	2,4223542E+000	2,4217732E+000	-1,242381198720112E-003	1,000000000000000E+000	-2,8571305E-003	42	-3,0087656E-006
2	0	0	1	0	8,184134247030495E+003	2,4023623E+000	2,4017789E+000	-1,317922099475181E-003	1,000000000000000E+000	-3,1295728E-003	42	-3,1653576E-006
2	0	0	1	0	8,384050944610091E+003	2,3823705E+000	2,3817871E+000	-1,391671291262213E-003	1,000000000000000E+000	-3,4157473E-003	42	-3,3146646E-006
2	0	0	1	0	8,583967642189629E+003	2,3623786E+000	2,3617854E+000	-1,454381387364624E-003	1,000000000000000E+000	-3,7162642E-003	42	-3,4349368E-006
2	0	0	1	0	8,783884439769201E+003	2,3423867E+000	2,3418176E+000	-1,540320622670472E-003	1,000000000000000E+000	-4,0322118E-003	42	-3,6071499E-006
2	0	0	1	0	8,983800037348788E+003	2,3223948E+000	2,3217945E+000	-1,624627066489913E-003	1,000000000000000E+000	-4,3649869E-003	42	-3,7720501E-006
2	0	0	1	0	9,183716734928348E+003	2,3024030E+000	2,3018272E+000	-1,712925980499998E-003	1,000000000000000E+000	-4,7157719E-003	42	-3,9428596E-006
2	0	0	1	0	9,383633532507927E+003	2,2824111E+000	2,2818317E+000	-1,829785329935576E-003	1,000000000000000E+000	-5,0868560E-003	42	-4,1752623E-006
2	0	0	1	0	9,583550230087509E+003	2,2624192E+000	2,2618182E+000	-1,945651154651104E-003	1,000000000000000E+000	-5,4804455E-003	42	-4,4007093E-006
2	0	0	1	0	9,783465827667074E+003	2,2424276E+000	2,2418418E+000	-2,092546939932299E-003	1,000000000000000E+000	-5,8988421E-003	42	-4,6911591E-006
2	0	0	1	0	9,983382625246639E+003	2,2224357E+000	2,2218668E+000	-2,219126496342372E-003	1,000000000000000E+000	-6,3452260E-003	42	-4,9306036E-006
2	0	0	1	0	1,018329932282621E+004	2,2024441E+000	2,2018433E+000	-2,389224799855656E-003	1,000000000000000E+000	-6,8229763E-003	42	-5,2606983E-006
2	0	0	1	0	1,038321602040580E+004	2,1824520E+000	2,1818800E+000	-2,581557088430234E-003	1,000000000000000E+000	-7,3353187E-003	42	-5,6326476E-006
2	0	0	1	0	1,058313281798535E+004	2,1624601E+000	2,1618903E+000	-2,758123010581755E-003	1,000000000000000E+000	-7,8850985E-003	42	-5,9627591E-006
2	0	0	1	0	1,078304961556492E+004	2,1424685E+000	2,1418998E+000	-2,956828271478286E-003	1,000000000000000E+000	-8,4702643E-003	42	-6,3332300E-006
2	0	0	1	0	1,098296511314451E+004	2,1224766E+000	2,1219022E+000	-3,206227117261769E-003	1,000000000000000E+000	-9,0999231E-003	42	-6,8033005E-006
2	0	0	1	0	1,118288191072407E+004	2,1024845E+000	2,1019192E+000	-3,453240686180730E-003	1,000000000000000E+000	-9,7797858E-003	42	-7,2584330E-006
2	0	0	1	0	1,138279860830364E+004	2,0824926E+000	2,0819194E+000	-3,734132210863016E-003	1,000000000000000E+000	-1,0513214E-002	42	-7,7741624E-006
2	0	0	1	0	1,158271540588321E+004	2,0625007E+000	2,0619223E+000	-4,031757655842086E-003	1,000000000000000E+000	-1,1305097E-002	42	-8,3131708E-006
2	0	0	1	0	1,178263100346280E+004	2,0425093E+000	2,0419619E+000	-4,351944108377824E-003	1,000000000000000E+000	-1,2159053E-002	42	-8,8865045E-006
2	0	0	1	0	1,198254770104236E+004	2,0225174E+000	2,0219285E+000	-4,696070634075677E-003	1,000000000000000E+000	-1,3079615E-002	42	-9,4951192E-006
2	0	0	1	0	1,218246439862196E+004	2,0025253E+000	2,0019777E+000	-5,048225106275582E-003	1,000000000000000E+000	-1,4070325E-002	42	-1,0106434E-005
2	0	0	1	0	1,238238179620150E+004	1,9825338E+000	1,9819738E+000	-5,429664706730043E-003	1,000000000000000E+000	-1,5135129E-002	42	-1,0761453E-005
2	0	0	1	0	1,258229979378106E+004	1,9625417E+000	1,9619933E+000	-5,806954445128271E-003	1,000000000000000E+000	-1,6275244E-002	42	-1,1393206E-005
2	0	0	1	0	1,278221709136065E+004	1,9425501E+000	1,9419990E+000	-6,184109586347124E-003	1,000000000000000E+000	-1,7490655E-002	42	-1,2009535E-005
2	0	0	1	0	1,298213438894021E+004	1,9225582E+000	1,9220045E+000	-6,564238022938727E-003	1,000000000000000E+000	-1,8781977E-002	42	-1,2616495E-005
2	0	0	1	0	1,318205238651976E+004	1,9025663E+000	1,9020298E+000	-6,945423645211724E-003	1,000000000000000E+000	-2,0147799E-002	42	-1,3210402E-005
2	0	0	1	0	1,338197038409932E+004	1,8825744E+000	1,8820276E+000	-7,319829162342695E-003	1,000000000000000E+000	-2,1588923E-002	42	-1,3776121E-005
2	0	0	1	0	1,358188828167887E+004	1,8625826E+000	1,8620417E+000	-7,714871159140463E-003	1,000000000000000E+000	-2,3107275E-002	42	-1,4365412E-005
2	0	0	1	0	1,378180557925840E+004	1,8425907E+000	1,8420681E+000	-8,111252698937588E-003	1,000000000000000E+000	-2,4705587E-002	42	-1,4941480E-005
2	0	0	1	0	1,398172297683801E+004	1,8225989E+000	1,8220552E+000	-8,555832007646147E-003	1,000000000000000E+000	-2,6388172E-002	42	-1,5589198E-005
2	0	0	1	0	1,418164087441756E+004	1,8026068E+000	1,8021120E+000	-9,018986822537045E-003	1,000000000000000E+000	-2,8161259E-002	42	-1,6253225E-005
2	0	0	1	0	1,438155887199711E+004	1,7826151E+000	1,7820845E+000	-9,542679591963490E-003	1,000000000000000E+000	-3,0032352E-002	42	-1,7005861E-005
2	0	0	1	0	1,458147616957666E+004	1,7626234E+000	1,7620245E+000	-1,012693413677404E-002	1,000000000000000E+000	-3,2017246E-002	41	-1,7843906E-005
2	0	0	1	0	1,478139416715619E+004	1,7426316E+000	1,7420028E+000	-1,075691770986861E-002	1,000000000000000E+000	-3,4121115E-002	41	-1,8738581E-005
2	0	0	1	0	1,498131146473575E+004	1,7226396E+000	1,7220396E+000	-1,142570551715708E-002	1,000000000000000E+000	-3,6354497E-002	41	-1,9675517E-005
2	0	0	1	0	1,518122946231531E+004	1,7026477E+000	1,7020522E+000	-1,211852638318003E-002	1,000000000000000E+000	-3,8724553E-002	41	-2,0626365E-005
2	0	0	1	0	1,538114735989487E+004	1,6826560E+000	1,6820976E+000	-1,287958881772867E-002	1,000000000000000E+000	-4,1239616E-002	41	-2,1664724E-005
2	0	0	1	0	1,558106535747442E+004	1,6626641E+000	1,6620455E+000	-1,375330534498362E-002	1,000000000000000E+000	-4,3918453E-002	41	-2,2858620E-005
2	0	0	1	0	1,578098325505397E+004	1,6426721E+000	1,6420674E+000	-1,483130694915749E-002	1,000000000000000E+000	-4,6786644E-002	41	-2,4354005E-005
2	0	0	1	0	1,598090055263354E+004	1,6226804E+000	1,6220732E+000	-1,619073878065530E-002	1,000000000000000E+000	-4,9894810E-002	41	-2,6262564E-005
2	0	0	1	0	1,618081795021310E+004	1,6026887E+000	1,6020961E+000	-1,819129286886676E-002	1,000000000000000E+000	-5,3336177E-002	41	-2,9144199E-005
2	0	0	1	0	1,638073594779265E+004	1,5826968E+000	1,5820867E+000	-2,126294176583673E-002	1,000000000000000E+000	-5,7273682E-002	41	-3,3639815E-005
2	0	0	1	0	1,658065384537220E+004	1,5627048E+000	1,5621005E+000	-2,652274029567969E-002	1,000000000000000E+000	-6,2015962E-002	41	-4,1431187E-005
2	0	0	1	0	1,678057114295173E+004	1,5427132E+000	1,5421294E+000	-3,969072905467703E-002	1,000000000000000E+000	-6,8400554E-002	41	-6,1208237E-005
2	0	0	1	0	1,698048914053128E+004	1,5227213E+000	1,5221919E+000	-6,548370623334754E-002	1,000000000000000E+000	-7,8967609E-002	41	-9,9678764E-005
2	0	0	1	0	1,718040653811090E+004	1,5027293E+000	1,5021831E+000	-7,710153063313263E-002	1,000000000000000E+000	-9,3587615E-002	41	-1,1582061E-004
2	0	0	1	0	1,738032443569045E+004	1,4827374E+000	1,4821867E+000	-6,823850568380041E-002	1,000000000000000E+000	-1,0842353E-001	41	-1,0114221E-004
2	0	0	1	0	1,758024233327000E+004	1,4627457E+000	1,4621811E+000	-5,153266101094012E-002	1,000000000000000E+000	-1,2037326E-001	41	-7,5350079E-005
2	0	0	1	0	1,778015973084955E+004	1,4427539E+000	1,4421730E+000	-4,085626570420309E-002	1,000000000000000E+000	-1,2951027E-001	41	-5,8921803E-005
2	0	0	1	0	1,798007762842911E+004	1,4227622E+000	1,4221649E+000	-3,533719763893090E-002	1,000000000000000E+000	-1,3708320E-001	41	-5,0255323E-005
2	0	0	1	0	1,817999502600869E+004	1,4027702E+000	1,4021933E+000	-3,246822634143554E-002	1,000000000000000E+000	-1,4384712E-001	41	-4,5526729E-005
2	0	0	1	0	1,837991292358830E+004	1,3827783E+000	1,3821626E+000	-3,104772063863744E-002	1,000000000000000E+000	-1,5019418E-001	41	-4,2912998E-005
2	0	0	1	0	1,857983092116786E+004	1,3627864E+000	1,3621947E+000	-3,057053539349086E-002	1,000000000000000E+000	-1,5636002E-001	41	-4,1643019E-005
2	0	0	1	0	1,877974821874735E+004	1,3427947E+000	1,3421818E+000	-3,076470046114246E-002	1,000000000000000E+000	-1,6249909E-001	41	-4,1291820E-005
2	0	0	1	0	1,897966561632691E+004	1,3228028E+000	1,3221941E+000	-3,150923475958795E-002	1,000000000000000E+000	-1,6873315E-001	41	-4,1661326E-005
2	0	0	1	0	1,917958351390646E+004	1,3028109E+000	1,3021876E+000	-3,271256529866229E-002	1,000000000000000E+000	-1,7516313E-001	41	-4,2597894E-005
2	0	0	1	0	1,937950151148601E+004	1,2828192E+000	1,2822192E+000	-3,420383524056148E-002	1,000000000000000E+000	-1,8186302E-001	41	-4,3856813E-005
2	0	0	1	0	1,957941880906560E+004	1,2628273E+000	1,2622552E+000	-3,561056705015753E-002	1,000000000000000E+000	-1,8886778E-001	41	-4,4949622E-005
2	0	0	1	0	1,977933670664509E+004	1,2428354E+000	1,2422218E+000	-3,701925776080761E-002	1,000000000000000E+000	-1,9615176E-001	41	-4,5986129E-005
2	0	0	1	0	1,997925410422470E+004	1,2228435E+000	1,2222352E+000	-3,793998025781914E-002	1,000000000000000E+000	-2,0367064E-001	41	-4,6371581E-005
2	0	0	1	0	2,017917210180426E+004	1,2028517E+000	1,2022281E+000	-3,831739420668634E-002	1,000000000000000E+000	-2,1132077E-001	41	-4,6066249E-005
2	0	0	1	0	2,037908999938381E+004	1,1828598E+000	1,1822776E+000	-3,832763181315624E-002	1,000000000000000E+000	-2,1900360E-001	41	-4,5313900E-005
2	0	0	1	0	2,057900729696336E+004	1,1628680E+000	1,1622440E+000	-3,814292298433103E-002	1,000000000000000E+000	-2,2666878E-001	41	-4,4331380E-005
2	0	0	1	0	2,077892529454292E+004	1,1428761E+000	1,1422803E+000	-3,793156682737731E-002	1,000000000000000E+000	-2,3429397E-001	41	-4,3328484E-005
2	0	0	1	0	2,097884269212256E+004	1,1228843E+000	1,1222589E+000	-3,764282183024086E-002	1,000000000000000E+000	-2,4186581E-001	41	-4,2244992E-005
2	0	0	1	0	2,117876058970205E+004	1,1028924E+000	1,1022706E+000	-3,742428534781916E-002	1,000000000000000E+000	-2,4938394E-001	41	-4,1251689E-005
2	0	0	1	0	2,137867848728166E+004	1,0829006E+000	1,0822990E+000	-3,739846944724295E-002	1,000000000000000E+000	-2,5687864E-001	41	-4,0476327E-005
2	0	0	1	0	2,157859588486116E+004	1,0629086E+000	1,0622890E+000	-3,753764611966975E-002	1,000000000000000E+000	-2,6438835E-001	41	-3,9875827E-005
2	0	0	1	0	2,177851318244071E+004	1,0429169E+000	1,0423135E+000	-3,771544682460015E-002	1,000000000000000E+000	-2,7192739E-001	41	-3,9311319E-005
2	0	0	1	0	2,197843118002027E+004	1,0229251E+000	1,0222965E+000	-3,798412145968232E-002	1,000000000000000E+000	-2,7951115E-001	41	-3,8831036E-005
2	0	0	1	0	2,217834907759982E+004	1,0029333E+000	1,0023259E+000	-3,823277111227297E-002	1,000000000000000E+000	-2,8714544E-001	41	-3,8321698E-005
2	0	0	1	0	2,236327437536092E+004	1,0155280E+000	1,0148835E+000	-2,403446530453729E-002	1,000000000000000E+000	-2,9280975E-001	41	-2,4392182E-005
2	0	0	1	0	2,256319357294045E+004	1,0355200E+000	1,0348862E+000	-1,617000450536622E-002	1,000000000000000E+000	-2,9673618E-001	41	-1,6734115E-005
2	0	0	1	0	2,276311207051994E+004	1,0555117E+000	1,0548940E+000	-1,133184010340899E-002	1,000000000000000E+000	-2,9942915E-001	41	-1,1953890E-005
2	0	0	1	0	2,296303126809953E+004	1,0755037E+000	1,0748719E+000	-8,254048797467772E-003	1,000000000000000E+000	-3,0134699E-001	41	-8,8720453E-006
2	0	0	1	0	2,316294976567908E+004	1,0954955E+000	1,0948758E+000	-6,070717737021395E-003	1,000000000000000E+000	-3,0276039E-001	41	-6,6466819E-006
2	0	0	1	0	2,336286886325863E+004	1,1154873E+000	1,1149224E+000	-4,386525799526350E-003	1,000000000000000E+000	-3,0377871E-001	42	-4,8906359E-006
2	0	0	1	0	2,356278806083824E+004	1,1354792E+000	1,1348709E+000	-3,116232895641585E-003	1,000000000000000E+000	-3,0450678E-001	42	-3,5365219E-006
2	0	0	1	0	2,376270655841770E+004	1,1554711E+000	1,1548687E+000	-2,107326739332678E-003	1,000000000000000E+000	-3,0501080E-001	42	-2,4336857E-006
2	0	0	1	0	2,396262565599725E+004	1,1754628E+000	1,1748610E+000	-1,311556216294205E-003	1,000000000000000E+000	-3,0533597E-001	42	-1,5408962E-006
2	0	0	1	0	2,416254425357684E+004	1,1954547E+000	1,1948825E+000	-6,145240684463354E-004	1,000000000000000E+000	-3,0551398E-001	43	-7,3428407E-007
2	0	0	1	0	2,436246335115633E+004	1,2154466E+000	1,2148116E+000	-5,764087331343922E-005	1,000000000000000E+000	-3,0556783E-001	43	-7,0022800E-008
2	1	0	1	0	2,456238254873588E+004	1,2354383E+000	1,2347435E+000	4,626884357210358E-004	1,000000000000000E+000	-3,0551371E-001	43	5,7130154E-007
2	1	0	1	0	2,476230104631544E+004	1,2554302E+000	1,2547684E+000	9,352045525605887E-004	1,000000000000000E+000	-3,0535904E-001	42	1,1734651E-006
2	1	0	1	0	2,496221964389505E+004	1,2754221E+000	1,2747504E+000	1,369432177030516E-003	1,000000000000000E+000	-3,0511311E-001	42	1,7456841E-006
2	1	0	1	0	2,516213874147452E+004	1,2954140E+000	1,2947464E+000	1,784027073448513E-003	1,000000000000000E+000	-3,0478409E-001	42	2,3098626E-006
2	1	0	1	0	2,536205783905409E+004	1,3154058E+000	1,3147415E+000	2,149182744618013E-003	1,000000000000000E+000	-3,0437750E-001	42	2,8256197E-006
2	1	0	1	0	2,556197643663360E+004	1,3353975E+000	1,3347174E+000	2,519820743534504E-003	1,000000000000000E+000	-3,0389667E-001	42	3,3632487E-006
2	1	0	1	0	2,576189553421322E+004	1,3553895E+000	1,3547024E+000	2,856355011439674E-003	1,000000000000000E+000	-3,0334526E-001	42	3,8695107E-006
2	1	0	1	0	2,596181403179269E+004	1,3753812E+000	1,3747169E+000	3,196231529252979E-003	1,000000000000000E+000	-3,0272508E-001	42	4,3939135E-006
2	1	0	1	0	2,616173322937230E+004	1,3953732E+000	1,3946898E+000	3,534428168140910E-003	1,000000000000000E+000	-3,0203885E-001	42	4,9294308E-006
2	1	0	1	0	2,636165232695177E+004	1,4153651E+000	1,4147047E+000	3,862658736457292E-003	1,000000000000000E+000	-3,0128634E-001	42	5,4645216E-006
2	1	0	1	0	2,656157082453131E+004	1,4353569E+000	1,4346707E+000	4,184216310615878E-003	1,000000000000000E+000	-3,0046812E-001	42	6,0029724E-006
2	1	0	1	0	2,676148942211090E+004	1,4553486E+000	1,4546541E+000	4,528796258333911E-003	1,000000000000000E+000	-2,9958332E-001	42	6,5878321E-006
2	1	0	1	0	2,696140861969042E+004	1,4753406E+000	1,4746333E+000	4,886846095106631E-003	1,000000000000000E+000	-2,9862928E-001	42	7,2063062E-006
2	1	0	1	0	2,716132771726995E+004	1,4953324E+000	1,4946492E+000	5,251069109451454E-003	1,000000000000000E+000	-2,9760155E-001	42	7,8485064E-006
2	1	0	1	0	2,736124681484955E+004	1,5153244E+000	1,5145832E+000	5,719920962953179E-003	1,000000000000000E+000	-2,9649094E-001	42	8,6632963E-006
2	1	0	1	0	2,756116541242902E+004	1,5353161E+000	1,5345781E+000	6,415729888142728E-003	1,000000000000000E+000	-2,9526937E-001	42	9,8454384E-006
2	1	0	1	0	2,776108391000858E+004	1,5553079E+000	1,5545557E+000	7,506334366098308E-003	1,000000000000000E+000	-2,9386917E-001	42	1,1669014E-005
2	1	0	1	0	2,796100300758815E+004	1,5752997E+000	1,5746578E+000	1,532675865398664E-002	1,000000000000000E+000	-2,9188854E-001	41	2,4134401E-005
2	1	0	1	0	2,816092220516768E+004	1,5952917E+000	1,5946134E+000	3,711253496549621E-002	1,000000000000000E+000	-2,8663439E-001	41	5,9180147E-005
2	1	0	1	0	2,836084070274723E+004	1,6152836E+000	1,6145995E+000	5,169881462699413E-002	1,000000000000000E+000	-2,7752721E-001	41	8,3472878E-005
2	1	0	1	0	2,856075980032676E+004	1,6352752E+000	1,6345960E+000	5,203501574170422E-002	1,000000000000000E+000	-2,6690647E-001	41	8,5056228E-005
2	1	0	1	0	2,876067839790636E+004	1,6552671E+000	1,6545969E+000	4,226315131619340E-002	1,000000000000000E+000	-2,5739741E-001	41	6,9928479E-005
2	1	0	1	0	2,896059749548584E+004	1,6752590E+000	1,6746076E+000	3,382747589726331E-002	1,000000000000000E+000	-2,4985068E-001	41	5,6647750E-005
2	1	0	1	0	2,916051669306541E+004	1,6952507E+000	1,6945997E+000	2,884992553181778E-002	1,000000000000000E+000	-2,4361387E-001	41	4,8889076E-005
2	1	0	1	0	2,936043579064493E+004	1,7152426E+000	1,7145908E+000	2,573303510144231E-002	1,000000000000000E+000	-2,3816176E-001	41	4,4121625E-005
2	1	0	1	0	2,956035498822446E+004	1,7352346E+000	1,7345994E+000	2,339332307798975E-002	1,000000000000000E+000	-2,3324499E-001	41	4,0578045E-005
2	1	0	1	0	2,976027348580401E+004	1,7552265E+000	1,7546163E+000	2,138436139497379E-002	1,000000000000000E+000	-2,2876053E-001	41	3,7521349E-005
2	1	0	1	0	2,996019198338356E+004	1,7752184E+000	1,7745986E+000	1,970785882411152E-002	1,000000000000000E+000	-2,2464153E-001	41	3,4973538E-005
2	1	0	1	0	3,016011118096310E+004	1,7952101E+000	1,7945862E+000	1,829689961024039E-002	1,000000000000000E+000	-2,2083074E-001	41	3,2835364E-005
2	1	0	1	0	3,036003027854266E+004	1,8152018E+000	1,8145443E+000	1,708549437501535E-002	1,000000000000000E+000	-2,1728264E-001	41	3,1002386E-005
2	1	0	1	0	3,055994877612218E+004	1,8351938E+000	1,8345728E+000	1,600613990820830E-002	1,000000000000000E+000	-2,1396175E-001	41	2,9364428E-005
2	1	0	1	0	3,075986797370180E+004	1,8551856E+000	1,8545583E+000	1,510381562834129E-002	1,000000000000000E+000	-2,1083473E-001	41	2,8010907E-005
2	1	0	1	0	3,095978647128126E+004	1,8751773E+000	1,8745419E+000	1,421835887892675E-002	1,000000000000000E+000	-2,0789136E-001	41	2,6652910E-005
2	1	0	1	0	3,115970566886081E+004	1,8951694E+000	1,8945299E+000	1,333161576789543E-002	1,000000000000000E+000	-2,0511883E-001	41	2,5257144E-005
2	1	0	1	0	3,135962476644035E+004	1,9151613E+000	1,9145374E+000	1,263732567599798E-002	1,000000000000000E+000	-2,0250103E-001	41	2,4194633E-005
2	1	0	1	0	3,155954336401992E+004	1,9351530E+000	1,9345162E+000	1,197436905695115E-002	1,000000000000000E+000	-2,0003745E-001	41	2,3164610E-005
2	1	0	1	0	3,175946246159944E+004	1,9551450E+000	1,9545130E+000	1,106236033825420E-002	1,000000000000000E+000	-1,9772208E-001	41	2,1621527E-005
2	1	0	1	0	3,195938095917901E+004	1,9751366E+000	1,9745072E+000	1,023653535194990E-002	1,000000000000000E+000	-1,9557963E-001	41	2,0212114E-005
2	1	0	1	0	3,215930015675857E+004	1,9951285E+000	1,9945362E+000	9,466905109610749E-003	1,000000000000000E+000	-1,9359766E-001	41	1,8882085E-005
2	1	0	1	0	3,235921985433815E+004	2,0151205E+000	2,0145419E+000	8,766981582931460E-003	1,000000000000000E+000	-1,9176352E-001	41	1,7661452E-005
2	1	0	1	0	3,255913895191762E+004	2,0351121E+000	2,0345213E+000	8,158669870383314E-003	1,000000000000000E+000	-1,9006072E-001	41	1,6598988E-005
2	1	0	1	0	3,275905694949720E+004	2,0551038E+000	2,0544844E+000	7,630318796590208E-003	1,000000000000000E+000	-1,8847033E-001	41	1,5676371E-005
2	1	0	1	0	3,295897604974470E+004	2,0750957E+000	2,0744832E+000	7,176253992698688E-003	1,000000000000000E+000	-1,8697640E-001	41	1,4887018E-005
2	1	0	1	0	3,315889515011705E+004	2,0950875E+000	2,0944815E+000	6,801953480040181E-003	1,000000000000000E+000	-1,8556646E-001	41	1,4246565E-005
2	1	0	1	0	3,335881435048953E+004	2,1150792E+000	2,1144898E+000	6,453506114366160E-003	1,000000000000000E+000	-1,8422920E-001	41	1,3645873E-005
2	1	0	1	0	3,355873235086189E+004	2,1350713E+000	2,1344638E+000	6,140230523323020E-003	1,000000000000000E+000	-1,8295553E-001	41	1,3106100E-005
2	1	0	1	0	3,375865145123430E+004	2,1550629E+000	2,1544712E+000	5,883499243220111E-003	1,000000000000000E+000	-1,8174116E-001	41	1,2675830E-005
2	1	0	1	0	3,395857055160659E+004	2,1750550E+000	2,1744545E+000	5,625086826971340E-003	1,000000000000000E+000	-1,8057948E-001	41	1,2231495E-005
2	1	0	1	0	3,415848975197901E+004	2,1950471E+000	2,1944485E+000	5,394336220715099E-003	1,000000000000000E+000	-1,7946529E-001	41	1,1837593E-005
2	1	0	1	0	3,435840885235136E+004	2,2150385E+000	2,2144411E+000	5,191372060094929E-003	1,000000000000000E+000	-1,7839429E-001	41	1,1495988E-005
2	1	0	1	0	3,455832795272372E+004	2,2350307E+000	2,2344553E+000	5,013256411846564E-003	1,000000000000000E+000	-1,7736182E-001	41	1,1201898E-005
2	1	0	1	0	3,475924615309795E+004	2,2551227E+000	2,2544715E+000	4,851743955228839E-003	1,000000000000000E+000	-1,7635942E-001	42	1,0938119E-005
2	1	0	1	0	3,495916525347042E+004	2,2751141E+000	2,2744834E+000	4,715631393814715E-003	1,000000000000000E+000	-1,7539148E-001	42	1,0725626E-005
2	1	0	1	0	3,515908435384277E+004	2,2951059E+000	2,2944493E+000	4,581996415250061E-003	1,000000000000000E+000	-1,7445080E-001	42	1,0513158E-005
2	1	0	1	0	3,535900235421513E+004	2,3150978E+000	2,3144605E+000	4,454817213078353E-003	1,000000000000000E+000	-1,7353535E-001	42	1,0310499E-005
2	1	0	1	0	3,555892145458751E+004	2,3350894E+000	2,3344421E+000	4,342852276341770E-003	1,000000000000000E+000	-1,7264333E-001	42	1,0138137E-005
2	1	0	1	0	3,575884055495990E+004	2,3550813E+000	2,3544495E+000	4,242474610216734E-003	1,000000000000000E+000	-1,7177148E-001	42	9,9886920E-006
2	1	0	1	0	3,595875855533220E+004	2,3750734E+000	2,3744433E+000	4,156311480073196E-003	1,000000000000000E+000	-1,7091906E-001	42	9,8689261E-006
2	1	0	1	0	3,615867765570455E+004	2,3950648E+000	2,3944204E+000	4,091368048279150E-003	1,000000000000000E+000	-1,7008254E-001	42	9,7964548E-006
2	1	0	1	0	3,635859675607708E+004	2,4150574E+000	2,4144251E+000	4,027872190374357E-003	1,000000000000000E+000	-1,6925932E-001	42	9,7249958E-006
2	1	0	1	0	3,655851595644932E+004	2,4350491E+000	2,4344113E+000	3,973890753734347E-003	1,000000000000000E+000	-1,6844806E-001	42	9,6740841E-006
2	1	0	1	0	3,675843505682168E+004	2,4550405E+000	2,4544153E+000	3,922035359127218E-003	1,000000000000000E+000	-1,6764624E-001	42	9,6263038E-006
2	1	0	1	0	3,695835425719409E+004	2,4750323E+000	2,4744029E+000	3,897122619518037E-003	1,000000000000000E+000	-1,6685191E-001	42	9,6430513E-006
2	1	0	1	0	3,715827335756645E+004	2,4950242E+000	2,4943876E+000	3,863127234529227E-003	1,000000000000000E+000	-1,6606390E-001	42	9,6361364E-006
2	1	0	1	0	3,735819135793889E+004	2,5150161E+000	2,5143933E+000	3,847169155851760E-003	1,000000000000000E+000	-1,6528031E-001	42	9,6732965E-006
2	1	0	1	0	3,755811045831116E+004	2,5350080E+000	2,5343766E+000	3,820044766637054E-003	1,000000000000000E+000	-1,6450126E-001	42	9,6814319E-006
2	1	0	1	0	3,775802955868375E+004	2,5549998E+000	2,5543995E+000	3,805949318954800E-003	1,000000000000000E+000	-1,6372597E-001	42	9,7219154E-006
2	1	0	1	0	3,795794755905599E+004	2,5749919E+000	2,5743978E+000	3,790956249074027E-003	1,000000000000000E+000	-1,6295440E-001	42	9,7594293E-006
2	1	0	1	0	3,815786665942846E+004	2,5949831E+000	2,5943661E+000	3,778831555671974E-003	1,000000000000000E+000	-1,6218567E-001	42	9,8036726E-006
2	1	0	1	0	3,835778575980081E+004	2,6149757E+000	2,6143701E+000	3,787685278911768E-003	1,000000000000000E+000	-1,6141734E-001	42	9,9024110E-006
2	1	0	1	0	3,855770496017323E+004	2,6349678E+000	2,6343384E+000	3,768084396647615E-003	1,000000000000000E+000	-1,6064990E-001	42	9,9264089E-006
2	1	0	1	0	3,875762406054564E+004	2,6549590E+000	2,6543477E+000	3,790816942369098E-003	1,000000000000000E+000	-1,5988135E-001	42	1,0062146E-005
2	1	0	1	0	3,895754316091794E+004	2,6749513E+000	2,6743581E+000	3,843713013791925E-003	1,000000000000000E+000	-1,5910642E-001	42	1,0279465E-005
2	1	0	1	0	3,915746116129024E+004	2,6949430E+000	2,6943505E+000	3,993876477829630E-003	1,000000000000000E+000	-1,5831065E-001	42	1,0760903E-005
2	1	0	1	1	3,934338496163650E+004	2,6864462E+000	2,6858325E+000	2,268227836434399E-003	2,000000000000000E+000	-1,5773544E-001	42	6,0920802E-006
2	1	0	1	1	3,954330376200902E+004	2,6664546E+000	2,6658816E+000	1,393355472936283E-003	2,000000000000000E+000	-1,5739146E-001	42	3,7145207E-006
2	1	0	1	1	3,974322046238137E+004	2,6464629E+000	2,6458790E+000	8,716808522196942E-004	2,000000000000000E+000	-1,5718244E-001	42	2,3063621E-006
2	1	0	1	1	3,994313596275379E+004	2,6264708E+000	2,6258593E+000	5,198392341906389E-004	2,000000000000000E+000	-1,5705754E-001	43	1,3650247E-006
2	1	0	1	1	4,014305276312609E+004	2,6064792E+000	2,6058617E+000	2,800754247742065E-004	2,000000000000000E+000	-1,5698941E-001	43	7,2983784E-007
2	1	0	1	1	4,034296956349863E+004	2,5864873E+000	2,5858939E+000	1,108370585148027E-004	2,000000000000000E+000	-1,5696263E-001	43	2,8661287E-007
2	0	0	1	1	4,054288626387087E+004	2,5664954E+000	2,5659215E+000	-2,027923868086739E-005	2,000000000000000E+000	-1,5696754E-001	44	-5,2034935E-008
2	0	0	1	1	4,074280306424317E+004	2,5465035E+000	2,5459316E+000	-1,639365767689242E-004	2,000000000000000E+000	-1,5699869E-001	43	-4,1737130E-007
2	0	0	1	1	4,094271976461564E+004	2,5265119E+000	2,5259454E+000	-2,608333029394543E-004	2,000000000000000E+000	-1,5705103E-001	43	-6,5885069E-007
2	0	0	1	1	4,114263656498794E+004	2,5065198E+000	2,5059702E+000	-3,469676236934256E-004	2,000000000000000E+000	-1,5712158E-001	43	-8,6949052E-007
2	0	0	1	1	4,134255216536042E+004	2,4865279E+000	2,4859946E+000	-4,219839469603978E-004	2,000000000000000E+000	-1,5720908E-001	43	-1,0490498E-006
2	0	0	1	1	4,154246886573266E+004	2,4665360E+000	2,4660094E+000	-4,982783326373703E-004	2,000000000000000E+000	-1,5731186E-001	43	-1,2287591E-006
2	0	0	1	1	4,174238556610525E+004	2,4465442E+000	2,4460270E+000	-5,719424156022100E-004	2,000000000000000E+000	-1,5742883E-001	43	-1,3989866E-006
2	0	0	1	1	4,194230116647761E+004	2,4265525E+000	2,4260671E+000	-6,360887868515968E-004	2,000000000000000E+000	-1,5755899E-001	43	-1,5431941E-006
2	0	0	1	1	4,214221796684992E+004	2,4065609E+000	2,4060476E+000	-6,908029177451359E-004	2,000000000000000E+000	-1,5770155E-001	43	-1,6621046E-006
2	0	0	1	1	4,234213466722216E+004	2,3865683E+000	2,3860605E+000	-7,518253772530441E-004	2,000000000000000E+000	-1,5785587E-001	43	-1,7939008E-006
2	0	0	1	1	4,254205146759446E+004	2,3665767E+000	2,3659961E+000	-7,996813928914555E-004	2,000000000000000E+000	-1,5802190E-001	42	-1,8920431E-006
2	0	0	1	1	4,274196816796693E+004	2,3465850E+000	2,3460412E+000	-8,545768098457626E-004	2,000000000000000E+000	-1,5819898E-001	42	-2,0048724E-006
2	0	0	1	1	4,294188496833935E+004	2,3265929E+000	2,3260238E+000	-9,114084147187930E-004	2,000000000000000E+000	-1,5838733E-001	42	-2,1199576E-006
2	0	0	1	1	4,314180046871168E+004	2,3066013E+000	2,3060334E+000	-9,655890286089618E-004	2,000000000000000E+000	-1,5858726E-001	42	-2,2266806E-006
2	0	0	1	1	4,334171726908407E+004	2,2866094E+000	2,2860420E+000	-1,017346123144466E-003	2,000000000000000E+000	-1,5879902E-001	42	-2,3256960E-006
2	0	0	1	1	4,354163396945642E+004	2,2666173E+000	2,2660379E+000	-1,093721171017154E-003	2,000000000000000E+000	-1,5902378E-001	42	-2,4784138E-006
2	0	0	1	1	4,374155076982878E+004	2,2466257E+000	2,2460403E+000	-1,164738899643606E-003	2,000000000000000E+000	-1,5926251E-001	42	-2,6160506E-006
2	0	0	1	1	4,394146637020120E+004	2,2266343E+000	2,2260602E+000	-1,249496987344070E-003	2,000000000000000E+000	-1,5951580E-001	42	-2,7814554E-006
2	0	0	1	1	4,414138307057362E+004	2,2066419E+000	2,2060766E+000	-1,326767124148779E-003	2,000000000000000E+000	-1,5978558E-001	42	-2,9269499E-006
2	0	0	1	1	4,434129987094604E+004	2,1866500E+000	2,1860683E+000	-1,425023779142115E-003	2,000000000000000E+000	-1,6007379E-001	42	-3,1151992E-006
2	0	0	1	1	4,454121657131822E+004	2,1666584E+000	2,1660736E+000	-1,538362141146313E-003	2,000000000000000E+000	-1,6038311E-001	42	-3,3322056E-006
2	0	0	1	1	4,474113337169075E+004	2,1466665E+000	2,1460838E+000	-1,663954839238034E-003	2,000000000000000E+000	-1,6071606E-001	42	-3,5709866E-006
2	0	0	1	1	4,494105007206311E+004	2,1266744E+000	2,1260939E+000	-1,789550369284566E-003	2,000000000000000E+000	-1,6107519E-001	42	-3,8047522E-006
2	0	0	1	1	4,514096567243547E+004	2,1066828E+000	2,1061141E+000	-1,939554534330697E-003	2,000000000000000E+000	-1,6146232E-001	42	-4,0849231E-006
2	0	0	1	1	4,534088237280780E+004	2,0866909E+000	2,0860984E+000	-2,104810987388940E-003	2,000000000000000E+000	-1,6188064E-001	42	-4,3908431E-006
2	0	0	1	1	4,554079917318025E+004	2,0666990E+000	2,0661147E+000	-2,280599157086359E-003	2,000000000000000E+000	-1,6233280E-001	42	-4,7119793E-006
2	0	0	1	1	4,574071597355255E+004	2,0467072E+000	2,0460975E+000	-2,477101569812665E-003	2,000000000000000E+000	-1,6282208E-001	42	-5,0683911E-006
2	0	0	1	1	4,594063147392496E+004	2,0267155E+000	2,0261247E+000	-2,688751224817869E-003	2,000000000000000E+000	-1,6335225E-001	42	-5,4477455E-006
2	0	0	1	1	4,614054817429744E+004	2,0067236E+000	2,0061543E+000	-2,930898699380256E-003	2,000000000000000E+000	-1,6392832E-001	42	-5,8798350E-006
2	0	0	1	1	4,634046557466965E+004	1,9867318E+000	1,9861269E+000	-3,187160227881696E-003	2,000000000000000E+000	-1,6455346E-001	42	-6,3301045E-006
2	0	0	1	1	4,654038357504224E+004	1,9667399E+000	1,9661427E+000	-3,437333451818066E-003	2,000000000000000E+000	-1,6523039E-001	42	-6,7582878E-006
2	0	0	1	1	4,674030147541454E+004	1,9467481E+000	1,9461610E+000	-3,728713061757941E-003	2,000000000000000E+000	-1,6596226E-001	42	-7,2566759E-006
2	0	0	1	1	4,694021877578681E+004	1,9267565E+000	1,9261898E+000	-4,028996442483138E-003	2,000000000000000E+000	-1,6675104E-001	42	-7,7606119E-006
2	0	0	1	1	4,714013617615920E+004	1,9067645E+000	1,9061667E+000	-4,308643610539023E-003	2,000000000000000E+000	-1,6759980E-001	42	-8,2129927E-006
2	0	0	1	1	4,734005417653156E+004	1,8867726E+000	1,8862127E+000	-4,632346672732393E-003	2,000000000000000E+000	-1,6851038E-001	42	-8,7375911E-006
2	0	0	1	1	4,753997207690391E+004	1,8667809E+000	1,8662081E+000	-4,990351354847204E-003	2,000000000000000E+000	-1,6948682E-001	42	-9,3130338E-006
2	0	0	1	1	4,773988997727638E+004	1,8467889E+000	1,8462033E+000	-5,347635715599194E-003	2,000000000000000E+000	-1,7053497E-001	42	-9,8728233E-006
2	0	0	1	1	4,793980737764877E+004	1,8267971E+000	1,8262180E+000	-5,745048999594111E-003	2,000000000000000E+000	-1,7165940E-001	42	-1,0491712E-005
2	0	0	1	1	4,813972477802099E+004	1,8068053E+000	1,8062398E+000	-6,146422270098609E-003	2,000000000000000E+000	-1,7286299E-001	42	-1,1101913E-005
2	0	0	1	1	4,833964267839340E+004	1,7868133E+000	1,7862500E+000	-6,574889518349683E-003	2,000000000000000E+000	-1,7415036E-001	42	-1,1744396E-005
2	0	0	1	1	4,853956057876581E+004	1,7668216E+000	1,7662832E+000	-7,061479439575635E-003	2,000000000000000E+000	-1,7552736E-001	42	-1,2472572E-005
2	0	0	1	1	4,873947797913826E+004	1,7468297E+000	1,7462870E+000	-7,563046135495074E-003	2,000000000000000E+000	-1,7700282E-001	42	-1,3207249E-005
2	0	0	1	1	4,893939587951056E+004	1,7268379E+000	1,7262883E+000	-8,096125941103222E-003	2,000000000000000E+000	-1,7858139E-001	42	-1,3976248E-005
2	0	0	1	1	4,913931327988300E+004	1,7068460E+000	1,7063003E+000	-8,684876663139662E-003	2,000000000000000E+000	-1,8027264E-001	42	-1,4819007E-005
2	0	0	1	1	4,933923118025530E+004	1,6868542E+000	1,6863393E+000	-9,395328535545852E-003	2,000000000000000E+000	-1,8209468E-001	42	-1,5843711E-005
2	0	0	1	1	4,953914918062766E+004	1,6668622E+000	1,6662046E+000	-1,026548297376276E-002	2,000000000000000E+000	-1,8407431E-001	41	-1,7104394E-005
2	0	0	1	1	4,973906708100019E+004	1,6468705E+000	1,6462282E+000	-1,135676429840561E-002	2,000000000000000E+000	-1,8624668E-001	41	-1,8695826E-005
2	0	0	1	1	4,993898498137249E+004	1,6268786E+000	1,6262019E+000	-1,280601334798913E-002	2,000000000000000E+000	-1,8866587E-001	41	-2,0825162E-005
2	0	0	1	1	5,013890238174482E+004	1,6068870E+000	1,6062562E+000	-1,484277258167277E-002	2,000000000000000E+000	-1,9143067E-001	41	-2,3841296E-005
2	0	0	1	1	5,033881978211721E+004	1,5868950E+000	1,5862490E+000	-1,799505689143960E-002	2,000000000000000E+000	-1,9470465E-001	41	-2,8544640E-005
2	0	0	1	1	5,053873768248956E+004	1,5669032E+000	1,5662845E+000	-2,329914669966437E-002	2,000000000000000E+000	-1,9878635E-001	41	-3,6493093E-005
2	0	0	1	1	5,073865558286197E+004	1,5469114E+000	1,5463020E+000	-3,617336746023936E-002	2,000000000000000E+000	-2,0453878E-001	41	-5,5934950E-005
2	0	0	1	1	5,093857298323442E+004	1,5269196E+000	1,5263448E+000	-5,598122370585523E-002	2,000000000000000E+000	-2,1387516E-001	41	-8,5446649E-005
2	0	0	1	1	5,113849098360678E+004	1,5069276E+000	1,5063549E+000	-6,070209215165678E-002	2,000000000000000E+000	-2,2587024E-001	41	-9,1438895E-005
2	0	0	1	1	5,133840828397905E+004	1,4869359E+000	1,4863572E+000	-5,083488634896308E-002	2,000000000000000E+000	-2,3715401E-001	41	-7,5558797E-005
2	0	0	1	1	5,153832618435146E+004	1,4669439E+000	1,4663754E+000	-4,142118773804992E-002	2,000000000000000E+000	-2,4630956E-001	41	-6,0739010E-005
2	0	0	1	1	5,173824418472394E+004	1,4469521E+000	1,4463797E+000	-3,575722104460732E-002	2,000000000000000E+000	-2,5399822E-001	41	-5,1718518E-005
2	0	0	1	1	5,193816158509627E+004	1,4269602E+000	1,4263394E+000	-3,182718795505846E-002	2,000000000000000E+000	-2,6075166E-001	41	-4,5396373E-005
2	0	0	1	1	5,213807948546880E+004	1,4069682E+000	1,4063636E+000	-2,866667447264659E-002	2,000000000000000E+000	-2,6680115E-001	41	-4,0315768E-005
2	0	0	1	1	5,233799678584095E+004	1,3869765E+000	1,3863617E+000	-2,624012723707327E-002	2,000000000000000E+000	-2,7229765E-001	41	-3,6378307E-005
2	0	0	1	1	5,253791478621331E+004	1,3669846E+000	1,3663409E+000	-2,430651448413851E-002	2,000000000000000E+000	-2,7735946E-001	41	-3,3210985E-005
2	0	0	1	1	5,273783268658584E+004	1,3469929E+000	1,3463801E+000	-2,207631875515970E-002	2,000000000000000E+000	-2,8203788E-001	41	-2,9723116E-005
2	0	0	1	1	5,293775008695811E+004	1,3270010E+000	1,3264090E+000	-1,939692638278367E-002	2,000000000000000E+000	-2,8618380E-001	41	-2,5728257E-005
2	0	0	1	1	5,313766738733050E+004	1,3070092E+000	1,3064320E+000	-1,771059315423179E-002	2,000000000000000E+000	-2,8989318E-001	41	-2,3137685E-005
2	0	0	1	1	5,333758538770286E+004	1,2870173E+000	1,2864591E+000	-1,668544174624842E-002	2,000000000000000E+000	-2,9333574E-001	41	-2,1465139E-005
2	0	0	1	1	5,353750328807521E+004	1,2670256E+000	1,2664400E+000	-1,612381802454348E-002	2,000000000000000E+000	-2,9662368E-001	41	-2,0419850E-005
2	0	0	1	1	5,373742058844760E+004	1,2470336E+000	1,2464740E+000	-1,581228817969993E-002	2,000000000000000E+000	-2,9982421E-001	41	-1,9709607E-005
2	0	0	1	1	5,393733858882007E+004	1,2270417E+000	1,2264649E+000	-1,570655969468821E-002	2,000000000000000E+000	-3,0298474E-001	41	-1,9263543E-005
2	0	0	1	1	5,413725598919229E+004	1,2070500E+000	1,2064825E+000	-1,573982627569072E-002	2,000000000000000E+000	-3,0613950E-001	41	-1,8989826E-005
2	0	0	1	1	5,433717388956470E+004	1,1870581E+000	1,1864809E+000	-1,598886044784807E-002	2,000000000000000E+000	-3,0932054E-001	41	-1,8970477E-005
2	0	0	1	1	5,453709178993711E+004	1,1670663E+000	1,1665007E+000	-1,642293968740421E-002	2,000000000000000E+000	-3,1256720E-001	41	-1,9157371E-005
2	0	0	1	1	5,473700919030956E+004	1,1470745E+000	1,1465178E+000	-1,693470752578319E-002	2,000000000000000E+000	-3,1591088E-001	41	-1,9415942E-005
2	0	0	1	1	5,493692659068201E+004	1,1270826E+000	1,1265124E+000	-1,760878228476484E-002	2,000000000000000E+000	-3,1937331E-001	41	-1,9836512E-005
2	0	0	1	1	5,513684449105430E+004	1,1070908E+000	1,1065243E+000	-1,829297853159442E-002	2,000000000000000E+000	-3,2297233E-001	41	-2,0241627E-005
2	0	0	1	1	5,533676239142660E+004	1,0870988E+000	1,0865601E+000	-1,910642880236227E-002	2,000000000000000E+000	-3,2671610E-001	41	-2,0760284E-005
2	0	0	1	1	5,553668039179896E+004	1,0671068E+000	1,0665356E+000	-1,990874458434164E-002	2,000000000000000E+000	-3,3062527E-001	41	-2,1233385E-005
2	0	0	1	1	5,573659769217129E+004	1,0471151E+000	1,0465406E+000	-2,086244304027546E-002	2,000000000000000E+000	-3,3470830E-001	41	-2,1833393E-005
2	0	0	1	1	5,593651509254373E+004	1,0271233E+000	1,0265601E+000	-2,192411738108302E-002	2,000000000000000E+000	-3,3900052E-001	41	-2,2506423E-005
2	0	0	1	1	5,613643299291615E+004	1,0071316E+000	1,0065674E+000	-2,305073324966120E-002	2,000000000000000E+000	-3,4350491E-001	41	-2,3202116E-005
2	0	0	1	1	5,632335739326430E+004	1,0115297E+000	1,0109595E+000	-1,502210066061510E-002	2,000000000000000E+000	-3,4724551E-001	41	-1,5186735E-005
2	0	0	1	1	5,652327659363672E+004	1,0315216E+000	1,0309386E+000	-9,802516188359839E-003	2,000000000000000E+000	-3,4966242E-001	41	-1,0105792E-005
2	0	0	1	1	5,672319569400907E+004	1,0515134E+000	1,0509423E+000	-6,742361262909460E-003	2,000000000000000E+000	-3,5128215E-001	41	-7,0858327E-006
2	0	0	1	1	5,692311419438152E+004	1,0715053E+000	1,0709782E+000	-4,681587158709061E-003	2,000000000000000E+000	-3,5240245E-001	42	-5,0138774E-006
2	0	0	1	1	5,712303339475370E+004	1,0914972E+000	1,0909642E+000	-3,209608114863325E-003	2,000000000000000E+000	-3,5317716E-001	42	-3,5015676E-006
2	0	0	1	1	5,732295189512626E+004	1,1114889E+000	1,1109158E+000	-2,120188928493569E-003	2,000000000000000E+000	-3,5369277E-001	42	-2,3553514E-006
2	0	0	1	1	5,752287099549855E+004	1,1314808E+000	1,1309081E+000	-1,322191708652332E-003	2,000000000000000E+000	-3,5402253E-001	42	-1,4952774E-006
2	0	0	1	1	5,772279019587091E+004	1,1514726E+000	1,1509551E+000	-6,203388766192501E-004	2,000000000000000E+000	-3,5420704E-001	43	-7,1398216E-007
2	0	0	1	1	5,792270869624335E+004	1,1714643E+000	1,1708907E+000	-8,367623093282752E-005	2,000000000000000E+000	-3,5426733E-001	43	-9,7975722E-008
2	1	0	1	1	5,812262789661577E+004	1,1914563E+000	1,1908367E+000	4,570057452145653E-004	2,000000000000000E+000	-3,5421857E-001	43	5,4421918E-007
2	1	0	1	1	5,832254639698804E+004	1,2114481E+000	1,2108562E+000	9,857928733582218E-004	2,000000000000000E+000	-3,5406527E-001	42	1,1936534E-006
2	1	0	1	1	5,852246559736039E+004	1,2314401E+000	1,2308336E+000	1,482169391799740E-003	2,000000000000000E+000	-3,5380873E-001	42	1,8243039E-006
2	1	0	1	1	5,872238469773275E+004	1,2514319E+000	1,2508209E+000	1,924202708069693E-003	2,000000000000000E+000	-3,5345718E-001	42	2,4068329E-006
2	1	0	1	1	5,892230319810519E+004	1,2714238E+000	1,2708043E+000	2,382711347123478E-003	2,000000000000000E+000	-3,5301587E-001	42	3,0279598E-006
2	1	0	1	1	5,912222179847758E+004	1,2914156E+000	1,2907765E+000	2,809918410139896E-003	2,000000000000000E+000	-3,5248417E-001	42	3,6269766E-006
2	1	0	1	1	5,932214089885005E+004	1,3114074E+000	1,3108014E+000	3,154041984800505E-003	2,000000000000000E+000	-3,5187402E-001	42	4,1343228E-006
2	1	0	1	1	5,952205999922240E+004	1,3313992E+000	1,3307717E+000	3,455604196613486E-003	2,000000000000000E+000	-3,5120276E-001	42	4,5986203E-006
2	1	0	1	1	5,972197859959467E+004	1,3513912E+000	1,3507735E+000	3,750237645015706E-003	2,000000000000000E+000	-3,5047269E-001	42	5,0657213E-006
2	1	0	1	1	5,992189769996714E+004	1,3713826E+000	1,3707426E+000	4,049550837373649E-003	2,000000000000000E+000	-3,4968263E-001	42	5,5508917E-006
2	1	0	1	1	6,012181630033941E+004	1,3913747E+000	1,3907319E+000	4,356512513835800E-003	2,000000000000000E+000	-3,4883210E-001	42	6,0587408E-006
2	1	0	1	1	6,032173540071188E+004	1,4113666E+000	1,4107542E+000	4,711759821827859E-003	2,000000000000000E+000	-3,4791857E-001	42	6,6471348E-006
2	1	0	1	1	6,052165460108418E+004	1,4313585E+000	1,4307003E+000	5,078058509057015E-003	2,000000000000000E+000	-3,4692898E-001	42	7,2651796E-006
2	1	0	1	1	6,072157310145663E+004	1,4513502E+000	1,4506888E+000	5,401024285678541E-003	2,000000000000000E+000	-3,4587154E-001	42	7,8352059E-006
2	1	0	1	1	6,092149220182898E+004	1,4713422E+000	1,4706584E+000	5,691445496360248E-003	2,000000000000000E+000	-3,4475148E-001	42	8,3701725E-006
2	1	0	1	1	6,112141080220137E+004	1,4913338E+000	1,4907116E+000	5,899878737469888E-003	2,000000000000000E+000	-3,4358299E-001	42	8,7950175E-006
2	1	0	1	1	6,132132990257372E+004	1,5113257E+000	1,5106711E+000	6,198620416783490E-003	2,000000000000000E+000	-3,4236619E-001	42	9,3640774E-006
2	1	0	1	1	6,152124900294619E+004	1,5313177E+000	1,5306894E+000	6,647438539252107E-003	2,000000000000000E+000	-3,4107623E-001	42	1,0175164E-005
2	1	0	1	1	6,172116760331852E+004	1,5513096E+000	1,5506328E+000	7,501910813699053E-003	2,000000000000000E+000	-3,3965662E-001	42	1,1632709E-005
2	1	0	1	1	6,192108610369090E+004	1,5713015E+000	1,5707109E+000	1,010915670853818E-002	2,000000000000000E+000	-3,3797330E-001	42	1,5878562E-005
2	1	0	1	1	6,212100520406337E+004	1,5912932E+000	1,5907182E+000	2,394194499851446E-002	2,000000000000000E+000	-3,3470571E-001	41	3,8084887E-005
2	1	0	1	1	6,232092440443567E+004	1,6112850E+000	1,6106791E+000	3,920210540064432E-002	2,000000000000000E+000	-3,2832408E-001	41	6,3142012E-005
2	1	0	1	1	6,252084300480806E+004	1,6312771E+000	1,6306362E+000	4,842034295759134E-002	2,000000000000000E+000	-3,1942201E-001	41	7,8955964E-005
2	1	0	1	1	6,272076210518042E+004	1,6512686E+000	1,6506438E+000	4,956266983900870E-002	2,000000000000000E+000	-3,0948359E-001	41	8,1810314E-005
2	1	0	1	1	6,292068060555286E+004	1,6712606E+000	1,6706353E+000	4,478387611311291E-002	2,000000000000000E+000	-2,9998338E-001	41	7,4817530E-005
2	1	0	1	1	6,312060040592519E+004	1,6912525E+000	1,6906416E+000	3,886439778540840E-002	2,000000000000000E+000	-2,9163402E-001	41	6,5705768E-005
2	1	0	1	1	6,332051890629751E+004	1,7112443E+000	1,7106521E+000	3,474609836489900E-002	2,000000000000000E+000	-2,8429985E-001	41	5,9438487E-005
2	1	0	1	1	6,352043800666998E+004	1,7312361E+000	1,7306325E+000	3,204353586566411E-002	2,000000000000000E+000	-2,7762544E-001	41	5,5455585E-005
2	1	0	1	1	6,372035720704217E+004	1,7512279E+000	1,7506171E+000	2,951077158463100E-002	2,000000000000000E+000	-2,7146038E-001	41	5,1662064E-005
2	1	0	1	1	6,392027570741461E+004	1,7712197E+000	1,7706392E+000	2,683896461776142E-002	2,000000000000000E+000	-2,6581186E-001	41	4,7522124E-005
2	1	0	1	1	6,412019420778705E+004	1,7912116E+000	1,7906059E+000	2,406812311443068E-002	2,000000000000000E+000	-2,6072082E-001	41	4,3096523E-005
2	1	0	1	1	6,432011340815941E+004	1,8112035E+000	1,8106309E+000	2,173689145811525E-002	2,000000000000000E+000	-2,5614476E-001	41	3,9357488E-005
2	1	0	1	1	6,452003250853182E+004	1,8311952E+000	1,8306423E+000	1,987657283570332E-002	2,000000000000000E+000	-2,5198326E-001	41	3,6386897E-005
2	1	0	1	1	6,471995160890417E+004	1,8511872E+000	1,8505940E+000	1,858764182213984E-002	2,000000000000000E+000	-2,4813348E-001	41	3,4398181E-005
2	1	0	1	1	6,491987020927662E+004	1,8711791E+000	1,8705931E+000	1,731144341582697E-002	2,000000000000000E+000	-2,4453440E-001	41	3,2382664E-005
2	1	0	1	1	6,511978880964889E+004	1,8911709E+000	1,8905653E+000	1,602366544377791E-002	2,000000000000000E+000	-2,4119557E-001	41	3,0293786E-005
2	1	0	1	1	6,531970791002130E+004	1,9111629E+000	1,9105836E+000	1,474080116507498E-002	2,000000000000000E+000	-2,3810850E-001	41	2,8163533E-005
2	1	0	1	1	6,551962701039377E+004	1,9311546E+000	1,9305845E+000	1,355472324139903E-002	2,000000000000000E+000	-2,3527145E-001	41	2,6168540E-005
2	1	0	1	1	6,571954556697689E+004	1,9511465E+000	1,9505816E+000	1,240548390034203E-002	2,000000000000000E+000	-2,3266940E-001	41	2,4197909E-005
2	1	0	1	1	6,591946461970918E+004	1,9711382E+000	1,9705676E+000	1,131999971067320E-002	2,000000000000000E+000	-2,3029047E-001	41	2,2306824E-005
2	1	0	1	1	6,611938307242998E+004	1,9911301E+000	1,9905800E+000	1,036647597714292E-002	2,000000000000000E+000	-2,2811395E-001	41	2,0635300E-005
2	1	0	1	1	6,631930282512156E+004	2,0111217E+000	2,0105779E+000	9,420058500882081E-003	2,000000000000000E+000	-2,2612794E-001	41	1,8939762E-005
2	1	0	1	1	6,651922187781846E+004	2,0311139E+000	2,0305631E+000	8,600600630384259E-003	2,000000000000000E+000	-2,2431876E-001	41	1,7464063E-005
2	1	0	1	1	6,671913973054034E+004	2,0511055E+000	2,0505486E+000	7,861450184640670E-003	2,000000000000000E+000	-2,2266346E-001	41	1,6120286E-005
2	1	0	1	1	6,691905888327234E+004	2,0710974E+000	2,0705311E+000	7,223960320559150E-003	2,000000000000000E+000	-2,2114684E-001	41	1,4957434E-005
2	1	0	1	1	6,711897803597921E+004	2,0910892E+000	2,0905216E+000	6,662081602129583E-003	2,000000000000000E+000	-2,1974967E-001	41	1,3927225E-005
2	1	0	1	1	6,731889708866831E+004	2,1110814E+000	2,1105282E+000	6,175875138910422E-003	2,000000000000000E+000	-2,1845455E-001	41	1,3034359E-005
2	1	0	1	1	6,751881614137348E+004	2,1310730E+000	2,1305351E+000	5,751775499339334E-003	2,000000000000000E+000	-2,1725337E-001	41	1,2254360E-005
2	1	0	1	1	6,771873529410176E+004	2,1510651E+000	2,1505344E+000	5,376915955450239E-003	2,000000000000000E+000	-2,1613361E-001	41	1,1563243E-005
2	1	0	1	1	6,791865434682695E+004	2,1710567E+000	2,1704895E+000	5,093150505270483E-003	2,000000000000000E+000	-2,1507710E-001	41	1,1054630E-005
2	1	0	1	1	6,811957239929074E+004	2,1911485E+000	2,1905499E+000	4,877120199724670E-003	2,000000000000000E+000	-2,1406603E-001	42	1,0683575E-005
2	1	0	1	1	6,831949155197997E+004	2,2111404E+000	2,2105446E+000	4,687462488508376E-003	2,000000000000000E+000	-2,1309856E-001	42	1,0361845E-005
2	1	0	1	1	6,851940940469643E+004	2,2311320E+000	2,2305522E+000	4,486946513460405E-003	2,000000000000000E+000	-2,1217282E-001	42	1,0008368E-005
2	1	0	1	1	6,871932845742692E+004	2,2511239E+000	2,2505190E+000	4,337708086697110E-003	2,000000000000000E+000	-2,1128403E-001	42	9,7620950E-006
2	1	0	1	1	6,891924761014525E+004	2,2711158E+000	2,2705169E+000	4,250240635362640E-003	2,000000000000000E+000	-2,1041583E-001	42	9,6502426E-006
2	1	0	1	1	6,911916546283732E+004	2,2911077E+000	2,2904947E+000	4,173106091819579E-003	2,000000000000000E+000	-2,0956355E-001	42	9,5584774E-006
2	1	0	1	1	6,931908451553446E+004	2,3110995E+000	2,3105080E+000	4,086940417634993E-003	2,000000000000000E+000	-2,0872791E-001	42	9,4429088E-006
2	1	0	1	1	6,951900366825797E+004	2,3310914E+000	2,3305101E+000	4,006103666574782E-003	2,000000000000000E+000	-2,0790853E-001	42	9,3362651E-006
2	1	0	1	1	6,971892272098811E+004	2,3510835E+000	2,3504939E+000	3,906656578537442E-003	2,000000000000000E+000	-2,0710821E-001	42	9,1825723E-006
2	1	0	1	1	6,991884177369485E+004	2,3710752E+000	2,3704839E+000	3,819403767626184E-003	2,000000000000000E+000	-2,0632635E-001	42	9,0538351E-006
2	1	0	1	1	7,011876092638308E+004	2,3910668E+000	2,3904808E+000	3,761176316488216E-003	2,000000000000000E+000	-2,0555890E-001	42	8,9910200E-006
2	1	0	1	1	7,031867997908872E+004	2,4110587E+000	2,4104702E+000	3,713952890908659E-003	2,000000000000000E+000	-2,0480150E-001	42	8,9523728E-006
2	1	0	1	1	7,051859793182136E+004	2,4310505E+000	2,4304645E+000	3,674747629273556E-003	2,000000000000000E+000	-2,0405263E-001	42	8,9313435E-006
2	1	0	1	1	7,071851698454272E+004	2,4510424E+000	2,4504683E+000	3,651476701033703E-003	2,000000000000000E+000	-2,0330898E-001	42	8,9478281E-006
2	1	0	1	1	7,091843613724038E+004	2,4710343E+000	2,4704602E+000	3,639371786972226E-003	2,000000000000000E+000	-2,0257047E-001	42	8,9909227E-006
2	1	0	1	1	7,111835518993298E+004	2,4910264E+000	2,4904275E+000	3,638787257175521E-003	2,000000000000000E+000	-2,0183213E-001	42	9,0621361E-006
2	1	0	1	1	7,131827304265171E+004	2,5110178E+000	2,5104482E+000	3,626373029991192E-003	2,000000000000000E+000	-2,0109577E-001	42	9,1038219E-006
2	1	0	1	1	7,151819219538383E+004	2,5310099E+000	2,5303826E+000	3,587438321937947E-003	2,000000000000000E+000	-2,0036390E-001	42	9,0775920E-006
2	1	0	1	1	7,171811124809599E+004	2,5510015E+000	2,5503902E+000	3,570280192177103E-003	2,000000000000000E+000	-1,9963652E-001	42	9,1056081E-006
2	1	0	1	1	7,191803030078718E+004	2,5709934E+000	2,5704036E+000	3,566132460662605E-003	2,000000000000000E+000	-1,9891131E-001	42	9,1663996E-006
2	1	0	1	1	7,211794945348613E+004	2,5909853E+000	2,5903986E+000	3,547720312775782E-003	2,000000000000000E+000	-1,9818941E-001	42	9,1900092E-006
2	1	0	1	1	7,231786850621447E+004	2,6109772E+000	2,6103864E+000	3,532745439016455E-003	2,000000000000000E+000	-1,9747178E-001	42	9,2218306E-006
2	1	0	1	1	7,251778645894141E+004	2,6309693E+000	2,6304014E+000	3,531526525402146E-003	2,000000000000000E+000	-1,9675581E-001	42	9,2893324E-006
2	1	0	1	1	7,271770551164309E+004	2,6509607E+000	2,6503882E+000	3,553937865646496E-003	2,000000000000000E+000	-1,9603702E-001	42	9,4193156E-006
2	1	0	1	1	7,291762456433350E+004	2,6709526E+000	2,6703672E+000	3,578245178035569E-003	2,000000000000000E+000	-1,9531271E-001	42	9,5552286E-006
2	1	0	1	1	7,311754251704365E+004	2,6909447E+000	2,6903751E+000	3,641519230531105E-003	2,000000000000000E+000	-1,9458042E-001	42	9,7970524E-006
2	1	0	1	0	7,330347497309255E+004	2,7095368E+000	2,7089696E+000	3,712444468448955E-003	2,000000000000000E+000	-1,9388737E-001	42	1,0056900E-005
2	1	0	1	0	7,350339412578288E+004	2,7295284E+000	2,7289793E+000	3,842895183668253E-003	2,000000000000000E+000	-1,9312106E-001	42	1,0487181E-005
2	1	0	1	0	7,362489009707235E+004	2,7417748E+000	2,7411575E+000	4,134544514511757E-003	2,000000000000000E+000	-1,9264172E-001	42	1,1333438E-005