File: Dati/201104/CV_LTO_Al_grafite_01_1mVs_10_CV_C03.mpt
EC-Lab ASCII FILE
Nb header lines : 57

Cyclic Voltammetry

Run on channel : 3 (SN 6807)
User :
Electrode connection : standard
Ewe ctrl range : min = 0,00 V, max = 5,00 V
Ewe,I filtering : 50 kHz
Safety Limits :
	Do not start on E overload
Channel : Grounded
Acquisition started on : 11/04/2020 18:19:46
Saved on :
	File : CV_LTO_Al_grafite_01_1mVs_10_CV_C03.mpr
	Directory : C:\Users\labsuperfici\Desktop\Biologic\Users\Prisca Viviani\201104\
	Host : 10.78.33.0
Device : VSP-300 (SN 0638)
Address : USB
EC-Lab for windows v11.31 (software)
Internet server v11.30 (firmware)
Command interpretor v11.31 (firmware)
Electrode material :
Initial state :
Electrolyte :
Comments :
Cable : standard
Reference electrode : SCE Saturated Calomel Electrode (0,241 V)
Electrode surface area : 0,001 cm²
Characteristic mass : 0,001 g
Equivalent Weight : 0,000 g/eq.
Density : 0,000 g/cm3
Cycle Definition : Charge/Discharge alternance
Ei (V)              0,000
vs.                 Eoc
dE/dt               0,900
dE/dt unit          mV/s
E1 (V)              1,000
vs.                 Ref
Step percent        50
N                   10
E range min (V)     0,000
E range max (V)     5,000
I Range             Auto
I Range min         Unset
I Range max         Unset
I Range init        Unset
Bandwidth           8
E2 (V)              2,700
vs.                 Ref
nc cycles           1
Reverse Scan        1
Ef (V)              0,000
vs.                 Eoc

mode	ox/red	error	control changes	counter inc.	time/s	control/V	Ewe/V	<I>/mA	cycle number	(Q-Qo)/C	I Range	P/W
2	1	0	0	0	1,918762332219813E+005	2,7417748E+000	2,7411346E+000	2,098818123340607E-002	1,000000000000000E+000	0,0000000E+000	41	5,7531430E-005
2	1	0	1	0	1,918979467253792E+005	2,7222319E+000	2,7216821E+000	8,148777916390654E-003	1,000000000000000E+000	2,4325518E-004	41	2,2178383E-005
2	1	0	1	0	1,919201597288528E+005	2,7022402E+000	2,7016177E+000	4,920557141283195E-003	1,000000000000000E+000	3,8434155E-004	41	1,3293465E-005
2	1	0	1	0	1,919423729323298E+005	2,6822484E+000	2,6816249E+000	2,941333191777945E-003	1,000000000000000E+000	4,6921341E-004	42	7,8875519E-006
2	1	0	1	0	1,919645861358051E+005	2,6622562E+000	2,6616480E+000	1,459270102022677E-003	1,000000000000000E+000	5,1546691E-004	42	3,8840635E-006
2	1	0	1	0	1,919867993392800E+005	2,6422646E+000	2,6416636E+000	2,968236971138084E-004	1,000000000000000E+000	5,3264800E-004	43	7,8410835E-007
2	0	0	1	0	1,920090124427569E+005	2,6222725E+000	2,6218112E+000	-6,397730388618484E-004	1,000000000000000E+000	5,2728230E-004	43	-1,6773641E-006
2	0	0	1	0	1,920312256462313E+005	2,6022806E+000	2,6017599E+000	-1,395125399735024E-003	1,000000000000000E+000	5,0279160E-004	42	-3,6297813E-006
2	0	0	1	0	1,920534388497069E+005	2,5822887E+000	2,5817602E+000	-2,044950645065151E-003	1,000000000000000E+000	4,6276438E-004	42	-5,2795722E-006
2	0	0	1	0	1,920756519531840E+005	2,5622971E+000	2,5617802E+000	-2,629181429118527E-003	1,000000000000000E+000	4,0910777E-004	42	-6,7353849E-006
2	0	0	1	0	1,920978650566572E+005	2,5423052E+000	2,5417812E+000	-3,146716329142311E-003	1,000000000000000E+000	3,4319839E-004	42	-7,9982647E-006
2	0	0	1	0	1,921200782601336E+005	2,5223134E+000	2,5217967E+000	-3,635257460469655E-003	1,000000000000000E+000	2,6596274E-004	42	-9,1673801E-006
2	0	0	1	0	1,921422913636100E+005	2,5023217E+000	2,5018208E+000	-4,105711227657696E-003	1,000000000000000E+000	1,7821933E-004	42	-1,0271754E-005
2	0	0	1	0	1,921645045670834E+005	2,4823296E+000	2,4818053E+000	-4,541684331616710E-003	1,000000000000000E+000	8,0781472E-005	42	-1,1271576E-005
2	0	0	1	0	1,921867177705603E+005	2,4623380E+000	2,4618323E+000	-4,921985499354686E-003	1,000000000000000E+000	-2,5764897E-005	42	-1,2117102E-005
2	0	0	1	0	1,922089307740363E+005	2,4423459E+000	2,4418299E+000	-5,272136687325971E-003	1,000000000000000E+000	-1,4058730E-004	42	-1,2873661E-005
2	0	0	1	0	1,922311439775100E+005	2,4223542E+000	2,4218643E+000	-5,612876037511469E-003	1,000000000000000E+000	-2,6330721E-004	42	-1,3593624E-005
2	0	0	1	0	1,922533571809870E+005	2,4023621E+000	2,4018536E+000	-5,972959687759682E-003	1,000000000000000E+000	-3,9356772E-004	42	-1,4346175E-005
2	0	0	1	0	1,922755703844628E+005	2,3823705E+000	2,3818829E+000	-6,283747180722901E-003	1,000000000000000E+000	-5,3117232E-004	42	-1,4967150E-005
2	0	0	1	0	1,922977834879369E+005	2,3623786E+000	2,3618913E+000	-6,610323293326413E-003	1,000000000000000E+000	-6,7599071E-004	42	-1,5612864E-005
2	0	0	1	0	1,923199966914144E+005	2,3423865E+000	2,3419092E+000	-6,940328327224271E-003	1,000000000000000E+000	-8,2802365E-004	42	-1,6253618E-005
2	0	0	1	0	1,923422097948887E+005	2,3223948E+000	2,3218846E+000	-7,291333071612685E-003	1,000000000000000E+000	-9,8746142E-004	42	-1,6929635E-005
2	0	0	1	0	1,923644228983638E+005	2,3024027E+000	2,3019400E+000	-7,628791303742805E-003	1,000000000000000E+000	-1,1543850E-003	42	-1,7561020E-005
2	0	0	1	0	1,923866361018410E+005	2,2824111E+000	2,2819386E+000	-8,027494995666691E-003	1,000000000000000E+000	-1,3296069E-003	42	-1,8318251E-005
2	0	0	1	0	1,924088493053145E+005	2,2624192E+000	2,2619686E+000	-8,425491213370800E-003	1,000000000000000E+000	-1,5139148E-003	42	-1,9058196E-005
2	0	0	1	0	1,924310624087905E+005	2,2424276E+000	2,2419634E+000	-8,916781203552999E-003	1,000000000000000E+000	-1,7080340E-003	42	-1,9991097E-005
2	0	0	1	0	1,924532756122672E+005	2,2224357E+000	2,2219901E+000	-9,430722090459254E-003	1,000000000000000E+000	-1,9132548E-003	42	-2,0954971E-005
2	0	0	1	0	1,924754887157404E+005	2,2024441E+000	2,2018797E+000	-1,008981958451666E-002	1,000000000000000E+000	-2,1312004E-003	41	-2,2216569E-005
2	0	0	1	0	1,924977018192172E+005	2,1824522E+000	2,1818602E+000	-1,069613336561137E-002	1,000000000000000E+000	-2,3632275E-003	41	-2,3337469E-005
2	0	0	1	0	1,925199150226931E+005	2,1624601E+000	2,1618907E+000	-1,140821635774553E-002	1,000000000000000E+000	-2,6102853E-003	41	-2,4663317E-005
2	0	0	1	0	1,925421282261673E+005	2,1424685E+000	2,1418760E+000	-1,220580221938611E-002	1,000000000000000E+000	-2,8740689E-003	41	-2,6143314E-005
2	0	0	1	0	1,925643412296446E+005	2,1224766E+000	2,1218815E+000	-1,308354125521055E-002	1,000000000000000E+000	-3,1565798E-003	41	-2,7761724E-005
2	0	0	1	0	1,925865544331195E+005	2,1024847E+000	2,1019003E+000	-1,404193546888016E-002	1,000000000000000E+000	-3,4593148E-003	41	-2,9514749E-005
2	0	0	1	0	1,926087676365944E+005	2,0824928E+000	2,0818832E+000	-1,510962854477805E-002	1,000000000000000E+000	-3,7846002E-003	41	-3,1456482E-005
2	0	0	1	0	1,926309808400718E+005	2,0625014E+000	2,0619090E+000	-1,623366424026779E-002	1,000000000000000E+000	-4,1342564E-003	41	-3,3472337E-005
2	0	0	1	0	1,926531939435452E+005	2,0425091E+000	2,0419140E+000	-1,748626131639991E-002	1,000000000000000E+000	-4,5105191E-003	41	-3,5705441E-005
2	0	0	1	0	1,926754071470211E+005	2,0225174E+000	2,0219028E+000	-1,884845612182495E-002	1,000000000000000E+000	-4,9154158E-003	41	-3,8109745E-005
2	0	0	1	0	1,926976201504981E+005	2,0025253E+000	2,0019369E+000	-2,026637845655462E-002	1,000000000000000E+000	-5,3514009E-003	41	-4,0572009E-005
2	0	0	1	0	1,927198334539714E+005	1,9825338E+000	1,9819380E+000	-2,185217318289945E-002	1,000000000000000E+000	-5,8206525E-003	41	-4,3309654E-005
2	0	0	1	0	1,927420466574480E+005	1,9625419E+000	1,9619335E+000	-2,353388451224972E-002	1,000000000000000E+000	-6,3262195E-003	41	-4,6171917E-005
2	0	0	1	0	1,927642597609241E+005	1,9425498E+000	1,9419569E+000	-2,533850009286343E-002	1,000000000000000E+000	-6,8699080E-003	41	-4,9206275E-005
2	0	0	1	0	1,927864729643972E+005	1,9225581E+000	1,9219916E+000	-2,723400692214156E-002	1,000000000000000E+000	-7,4550165E-003	41	-5,2343534E-005
2	0	0	1	0	1,928086861678746E+005	1,9025661E+000	1,9020003E+000	-2,926528048276078E-002	1,000000000000000E+000	-8,0840895E-003	41	-5,5662571E-005
2	0	0	1	0	1,928308993713502E+005	1,8825742E+000	1,8820081E+000	-3,145801747333221E-002	1,000000000000000E+000	-8,7601375E-003	41	-5,9204242E-005
2	0	0	1	0	1,928531125748239E+005	1,8625824E+000	1,8620130E+000	-3,371678456911220E-002	1,000000000000000E+000	-9,4856629E-003	41	-6,2781088E-005
2	0	0	1	0	1,928753256783015E+005	1,8425906E+000	1,8420510E+000	-3,617664917462082E-002	1,000000000000000E+000	-1,0263288E-002	41	-6,6639237E-005
2	0	0	1	0	1,928975387817766E+005	1,8225988E+000	1,8220416E+000	-3,869394800849213E-002	1,000000000000000E+000	-1,1096388E-002	41	-7,0501985E-005
2	0	0	1	0	1,929197519852517E+005	1,8026068E+000	1,8020645E+000	-4,138427132364653E-002	1,000000000000000E+000	-1,1987568E-002	41	-7,4577125E-005
2	0	0	1	0	1,929419651887286E+005	1,7826151E+000	1,7820355E+000	-4,425414046874232E-002	1,000000000000000E+000	-1,2940128E-002	41	-7,8862446E-005
2	0	0	1	0	1,929641782922028E+005	1,7626233E+000	1,7620559E+000	-4,726209669741943E-002	1,000000000000000E+000	-1,3957561E-002	41	-8,3278457E-005
2	0	0	1	0	1,929863914956785E+005	1,7426316E+000	1,7420894E+000	-5,044470640716991E-002	1,000000000000000E+000	-1,5043637E-002	41	-8,7879191E-005
2	0	0	1	0	1,930086045991550E+005	1,7226398E+000	1,7221136E+000	-5,380648911058261E-002	1,000000000000000E+000	-1,6202828E-002	41	-9,2660885E-005
2	0	0	1	0	1,930308178026285E+005	1,7026478E+000	1,7021252E+000	-5,742311637843545E-002	1,000000000000000E+000	-1,7439440E-002	41	-9,7741337E-005
2	0	0	1	0	1,930530310061051E+005	1,6826559E+000	1,6821393E+000	-6,135050359401184E-002	1,000000000000000E+000	-1,8759500E-002	41	-1,0320009E-004
2	0	0	1	0	1,930752442095811E+005	1,6626642E+000	1,6621200E+000	-6,565184616719466E-002	1,000000000000000E+000	-2,0171108E-002	41	-1,0912125E-004
2	0	0	1	0	1,930974574130545E+005	1,6426721E+000	1,6421704E+000	-7,048579738304150E-002	1,000000000000000E+000	-2,1684052E-002	41	-1,1574970E-004
2	0	0	1	0	1,931196705165318E+005	1,6226804E+000	1,6221687E+000	-7,613265445195588E-002	1,000000000000000E+000	-2,3312813E-002	41	-1,2350001E-004
2	0	0	1	0	1,931418836200070E+005	1,6026884E+000	1,6021744E+000	-8,280494447133346E-002	1,000000000000000E+000	-2,5077654E-002	41	-1,3266796E-004
2	0	0	1	0	1,931640968234816E+005	1,5826967E+000	1,5822167E+000	-9,074118698931274E-002	1,000000000000000E+000	-2,7004454E-002	41	-1,4357222E-004
2	0	0	1	0	1,931863100269586E+005	1,5627048E+000	1,5622337E+000	-1,004983047116164E-001	1,000000000000000E+000	-2,9127056E-002	41	-1,5700184E-004
2	0	0	1	0	1,932085232304335E+005	1,5427129E+000	1,5421379E+000	-1,125414949711054E-001	1,000000000000000E+000	-3,1491820E-002	40	-1,7355449E-004
2	0	0	1	0	1,932307364339088E+005	1,5227212E+000	1,5221410E+000	-1,275230560951894E-001	1,000000000000000E+000	-3,4153216E-002	40	-1,9410807E-004
2	0	0	1	0	1,932529495373860E+005	1,5027293E+000	1,5021491E+000	-1,463359039989505E-001	1,000000000000000E+000	-3,7190061E-002	40	-2,1981835E-004
2	0	0	1	0	1,932751627408597E+005	1,4827375E+000	1,4821591E+000	-1,678031528156270E-001	1,000000000000000E+000	-4,0678255E-002	40	-2,4871097E-004
2	0	0	1	0	1,932973758443354E+005	1,4627457E+000	1,4621540E+000	-1,895986531237022E-001	1,000000000000000E+000	-4,4651754E-002	40	-2,7722243E-004
2	0	0	1	0	1,933195890478124E+005	1,4427538E+000	1,4421815E+000	-2,096661863053879E-001	1,000000000000000E+000	-4,9093544E-002	40	-3,0237669E-004
2	0	0	1	0	1,933418022512859E+005	1,4227618E+000	1,4221619E+000	-2,265722205265392E-001	1,000000000000000E+000	-5,3947881E-002	40	-3,2222239E-004
2	0	0	1	0	1,933640154547620E+005	1,4027702E+000	1,4022055E+000	-2,388632003824195E-001	1,000000000000000E+000	-5,9128877E-002	40	-3,3493529E-004
2	0	0	1	0	1,933862285582386E+005	1,3827783E+000	1,3822069E+000	-2,456997135354535E-001	1,000000000000000E+000	-6,4522885E-002	40	-3,3960785E-004
2	0	0	1	0	1,934084417617121E+005	1,3627864E+000	1,3622161E+000	-2,468594336974201E-001	1,000000000000000E+000	-7,0005752E-002	40	-3,3627590E-004
2	0	0	1	0	1,934306548651886E+005	1,3427945E+000	1,3422145E+000	-2,429581544453678E-001	1,000000000000000E+000	-7,5456470E-002	40	-3,2610196E-004
2	0	0	1	0	1,934528680686643E+005	1,3228027E+000	1,3222276E+000	-2,350959836215480E-001	1,000000000000000E+000	-8,0773778E-002	40	-3,1085039E-004
2	0	0	1	0	1,934750812721387E+005	1,3028108E+000	1,3022131E+000	-2,249619949011265E-001	1,000000000000000E+000	-8,5887529E-002	40	-2,9294845E-004
2	0	0	1	0	1,934972944756155E+005	1,2828190E+000	1,2822187E+000	-2,141362338318658E-001	1,000000000000000E+000	-9,0765968E-002	40	-2,7456949E-004
2	0	0	1	0	1,935195075790910E+005	1,2628273E+000	1,2622104E+000	-2,036084774103881E-001	1,000000000000000E+000	-9,5406286E-002	40	-2,5699672E-004
2	0	0	1	0	1,935417207825659E+005	1,2428354E+000	1,2422301E+000	-1,937075785583500E-001	1,000000000000000E+000	-9,9819303E-002	40	-2,4062938E-004
2	0	0	1	0	1,935639338860433E+005	1,2228434E+000	1,2222345E+000	-1,846742092905647E-001	1,000000000000000E+000	-1,0402166E-001	40	-2,2571519E-004
2	0	0	1	0	1,935861470895167E+005	1,2028515E+000	1,2022307E+000	-1,764335698162136E-001	1,000000000000000E+000	-1,0803223E-001	40	-2,1211385E-004
2	0	0	1	0	1,936083602929926E+005	1,1828597E+000	1,1822587E+000	-1,690392921567494E-001	1,000000000000000E+000	-1,1186942E-001	40	-1,9984817E-004
2	0	0	1	0	1,936305733964699E+005	1,1628680E+000	1,1622275E+000	-1,625853732616966E-001	1,000000000000000E+000	-1,1555269E-001	40	-1,8896119E-004
2	0	0	1	0	1,936527865999429E+005	1,1428761E+000	1,1422577E+000	-1,568556096695919E-001	1,000000000000000E+000	-1,1910038E-001	40	-1,7916952E-004
2	0	0	1	0	1,936749997034193E+005	1,1228843E+000	1,1222758E+000	-1,518554230386181E-001	1,000000000000000E+000	-1,2252913E-001	40	-1,7042366E-004
2	0	0	1	0	1,936972129068957E+005	1,1028925E+000	1,1022942E+000	-1,476371178114144E-001	1,000000000000000E+000	-1,2585545E-001	40	-1,6273954E-004
2	0	0	1	0	1,937194261103687E+005	1,0829005E+000	1,0822774E+000	-1,441108790568411E-001	1,000000000000000E+000	-1,2909633E-001	40	-1,5596795E-004
2	0	0	1	0	1,937416392138462E+005	1,0629088E+000	1,0622989E+000	-1,412537286240467E-001	1,000000000000000E+000	-1,3226607E-001	40	-1,5005367E-004
2	0	0	1	0	1,937638523173216E+005	1,0429170E+000	1,0422993E+000	-1,389736748675561E-001	1,000000000000000E+000	-1,3537890E-001	40	-1,4485217E-004
2	0	0	1	0	1,937860655207955E+005	1,0229251E+000	1,0222883E+000	-1,373607709268985E-001	1,000000000000000E+000	-1,3844873E-001	40	-1,4042231E-004
2	0	0	1	0	1,938082787242730E+005	1,0029333E+000	1,0023212E+000	-1,362860968137094E-001	1,000000000000000E+000	-1,4148858E-001	40	-1,3660245E-004
2	0	0	1	0	1,938288266274873E+005	1,0155281E+000	1,0149069E+000	-9,701537674943816E-002	1,000000000000000E+000	-1,4389823E-001	40	-9,8461576E-005
2	0	0	1	0	1,938510398309631E+005	1,0355201E+000	1,0349002E+000	-6,862046647071324E-002	1,000000000000000E+000	-1,4571211E-001	40	-7,1015333E-005
2	0	0	1	0	1,938732529344375E+005	1,0555117E+000	1,0549189E+000	-4,929209361386422E-002	1,000000000000000E+000	-1,4700758E-001	40	-5,1999159E-005
2	0	0	1	0	1,938954661379142E+005	1,0755036E+000	1,0748907E+000	-3,504367554958354E-002	1,000000000000000E+000	-1,4793333E-001	41	-3,7668124E-005
2	0	0	1	0	1,939176793413893E+005	1,0954953E+000	1,0949049E+000	-2,424708032077472E-002	1,000000000000000E+000	-1,4858435E-001	41	-2,6548247E-005
2	0	0	1	0	1,939398925448646E+005	1,1154872E+000	1,1148977E+000	-1,576136052842963E-002	1,000000000000000E+000	-1,4902313E-001	41	-1,7572305E-005
2	0	0	1	0	1,939621057483419E+005	1,1354792E+000	1,1348656E+000	-8,999295968424498E-003	1,000000000000000E+000	-1,4929368E-001	41	-1,0212992E-005
2	0	0	1	0	1,939843188518155E+005	1,1554710E+000	1,1549046E+000	-3,367018954164989E-003	1,000000000000000E+000	-1,4942735E-001	42	-3,8885855E-006
2	1	0	1	0	1,940065320552912E+005	1,1754628E+000	1,1748959E+000	1,233784492126164E-003	1,000000000000000E+000	-1,4944866E-001	42	1,4495683E-006
2	1	0	1	0	1,940287451587683E+005	1,1954546E+000	1,1947956E+000	5,096897696189692E-003	1,000000000000000E+000	-1,4937584E-001	42	6,0897510E-006
2	1	0	1	0	1,940509583622413E+005	1,2154466E+000	1,2147609E+000	8,456246997360993E-003	1,000000000000000E+000	-1,4922300E-001	42	1,0272318E-005
2	1	0	1	0	1,940731715657181E+005	1,2354383E+000	1,2348173E+000	1,147815348605410E-002	1,000000000000000E+000	-1,4899898E-001	41	1,4173422E-005
2	1	0	1	0	1,940953846691945E+005	1,2554302E+000	1,2547796E+000	1,404153317416218E-002	1,000000000000000E+000	-1,4871357E-001	41	1,7619030E-005
2	1	0	1	0	1,941175977726672E+005	1,2754220E+000	1,2747792E+000	1,639387077662335E-002	1,000000000000000E+000	-1,4837329E-001	41	2,0898566E-005
2	1	0	1	0	1,941398109761447E+005	1,2954137E+000	1,2947882E+000	1,856453502117461E-002	1,000000000000000E+000	-1,4798303E-001	41	2,4037141E-005
2	1	0	1	0	1,941620243796203E+005	1,3154057E+000	1,3147550E+000	2,055798539987685E-002	1,000000000000000E+000	-1,4754651E-001	41	2,7028713E-005
2	1	0	1	0	1,941842374830942E+005	1,3353975E+000	1,3347753E+000	2,251511929654021E-002	1,000000000000000E+000	-1,4706643E-001	41	3,0052626E-005
2	1	0	1	0	1,942064506865717E+005	1,3553896E+000	1,3547310E+000	2,431142057043018E-002	1,000000000000000E+000	-1,4654475E-001	41	3,2935433E-005
2	1	0	1	0	1,942286637900467E+005	1,3753814E+000	1,3747641E+000	2,612506240197157E-002	1,000000000000000E+000	-1,4598271E-001	41	3,5915797E-005
2	1	0	1	0	1,942508769935214E+005	1,3953732E+000	1,3947356E+000	2,788396074695876E-002	1,000000000000000E+000	-1,4538080E-001	41	3,8890754E-005
2	1	0	1	0	1,942730901969988E+005	1,4153650E+000	1,4147168E+000	2,969384652118406E-002	1,000000000000000E+000	-1,4473955E-001	41	4,2008385E-005
2	1	0	1	0	1,942953033004729E+005	1,4353569E+000	1,4346869E+000	3,155742137841411E-002	1,000000000000000E+000	-1,4405777E-001	41	4,5275017E-005
2	1	0	1	0	1,943175164039486E+005	1,4553485E+000	1,4546651E+000	3,348949016316549E-002	1,000000000000000E+000	-1,4333363E-001	41	4,8715992E-005
2	1	0	1	0	1,943397296074252E+005	1,4753404E+000	1,4746715E+000	3,558308215434763E-002	1,000000000000000E+000	-1,4256473E-001	41	5,2473355E-005
2	1	0	1	0	1,943619430108988E+005	1,4953324E+000	1,4946896E+000	3,781459689188860E-002	1,000000000000000E+000	-1,4174800E-001	41	5,6521083E-005
2	1	0	1	0	1,943841562143753E+005	1,5153241E+000	1,5146642E+000	4,022707434013797E-002	1,000000000000000E+000	-1,4088021E-001	41	6,0930510E-005
2	1	0	1	0	1,944063693178515E+005	1,5353161E+000	1,5346332E+000	4,294452481311747E-002	1,000000000000000E+000	-1,3995565E-001	41	6,5904089E-005
2	1	0	1	0	1,944285824213247E+005	1,5553077E+000	1,5546458E+000	4,644107452319694E-002	1,000000000000000E+000	-1,3896300E-001	41	7,2199422E-005
2	1	0	1	0	1,944507956248019E+005	1,5752997E+000	1,5746382E+000	5,156112161284604E-002	1,000000000000000E+000	-1,3787639E-001	41	8,1190112E-005
2	1	0	1	0	1,944730088282772E+005	1,5952916E+000	1,5946134E+000	6,081952715710681E-002	1,000000000000000E+000	-1,3664117E-001	41	9,6983633E-005
2	1	0	1	0	1,944952219317518E+005	1,6152835E+000	1,6145778E+000	8,238562210698001E-002	1,000000000000000E+000	-1,3507494E-001	41	1,3301799E-004
2	1	0	1	0	1,945174351352288E+005	1,6352751E+000	1,6346612E+000	1,134421763792883E-001	1,000000000000000E+000	-1,3290533E-001	40	1,8543952E-004
2	1	0	1	0	1,945396482387036E+005	1,6552670E+000	1,6546280E+000	1,453582388916659E-001	1,000000000000000E+000	-1,3002625E-001	40	2,4051382E-004
2	1	0	1	0	1,945618616421788E+005	1,6752589E+000	1,6746258E+000	1,750775455719016E-001	1,000000000000000E+000	-1,2645961E-001	40	2,9318937E-004
2	1	0	1	0	1,945840748456558E+005	1,6952509E+000	1,6945921E+000	2,017335495121144E-001	1,000000000000000E+000	-1,2226555E-001	40	3,4185610E-004
2	1	0	1	0	1,946062880491298E+005	1,7152427E+000	1,7145896E+000	2,247963472562833E-001	1,000000000000000E+000	-1,1751886E-001	40	3,8543346E-004
2	1	0	1	0	1,946285012526056E+005	1,7352346E+000	1,7345942E+000	2,440441369284201E-001	1,000000000000000E+000	-1,1230205E-001	40	4,2331754E-004
2	1	0	1	0	1,946507143560830E+005	1,7552265E+000	1,7545936E+000	2,589935905451273E-001	1,000000000000000E+000	-1,0670467E-001	40	4,5442849E-004
2	1	0	1	0	1,946729274595561E+005	1,7752180E+000	1,7745701E+000	2,692646748023839E-001	1,000000000000000E+000	-1,0082639E-001	40	4,7782905E-004
2	1	0	1	0	1,946951406630322E+005	1,7952100E+000	1,7945971E+000	2,743669853444661E-001	1,000000000000000E+000	-9,4777450E-002	40	4,9237820E-004
2	1	0	1	0	1,947173538665087E+005	1,8152016E+000	1,8145506E+000	2,740285591000715E-001	1,000000000000000E+000	-8,8674933E-002	40	4,9723871E-004
2	1	0	1	0	1,947395669699823E+005	1,8351938E+000	1,8345418E+000	2,687175631455108E-001	1,000000000000000E+000	-8,2635820E-002	40	4,9297360E-004
2	1	0	1	0	1,947617802734588E+005	1,8551854E+000	1,8545651E+000	2,591926912912044E-001	1,000000000000000E+000	-7,6763973E-002	40	4,8068972E-004
2	1	0	1	0	1,947839934769347E+005	1,8751774E+000	1,8745714E+000	2,466958300188532E-001	1,000000000000000E+000	-7,1140222E-002	40	4,6244895E-004
2	1	0	1	0	1,948062066804084E+005	1,8951694E+000	1,8945227E+000	2,324744387870070E-001	1,000000000000000E+000	-6,5814465E-002	40	4,4042809E-004
2	1	0	1	0	1,948284198838854E+005	1,9151611E+000	1,9145398E+000	2,175600020553099E-001	1,000000000000000E+000	-6,0813647E-002	40	4,1652730E-004
2	1	0	1	0	1,948506329873609E+005	1,9351530E+000	1,9345348E+000	2,024011710605849E-001	1,000000000000000E+000	-5,6148008E-002	40	3,9155211E-004
2	1	0	1	0	1,948728461908360E+005	1,9551448E+000	1,9545281E+000	1,873579783725815E-001	1,000000000000000E+000	-5,1818632E-002	40	3,6619644E-004
2	1	0	1	0	1,948950592943127E+005	1,9751364E+000	1,9744942E+000	1,727460672146468E-001	1,000000000000000E+000	-4,7818754E-002	40	3,4108612E-004
2	1	0	1	0	1,949172724977871E+005	1,9951282E+000	1,9945232E+000	1,587205410775518E-001	1,000000000000000E+000	-4,4137198E-002	40	3,1657179E-004
2	1	0	1	0	1,949394858012628E+005	2,0151205E+000	2,0145154E+000	1,454092278547910E-001	1,000000000000000E+000	-4,0759128E-002	40	2,9292912E-004
2	1	0	1	0	1,949616992047401E+005	2,0351121E+000	2,0344932E+000	1,330254206603041E-001	1,000000000000000E+000	-3,7666611E-002	40	2,7063931E-004
2	1	0	1	0	1,949839122082135E+005	2,0551040E+000	2,0544932E+000	1,215637460812531E-001	1,000000000000000E+000	-3,4838926E-002	40	2,4975190E-004
2	1	0	1	0	1,950061254116894E+005	2,0750959E+000	2,0744812E+000	1,110416570437400E-001	1,000000000000000E+000	-3,2255795E-002	40	2,3035383E-004
2	1	0	1	0	1,950283386151665E+005	2,0950878E+000	2,0944872E+000	1,014085290334856E-001	1,000000000000000E+000	-2,9896263E-002	40	2,1239887E-004
2	1	0	1	0	1,950505518186395E+005	2,1150794E+000	2,1144767E+000	9,266022632583676E-002	1,000000000000000E+000	-2,7740836E-002	40	1,9592789E-004
2	1	0	1	0	1,950727649221161E+005	2,1350710E+000	2,1344585E+000	8,470582632874302E-002	1,000000000000000E+000	-2,5771193E-002	40	1,8080107E-004
2	1	0	1	0	1,950949781255922E+005	2,1550632E+000	2,1544659E+000	7,749148476068134E-002	1,000000000000000E+000	-2,3970047E-002	40	1,6695276E-004
2	1	0	1	0	1,951171913290655E+005	2,1750550E+000	2,1744468E+000	7,089793614188683E-002	1,000000000000000E+000	-2,2321796E-002	40	1,5416379E-004
2	1	0	1	0	1,951394045325429E+005	2,1950469E+000	2,1944561E+000	6,502004171205256E-002	1,000000000000000E+000	-2,0811699E-002	40	1,4268362E-004
2	1	0	1	0	1,951616178360186E+005	2,2150390E+000	2,2144735E+000	5,968383739473662E-002	1,000000000000000E+000	-1,9426197E-002	40	1,3216828E-004
2	1	0	1	0	1,951838310394925E+005	2,2350309E+000	2,2344327E+000	5,487581891513027E-002	1,000000000000000E+000	-1,8153500E-002	40	1,2261633E-004
2	1	0	1	0	1,952060440429701E+005	2,2550223E+000	2,2544303E+000	5,056695762258945E-002	1,000000000000000E+000	-1,6981700E-002	40	1,1399968E-004
2	1	0	1	0	1,952282572464449E+005	2,2750142E+000	2,2743523E+000	4,682583152002606E-002	1,000000000000000E+000	-1,5899563E-002	41	1,0649844E-004
2	1	0	1	0	1,952504704499197E+005	2,2950058E+000	2,2943616E+000	4,340896300108194E-002	1,000000000000000E+000	-1,4896641E-002	41	9,9595854E-005
2	1	0	1	0	1,952726836533973E+005	2,3149977E+000	2,3143628E+000	4,030394711270269E-002	1,000000000000000E+000	-1,3966221E-002	41	9,3277951E-005
2	1	0	1	0	1,952948967568707E+005	2,3349895E+000	2,3343718E+000	3,755995580503207E-002	1,000000000000000E+000	-1,3100624E-002	41	8,7678905E-005
2	1	0	1	0	1,953171099603468E+005	2,3549814E+000	2,3543618E+000	3,512822664211157E-002	1,000000000000000E+000	-1,2292421E-002	41	8,2704551E-005
2	1	0	1	0	1,953393231638232E+005	2,3749733E+000	2,3743701E+000	3,303444025132886E-002	1,000000000000000E+000	-1,1534248E-002	41	7,8435987E-005
2	1	0	1	0	1,953615364672970E+005	2,3949654E+000	2,3943493E+000	3,122724753428355E-002	1,000000000000000E+000	-1,0819576E-002	41	7,4768941E-005
2	1	0	1	0	1,953837496707735E+005	2,4149573E+000	2,4143386E+000	2,966092469811821E-002	1,000000000000000E+000	-1,0142140E-002	41	7,1611517E-005
2	1	0	1	0	1,954059628742496E+005	2,4349492E+000	2,4343629E+000	2,838056257044552E-002	1,000000000000000E+000	-9,4963657E-003	41	6,9088586E-005
2	1	0	1	0	1,954281760777230E+005	2,4549406E+000	2,4543343E+000	2,721088337060532E-002	1,000000000000000E+000	-8,8778157E-003	41	6,6784603E-005
2	1	0	1	0	1,954503890812001E+005	2,4749324E+000	2,4743321E+000	2,625305887609158E-002	1,000000000000000E+000	-8,2824612E-003	41	6,4958789E-005
2	1	0	1	0	1,954726022846755E+005	2,4949245E+000	2,4943371E+000	2,544955339807000E-002	1,000000000000000E+000	-7,7069486E-003	41	6,3479762E-005
2	1	0	1	0	1,954948154881501E+005	2,5149164E+000	2,5143173E+000	2,470009817405747E-002	1,000000000000000E+000	-7,1484731E-003	41	6,2103885E-005
2	1	0	1	0	1,955170285916270E+005	2,5349083E+000	2,5343232E+000	2,405420367795941E-002	1,000000000000000E+000	-6,6055278E-003	41	6,0961127E-005
2	1	0	1	0	1,955392417951017E+005	2,5548999E+000	2,5542951E+000	2,339968565984651E-002	1,000000000000000E+000	-6,0770470E-003	41	5,9769700E-005
2	1	0	1	0	1,955614550985771E+005	2,5748920E+000	2,5743151E+000	2,279040618754327E-002	1,000000000000000E+000	-5,5624042E-003	41	5,8669688E-005
2	1	0	1	0	1,955836683020543E+005	2,5948837E+000	2,5943000E+000	2,224538051340202E-002	1,000000000000000E+000	-5,0606532E-003	41	5,7711190E-005
2	1	0	1	0	1,956058815055280E+005	2,6148758E+000	2,6142945E+000	2,179227596489106E-002	1,000000000000000E+000	-4,5703189E-003	41	5,6971428E-005
2	1	0	1	0	1,956280947090038E+005	2,6348672E+000	2,6342983E+000	2,141597212246521E-002	1,000000000000000E+000	-4,0892963E-003	41	5,6416058E-005
2	1	0	1	0	1,956503077124809E+005	2,6548593E+000	2,6542952E+000	2,113366034366648E-002	1,000000000000000E+000	-3,6153803E-003	41	5,6094974E-005
2	1	0	1	0	1,956725209159539E+005	2,6748512E+000	2,6742687E+000	2,096195274626511E-002	1,000000000000000E+000	-3,1463820E-003	41	5,6057896E-005
2	1	0	1	0	1,956947341194304E+005	2,6948433E+000	2,6942842E+000	2,090116457850433E-002	1,000000000000000E+000	-2,6799510E-003	41	5,6313678E-005
2	1	0	1	1	1,957155038226785E+005	2,6864462E+000	2,6858408E+000	1,052022458603200E-002	2,000000000000000E+000	-2,3581579E-003	41	2,8255648E-005
2	1	0	1	1	1,957377170261559E+005	2,6664546E+000	2,6658754E+000	6,594653711736048E-003	2,000000000000000E+000	-2,1741777E-003	41	1,7580525E-005
2	1	0	1	1	1,957599302296313E+005	2,6464624E+000	2,6458421E+000	4,144562630095175E-003	2,000000000000000E+000	-2,0585759E-003	42	1,0965859E-005
2	1	0	1	1	1,957821433331056E+005	2,6264710E+000	2,6258688E+000	2,407642248670183E-003	2,000000000000000E+000	-1,9884123E-003	42	6,3221528E-006
2	1	0	1	1	1,958043565365830E+005	2,6064789E+000	2,6058843E+000	1,082378138707544E-003	2,000000000000000E+000	-1,9518730E-003	42	2,8205523E-006
2	1	0	1	1	1,958265696400576E+005	2,5864871E+000	2,5858994E+000	2,929860614573962E-005	2,000000000000000E+000	-1,9415504E-003	43	7,5763246E-008
2	0	0	1	1	1,958487828435326E+005	2,5664952E+000	2,5660119E+000	-8,515743813914747E-004	2,000000000000000E+000	-1,9520925E-003	43	-2,1851499E-006
2	0	0	1	1	1,958709960470102E+005	2,5465035E+000	2,5459263E+000	-1,618958651414532E-003	2,000000000000000E+000	-1,9817660E-003	42	-4,1217495E-006
2	0	0	1	1	1,958932092504837E+005	2,5265114E+000	2,5259554E+000	-2,290941790383217E-003	2,000000000000000E+000	-2,0269689E-003	42	-5,7868169E-006
2	0	0	1	1	1,959154224539598E+005	2,5065198E+000	2,5059557E+000	-2,905247441529160E-003	2,000000000000000E+000	-2,0864725E-003	42	-7,2804214E-006
2	0	0	1	1	1,959376355574364E+005	2,4865282E+000	2,4859612E+000	-3,472451122972223E-003	2,000000000000000E+000	-2,1588821E-003	42	-8,6323789E-006
2	0	0	1	1	1,959598487609099E+005	2,4665363E+000	2,4660039E+000	-3,969183094485559E-003	2,000000000000000E+000	-2,2430923E-003	42	-9,7880211E-006
2	0	0	1	1	1,959820619643864E+005	2,4465444E+000	2,4460104E+000	-4,402700730376734E-003	2,000000000000000E+000	-2,3377489E-003	42	-1,0769051E-005
2	0	0	1	1	1,960042749678623E+005	2,4265523E+000	2,4260395E+000	-4,824813475119325E-003	2,000000000000000E+000	-2,4420563E-003	42	-1,1705188E-005
2	0	0	1	1	1,960264881713358E+005	2,4065607E+000	2,4060712E+000	-5,241107773785413E-003	2,000000000000000E+000	-2,5555408E-003	42	-1,2610479E-005
2	0	0	1	1	1,960487013748131E+005	2,3865685E+000	2,3860900E+000	-5,613605896800253E-003	2,000000000000000E+000	-2,6777366E-003	42	-1,3394569E-005
2	0	0	1	1	1,960709144782880E+005	2,3665767E+000	2,3660834E+000	-5,975712175191321E-003	2,000000000000000E+000	-2,8080714E-003	42	-1,4139033E-005
2	0	0	1	1	1,960931276817631E+005	2,3465848E+000	2,3460901E+000	-6,347312957613274E-003	2,000000000000000E+000	-2,9466499E-003	42	-1,4891368E-005
2	0	0	1	1	1,961153408852401E+005	2,3265932E+000	2,3260889E+000	-6,704591078065134E-003	2,000000000000000E+000	-3,0933260E-003	42	-1,5595475E-005
2	0	0	1	1	1,961375539887147E+005	2,3066015E+000	2,3061411E+000	-7,085516042640634E-003	2,000000000000000E+000	-3,2480620E-003	42	-1,6340200E-005
2	0	0	1	1	1,961597671921902E+005	2,2866094E+000	2,2861028E+000	-7,467393930503399E-003	2,000000000000000E+000	-3,4114586E-003	42	-1,7071230E-005
2	0	0	1	1	1,961819803956673E+005	2,2666175E+000	2,2661345E+000	-7,930788949394502E-003	2,000000000000000E+000	-3,5841723E-003	42	-1,7972234E-005
2	0	0	1	1	1,962041934991404E+005	2,2466257E+000	2,2461514E+000	-8,373424952810571E-003	2,000000000000000E+000	-3,7667234E-003	42	-1,8807981E-005
2	0	0	1	1	1,962264066026168E+005	2,2266340E+000	2,2261672E+000	-8,930040286240809E-003	2,000000000000000E+000	-3,9602984E-003	42	-1,9879762E-005
2	0	0	1	1	1,962486198060936E+005	2,2066422E+000	2,2061722E+000	-9,510090780373973E-003	2,000000000000000E+000	-4,1663302E-003	42	-2,0980899E-005
2	0	0	1	1	1,962708328095670E+005	2,1866505E+000	2,1860976E+000	-1,017846202602152E-002	2,000000000000000E+000	-4,3864953E-003	41	-2,2251112E-005
2	0	0	1	1	1,962930460130433E+005	2,1666586E+000	2,1660705E+000	-1,086203674891958E-002	2,000000000000000E+000	-4,6217646E-003	41	-2,3527937E-005
2	0	0	1	1	1,963152592165195E+005	2,1466668E+000	2,1461093E+000	-1,163982745939762E-002	2,000000000000000E+000	-4,8734820E-003	41	-2,4980342E-005
2	0	0	1	1	1,963374724199930E+005	2,1266749E+000	2,1261005E+000	-1,253433802797385E-002	2,000000000000000E+000	-5,1434692E-003	41	-2,6649263E-005
2	0	0	1	1	1,963596854234701E+005	2,1066833E+000	2,1061370E+000	-1,345910974263229E-002	2,000000000000000E+000	-5,4336591E-003	41	-2,8346729E-005
2	0	0	1	1	1,963818986269454E+005	2,0866911E+000	2,0861168E+000	-1,449813786637941E-002	2,000000000000000E+000	-5,7458701E-003	41	-3,0244808E-005
2	0	0	1	1	1,964041118304203E+005	2,0666993E+000	2,0661545E+000	-1,562954229078983E-002	2,000000000000000E+000	-6,0821073E-003	41	-3,2293050E-005
2	0	0	1	1	1,964263250338973E+005	2,0467074E+000	2,0461452E+000	-1,685995187963796E-002	2,000000000000000E+000	-6,4444966E-003	41	-3,4497909E-005
2	0	0	1	1	1,964485381373717E+005	2,0267155E+000	2,0261681E+000	-1,817142557721951E-002	2,000000000000000E+000	-6,8348716E-003	41	-3,6818365E-005
2	0	0	1	1	1,964707512408473E+005	2,0067239E+000	2,0061679E+000	-1,960020992447226E-002	2,000000000000000E+000	-7,2559789E-003	41	-3,9321312E-005
2	0	0	1	1	1,964929645443242E+005	1,9867318E+000	1,9861890E+000	-2,111559324148191E-002	2,000000000000000E+000	-7,7098659E-003	41	-4,1939558E-005
2	0	0	1	1	1,965151777477977E+005	1,9667399E+000	1,9661783E+000	-2,278002273037433E-002	2,000000000000000E+000	-8,1992187E-003	41	-4,4789587E-005
2	0	0	1	1	1,965373908512739E+005	1,9467484E+000	1,9461668E+000	-2,456640032473340E-002	2,000000000000000E+000	-8,7264637E-003	41	-4,7810310E-005
2	0	0	1	1	1,965596039547506E+005	1,9267561E+000	1,9261851E+000	-2,643252659811535E-002	2,000000000000000E+000	-9,2942147E-003	41	-5,0913939E-005
2	0	0	1	1	1,965818171582236E+005	1,9067645E+000	1,9062089E+000	-2,843383085826362E-002	2,000000000000000E+000	-9,9053597E-003	41	-5,4200820E-005
2	0	0	1	1	1,966040303617006E+005	1,8867725E+000	1,8862038E+000	-3,057690501190494E-002	2,000000000000000E+000	-1,0562430E-002	41	-5,7674275E-005
2	0	0	1	1	1,966262435651766E+005	1,8667808E+000	1,8662047E+000	-3,285129707918155E-002	2,000000000000000E+000	-1,1268328E-002	41	-6,1307248E-005
2	0	0	1	1	1,966484567686499E+005	1,8467889E+000	1,8462287E+000	-3,525051099763570E-002	2,000000000000000E+000	-1,2026042E-002	41	-6,5080509E-005
2	0	0	1	1	1,966706698721272E+005	1,8267970E+000	1,8262343E+000	-3,773445886828541E-002	2,000000000000000E+000	-1,2838112E-002	41	-6,8911962E-005
2	0	0	1	1	1,966928829756025E+005	1,8068053E+000	1,8062594E+000	-4,038928462739338E-002	2,000000000000000E+000	-1,3707390E-002	41	-7,2953524E-005
2	0	0	1	1	1,967150961790772E+005	1,7868133E+000	1,7862492E+000	-4,319296155026131E-002	2,000000000000000E+000	-1,4637163E-002	41	-7,7153389E-005
2	0	0	1	1	1,967373093825546E+005	1,7668215E+000	1,7662741E+000	-4,617627685346146E-002	2,000000000000000E+000	-1,5630834E-002	41	-8,1559963E-005
2	0	0	1	1	1,967595224860292E+005	1,7468299E+000	1,7462608E+000	-4,929358166194889E-002	2,000000000000000E+000	-1,6692393E-002	41	-8,6079446E-005
2	0	0	1	1	1,967817356895042E+005	1,7268380E+000	1,7263335E+000	-5,256252303991649E-002	2,000000000000000E+000	-1,7825169E-002	41	-9,0740446E-005
2	0	0	1	1	1,968039487929815E+005	1,7068461E+000	1,7063199E+000	-5,610891995361800E-002	2,000000000000000E+000	-1,9033708E-002	41	-9,5739771E-005
2	0	0	1	1	1,968261619964549E+005	1,6868544E+000	1,6863345E+000	-5,997418773250918E-002	2,000000000000000E+000	-2,0324230E-002	41	-1,0113654E-004
2	0	0	1	1	1,968483751999308E+005	1,6668625E+000	1,6662834E+000	-6,420964249877748E-002	2,000000000000000E+000	-2,1704312E-002	41	-1,0699146E-004
2	0	0	1	1	1,968705884034075E+005	1,6468705E+000	1,6463219E+000	-6,890612433371102E-002	2,000000000000000E+000	-2,3183186E-002	41	-1,1344166E-004
2	0	0	1	1	1,968928016068810E+005	1,6268785E+000	1,6263424E+000	-7,426317858028891E-002	2,000000000000000E+000	-2,4773687E-002	41	-1,2077736E-004
2	0	0	1	1	1,969150147103579E+005	1,6068869E+000	1,6063781E+000	-8,065448359756489E-002	2,000000000000000E+000	-2,6494363E-002	41	-1,2956159E-004
2	0	0	1	1	1,969372278138334E+005	1,5868950E+000	1,5863936E+000	-8,829242082331085E-002	2,000000000000000E+000	-2,8369932E-002	41	-1,4006654E-004
2	0	0	1	1	1,969594410173073E+005	1,5669031E+000	1,5664272E+000	-9,755889950845364E-002	2,000000000000000E+000	-3,0433005E-002	41	-1,5281892E-004
2	0	0	1	1	1,969816542207845E+005	1,5469114E+000	1,5463244E+000	-1,090661086383444E-001	2,000000000000000E+000	-3,2725874E-002	40	-1,6865158E-004
2	0	0	1	1	1,970038674242594E+005	1,5269194E+000	1,5263518E+000	-1,231109702625870E-001	2,000000000000000E+000	-3,5300370E-002	40	-1,8791066E-004
2	0	0	1	1	1,970260806277345E+005	1,5069275E+000	1,5063211E+000	-1,409755790229382E-001	2,000000000000000E+000	-3,8228158E-002	40	-2,1235448E-004
2	0	0	1	1	1,970482937312119E+005	1,4869359E+000	1,4863589E+000	-1,618511116757539E-001	2,000000000000000E+000	-4,1589972E-002	40	-2,4056884E-004
2	0	0	1	1	1,970705069346861E+005	1,4669440E+000	1,4663556E+000	-1,836503880357943E-001	2,000000000000000E+000	-4,5429960E-002	40	-2,6929675E-004
2	0	0	1	1	1,970927201381617E+005	1,4469522E+000	1,4463826E+000	-2,041625335881654E-001	2,000000000000000E+000	-4,9743503E-002	40	-2,9529716E-004
2	0	0	1	1	1,971149332416388E+005	1,4269602E+000	1,4263840E+000	-2,217366682946172E-001	2,000000000000000E+000	-5,4482732E-002	40	-3,1628163E-004
2	0	0	1	1	1,971371464451118E+005	1,4069684E+000	1,4063981E+000	-2,351314801746764E-001	2,000000000000000E+000	-5,9568435E-002	40	-3,3068846E-004
2	0	0	1	1	1,971593596485883E+005	1,3869765E+000	1,3863963E+000	-2,432660857203981E-001	2,000000000000000E+000	-6,4894304E-002	40	-3,3726319E-004
2	0	0	1	1	1,971815728520649E+005	1,3669845E+000	1,3664266E+000	-2,457275030541881E-001	2,000000000000000E+000	-7,0338145E-002	40	-3,3576859E-004
2	0	0	1	1	1,972037860555379E+005	1,3469927E+000	1,3464148E+000	-2,429911128308753E-001	2,000000000000000E+000	-7,5777173E-002	40	-3,2716684E-004
2	0	0	1	1	1,972259990590150E+005	1,3270010E+000	1,3264462E+000	-2,359502971107523E-001	2,000000000000000E+000	-8,1104778E-002	40	-3,1297537E-004
2	0	0	1	1	1,972482122624908E+005	1,3070092E+000	1,3064110E+000	-2,262876823613516E-001	2,000000000000000E+000	-8,6243667E-002	40	-2,9562472E-004
2	0	0	1	1	1,972704254659640E+005	1,2870172E+000	1,2864423E+000	-2,155790557461872E-001	2,000000000000000E+000	-9,1153182E-002	40	-2,7733002E-004
2	0	0	1	1	1,972926386694415E+005	1,2670255E+000	1,2664375E+000	-2,049622835682635E-001	2,000000000000000E+000	-9,5824696E-002	40	-2,5957194E-004
2	0	0	1	1	1,973148517729170E+005	1,2470337E+000	1,2464644E+000	-1,948841837951352E-001	2,000000000000000E+000	-1,0026588E-001	40	-2,4291620E-004
2	0	0	1	1	1,973370649763918E+005	1,2270418E+000	1,2264230E+000	-1,856590205173641E-001	2,000000000000000E+000	-1,0449240E-001	40	-2,2769650E-004
2	0	0	1	1	1,973592780798688E+005	1,2070501E+000	1,2064544E+000	-1,771825510949707E-001	2,000000000000000E+000	-1,0852258E-001	40	-2,1376267E-004
2	0	0	1	1	1,973814912833432E+005	1,1870580E+000	1,1864551E+000	-1,695595211599672E-001	2,000000000000000E+000	-1,1237426E-001	40	-2,0117477E-004
2	0	0	1	1	1,974037044868188E+005	1,1670662E+000	1,1664784E+000	-1,628779526713324E-001	2,000000000000000E+000	-1,1606669E-001	40	-1,8999362E-004
2	0	0	1	1	1,974259175902959E+005	1,1470745E+000	1,1464758E+000	-1,569300424592510E-001	2,000000000000000E+000	-1,1961888E-001	40	-1,7991649E-004
2	0	0	1	1	1,974481306937691E+005	1,1270825E+000	1,1264876E+000	-1,517586198344025E-001	2,000000000000000E+000	-1,2304767E-001	40	-1,7095421E-004
2	0	0	1	1	1,974703438972455E+005	1,1070907E+000	1,1065019E+000	-1,473387385101383E-001	2,000000000000000E+000	-1,2637003E-001	40	-1,6303059E-004
2	0	0	1	1	1,974925571007216E+005	1,0870988E+000	1,0864956E+000	-1,436659790931052E-001	2,000000000000000E+000	-1,2960257E-001	40	-1,5609246E-004
2	0	0	1	1	1,975147703041951E+005	1,0671071E+000	1,0665227E+000	-1,406509146686543E-001	2,000000000000000E+000	-1,3276066E-001	40	-1,5000740E-004
2	0	0	1	1	1,975369835076721E+005	1,0471152E+000	1,0464872E+000	-1,382941405641769E-001	2,000000000000000E+000	-1,3585940E-001	40	-1,4472305E-004
2	0	0	1	1	1,975591966111483E+005	1,0271235E+000	1,0265259E+000	-1,365497423052814E-001	2,000000000000000E+000	-1,3891235E-001	40	-1,4017185E-004
2	0	0	1	1	1,975814097146217E+005	1,0071316E+000	1,0064977E+000	-1,353855449757704E-001	2,000000000000000E+000	-1,4193334E-001	40	-1,3626524E-004
2	0	0	1	1	1,976021797178723E+005	1,0115296E+000	1,0109177E+000	-1,037775321709284E-001	2,000000000000000E+000	-1,4451218E-001	40	-1,0491054E-004
2	0	0	1	1	1,976243929213476E+005	1,0315214E+000	1,0309086E+000	-7,281193893089291E-002	2,000000000000000E+000	-1,4644356E-001	40	-7,5062453E-005
2	0	0	1	1	1,976466061248248E+005	1,0515134E+000	1,0509194E+000	-5,224703757825255E-002	2,000000000000000E+000	-1,4781705E-001	40	-5,4907425E-005
2	0	0	1	1	1,976688193282988E+005	1,0715052E+000	1,0709308E+000	-3,723243746776472E-002	2,000000000000000E+000	-1,4879951E-001	41	-3,9873365E-005
2	0	0	1	1	1,976910324317747E+005	1,0914971E+000	1,0909337E+000	-2,589730432689036E-002	2,000000000000000E+000	-1,4949293E-001	41	-2,8252241E-005
2	0	0	1	1	1,977132455352517E+005	1,1114889E+000	1,1109097E+000	-1,707005241432608E-002	2,000000000000000E+000	-1,4996441E-001	41	-1,8963286E-005
2	0	0	1	1	1,977354587387247E+005	1,1314806E+000	1,1309034E+000	-9,993848660545562E-003	2,000000000000000E+000	-1,5026057E-001	41	-1,1302077E-005
2	0	0	1	1	1,977576719422013E+005	1,1514724E+000	1,1509050E+000	-4,214593231893113E-003	2,000000000000000E+000	-1,5041545E-001	42	-4,8505963E-006
2	1	0	1	1	1,977798851456777E+005	1,1714643E+000	1,1708283E+000	4,283813479203135E-004	2,000000000000000E+000	-1,5045395E-001	43	5,0156103E-007
2	1	0	1	1	1,978020983491507E+005	1,1914562E+000	1,1908031E+000	4,475527314994759E-003	2,000000000000000E+000	-1,5039617E-001	42	5,3294716E-006
2	1	0	1	1	1,978243114526280E+005	1,2114483E+000	1,2107755E+000	7,895452833891953E-003	2,000000000000000E+000	-1,5025608E-001	42	9,5596206E-006
2	1	0	1	1	1,978465246561039E+005	1,2314401E+000	1,2308201E+000	1,097503052511070E-002	2,000000000000000E+000	-1,5004422E-001	41	1,3508287E-005
2	1	0	1	1	1,978687378595776E+005	1,2514319E+000	1,2508245E+000	1,357600737402313E-002	2,000000000000000E+000	-1,4976931E-001	41	1,6981203E-005
2	1	0	1	1	1,978909509630546E+005	1,2714236E+000	1,2707872E+000	1,594665006623747E-002	2,000000000000000E+000	-1,4943907E-001	41	2,0264799E-005
2	1	0	1	1	1,979131641665301E+005	1,2914155E+000	1,2908000E+000	1,810966390347102E-002	2,000000000000000E+000	-1,4905843E-001	41	2,3375953E-005
2	1	0	1	1	1,979353773700048E+005	1,3114073E+000	1,3107876E+000	2,013929219143376E-002	2,000000000000000E+000	-1,4863151E-001	41	2,6398333E-005
2	1	0	1	1	1,979575905734818E+005	1,3313991E+000	1,3307568E+000	2,204202634745733E-002	2,000000000000000E+000	-1,4816108E-001	41	2,9332576E-005
2	1	0	1	1	1,979798037769562E+005	1,3513911E+000	1,3507403E+000	2,387557024699141E-002	2,000000000000000E+000	-1,4764909E-001	41	3,2249696E-005
2	1	0	1	1	1,980020169804317E+005	1,3713830E+000	1,3707175E+000	2,565677978683931E-002	2,000000000000000E+000	-1,4709695E-001	41	3,5168199E-005
2	1	0	1	1	1,980242301839087E+005	1,3913749E+000	1,3907099E+000	2,746592411056259E-002	2,000000000000000E+000	-1,4650536E-001	41	3,8197133E-005
2	1	0	1	1	1,980464432873824E+005	1,4113667E+000	1,4107168E+000	2,922457822721223E-002	2,000000000000000E+000	-1,4587449E-001	41	4,1227602E-005
2	1	0	1	1	1,980686564908584E+005	1,4313585E+000	1,4306750E+000	3,100921774982908E-002	2,000000000000000E+000	-1,4520386E-001	41	4,4364115E-005
2	1	0	1	1	1,980908695943346E+005	1,4513502E+000	1,4506973E+000	3,293327930575246E-002	2,000000000000000E+000	-1,4449179E-001	41	4,7776219E-005
2	1	0	1	1	1,981130827978081E+005	1,4713421E+000	1,4706591E+000	3,493800375355820E-002	2,000000000000000E+000	-1,4373609E-001	41	5,1381896E-005
2	1	0	1	1	1,981352961012851E+005	1,4913341E+000	1,4906839E+000	3,713889933822301E-002	2,000000000000000E+000	-1,4293402E-001	41	5,5362361E-005
2	1	0	1	1	1,981575092047611E+005	1,5113256E+000	1,5106646E+000	3,947649895201955E-002	2,000000000000000E+000	-1,4208162E-001	41	5,9635749E-005
2	1	0	1	1	1,981797224082346E+005	1,5313176E+000	1,5306787E+000	4,211225910202321E-002	2,000000000000000E+000	-1,4117447E-001	41	6,4460342E-005
2	1	0	1	1	1,982019356117117E+005	1,5513095E+000	1,5506271E+000	4,534695054254723E-002	2,000000000000000E+000	-1,4020312E-001	41	7,0316208E-005
2	1	0	1	1	1,982241488151872E+005	1,5713015E+000	1,5706190E+000	5,003324501739680E-002	2,000000000000000E+000	-1,3914555E-001	41	7,8583165E-005
2	1	0	1	1	1,982463620186616E+005	1,5912932E+000	1,5906241E+000	5,781570894142324E-002	2,000000000000000E+000	-1,3795590E-001	41	9,1963062E-005
2	1	0	1	1	1,982685751221390E+005	1,6112851E+000	1,6105855E+000	7,616530265822491E-002	2,000000000000000E+000	-1,3649207E-001	41	1,2267072E-004
2	1	0	1	1	1,982907882256135E+005	1,6312767E+000	1,6306417E+000	1,057838682247507E-001	2,000000000000000E+000	-1,3448015E-001	40	1,7249558E-004
2	1	0	1	1	1,983130014290886E+005	1,6512686E+000	1,6506296E+000	1,376083417845724E-001	2,000000000000000E+000	-1,3177331E-001	40	2,2714041E-004
2	1	0	1	1	1,983352147325664E+005	1,6712608E+000	1,6706307E+000	1,677662035037812E-001	2,000000000000000E+000	-1,2837464E-001	40	2,8027536E-004
2	1	0	1	1	1,983574280360397E+005	1,6912524E+000	1,6906153E+000	1,948996088186452E-001	2,000000000000000E+000	-1,2433819E-001	40	3,2950027E-004
2	1	0	1	1	1,983796410395153E+005	1,7112442E+000	1,7105954E+000	2,187077542976483E-001	2,000000000000000E+000	-1,1973514E-001	40	3,7412049E-004
2	1	0	1	1	1,984018542429921E+005	1,7312360E+000	1,7305889E+000	2,387695954136779E-001	2,000000000000000E+000	-1,1464482E-001	40	4,1321202E-004
2	1	0	1	1	1,984240674464656E+005	1,7512280E+000	1,7505931E+000	2,547746673058997E-001	2,000000000000000E+000	-1,0915339E-001	40	4,4600677E-004
2	1	0	1	1	1,984462806499420E+005	1,7712198E+000	1,7705755E+000	2,662591636830787E-001	2,000000000000000E+000	-1,0335533E-001	40	4,7143197E-004
2	1	0	1	1	1,984684938534182E+005	1,7912116E+000	1,7905387E+000	2,726644387864461E-001	2,000000000000000E+000	-9,7357556E-002	40	4,8821623E-004
2	1	0	1	1	1,984907070568916E+005	1,8112035E+000	1,8105602E+000	2,738630555007031E-001	2,000000000000000E+000	-9,1276154E-002	40	4,9584557E-004
2	1	0	1	1	1,985129201603691E+005	1,8311954E+000	1,8305674E+000	2,698542376932975E-001	2,000000000000000E+000	-8,5226350E-002	40	4,9398636E-004
2	1	0	1	1	1,985351334638442E+005	1,8511871E+000	1,8505497E+000	2,614810646030534E-001	2,000000000000000E+000	-7,9316229E-002	40	4,8388372E-004
2	1	0	1	1	1,985573466673188E+005	1,8711790E+000	1,8705287E+000	2,496247789896580E-001	2,000000000000000E+000	-7,3633216E-002	40	4,6693030E-004
2	1	0	1	1	1,985795597707962E+005	1,8911710E+000	1,8905367E+000	2,358717852341083E-001	2,000000000000000E+000	-6,8237104E-002	40	4,4592426E-004
2	1	0	1	1	1,986017729742709E+005	1,9111629E+000	1,9105378E+000	2,210899028393449E-001	2,000000000000000E+000	-6,3159250E-002	40	4,2240063E-004
2	1	0	1	1	1,986239860777459E+005	1,9311545E+000	1,9305236E+000	2,059100413635329E-001	2,000000000000000E+000	-5,8415480E-002	40	3,9751420E-004
2	1	0	1	1	1,986461992812234E+005	1,9511462E+000	1,9505162E+000	1,908101713917123E-001	2,000000000000000E+000	-5,4007705E-002	40	3,7217833E-004
2	1	0	1	1	1,986684124846966E+005	1,9711381E+000	1,9705153E+000	1,760638686139642E-001	2,000000000000000E+000	-4,9932230E-002	40	3,4693655E-004
2	1	0	1	1	1,986906256881728E+005	1,9911301E+000	1,9905399E+000	1,618480635993698E-001	2,000000000000000E+000	-4,6178997E-002	40	3,2216503E-004
2	1	0	1	1	1,987128388916496E+005	2,0111217E+000	2,0104992E+000	1,483468032514481E-001	2,000000000000000E+000	-4,2734157E-002	40	2,9825114E-004
2	1	0	1	1	1,987350523951231E+005	2,0311139E+000	2,0305028E+000	1,356726788422802E-001	2,000000000000000E+000	-3,9579567E-002	40	2,7548376E-004
2	1	0	1	1	1,987572653985995E+005	2,0511057E+000	2,0504959E+000	1,239557981652315E-001	2,000000000000000E+000	-3,6696374E-002	40	2,5417085E-004
2	1	0	1	1	1,987794786020759E+005	2,0710974E+000	2,0704827E+000	1,131502801104305E-001	2,000000000000000E+000	-3,4062948E-002	40	2,3427571E-004
2	1	0	1	1	1,988016918055490E+005	2,0910892E+000	2,0905147E+000	1,033841665774194E-001	2,000000000000000E+000	-3,1657968E-002	40	2,1612612E-004
2	1	0	1	1	1,988239050090262E+005	2,1110811E+000	2,1105103E+000	9,438067470596567E-002	2,000000000000000E+000	-2,9461538E-002	40	1,9919139E-004
2	1	0	1	1	1,988461182125020E+005	2,1310730E+000	2,1305032E+000	8,622850618027222E-002	2,000000000000000E+000	-2,7455602E-002	40	1,8371010E-004
2	1	0	1	1	1,988683314159755E+005	2,1510649E+000	2,1504750E+000	7,881718105451596E-002	2,000000000000000E+000	-2,5622498E-002	40	1,6949438E-004
2	1	0	1	1	1,988905446194529E+005	2,1710567E+000	2,1704736E+000	7,209884372523769E-002	2,000000000000000E+000	-2,3946522E-002	40	1,5648863E-004
2	1	0	1	1	1,989127576229284E+005	2,1910484E+000	2,1904612E+000	6,602565709525954E-002	2,000000000000000E+000	-2,2411939E-002	40	1,4462664E-004
2	1	0	1	1	1,989349710264031E+005	2,2110405E+000	2,2104492E+000	6,059322622884289E-002	2,000000000000000E+000	-2,1005258E-002	40	1,3393824E-004
2	1	0	1	1	1,989571842298801E+005	2,2310324E+000	2,2304623E+000	5,567046498676875E-002	2,000000000000000E+000	-1,9713702E-002	40	1,2417087E-004
2	1	0	1	1	1,989793972333544E+005	2,2510242E+000	2,2504194E+000	5,123482366321086E-002	2,000000000000000E+000	-1,8525830E-002	40	1,1529984E-004
2	1	0	1	1	1,990017216368467E+005	2,2711155E+000	2,2704749E+000	4,738674274473273E-002	2,000000000000000E+000	-1,7425107E-002	41	1,0759041E-004
2	1	0	1	1	1,990239346403237E+005	2,2911077E+000	2,2904346E+000	4,384467480354637E-002	2,000000000000000E+000	-1,6411023E-002	41	1,0042336E-004
2	1	0	1	1	1,990461478437986E+005	2,3110995E+000	2,3104730E+000	4,070587075123991E-002	2,000000000000000E+000	-1,5471132E-002	41	9,4049814E-005
2	1	0	1	1	1,990683610472737E+005	2,3310912E+000	2,3304605E+000	3,786381709796329E-002	2,000000000000000E+000	-1,4597170E-002	41	8,8240129E-005
2	1	0	1	1	1,990905742507507E+005	2,3510835E+000	2,3504503E+000	3,539190129993330E-002	2,000000000000000E+000	-1,3782168E-002	41	8,3186904E-005
2	1	0	1	1	1,991127874542247E+005	2,3710752E+000	2,3704555E+000	3,324409426583663E-002	2,000000000000000E+000	-1,3018907E-002	41	7,8803649E-005
2	1	0	1	1	1,991350007577005E+005	2,3910670E+000	2,3904631E+000	3,135863575691589E-002	2,000000000000000E+000	-1,2300406E-002	41	7,4961659E-005
2	1	0	1	1	1,991572139611770E+005	2,4110584E+000	2,4104657E+000	2,980607056438533E-002	2,000000000000000E+000	-1,1620020E-002	41	7,1846509E-005
2	1	0	1	1	1,991794270646507E+005	2,4310508E+000	2,4304657E+000	2,843239338696037E-002	2,000000000000000E+000	-1,0972290E-002	41	6,9103960E-005
2	1	0	1	1	1,992016402681271E+005	2,4510424E+000	2,4504368E+000	2,727090564073026E-002	2,000000000000000E+000	-1,0352422E-002	41	6,6825633E-005
2	1	0	1	1	1,992238534716032E+005	2,4710343E+000	2,4704235E+000	2,627272452236984E-002	2,000000000000000E+000	-9,7564785E-003	41	6,4904758E-005
2	1	0	1	1	1,992460666750767E+005	2,4910262E+000	2,4904335E+000	2,545621343112503E-002	2,000000000000000E+000	-9,1805812E-003	41	6,3397005E-005
2	1	0	1	1	1,992682796785538E+005	2,5110180E+000	2,5104446E+000	2,471071454505044E-002	2,000000000000000E+000	-8,6223613E-003	41	6,2034880E-005
2	1	0	1	1	1,992904928820296E+005	2,5310099E+000	2,5303822E+000	2,403366927181367E-002	2,000000000000000E+000	-8,0797970E-003	41	6,0814367E-005
2	1	0	1	1	1,993127060855038E+005	2,5510018E+000	2,5504262E+000	2,339841650851995E-002	2,000000000000000E+000	-7,5516826E-003	41	5,9675935E-005
2	1	0	1	1	1,993349193889806E+005	2,5709934E+000	2,5703769E+000	2,276965896561423E-002	2,000000000000000E+000	-7,0376550E-003	41	5,8526606E-005
2	1	0	1	1	1,993571325924555E+005	2,5909851E+000	2,5903840E+000	2,221036761043976E-002	2,000000000000000E+000	-6,5367385E-003	41	5,7533380E-005
2	1	0	1	1	1,993793457959306E+005	2,6109769E+000	2,6103792E+000	2,171532675176868E-002	2,000000000000000E+000	-6,0473988E-003	41	5,6685236E-005
2	1	0	1	1	1,994015588994080E+005	2,6309690E+000	2,6303933E+000	2,135674858450411E-002	2,000000000000000E+000	-5,5676075E-003	41	5,6176646E-005
2	1	0	1	1	1,994237721028822E+005	2,6509612E+000	2,6503675E+000	2,104426583344979E-002	2,000000000000000E+000	-5,0950400E-003	41	5,5775039E-005
2	1	0	1	1	1,994459853063574E+005	2,6709528E+000	2,6703849E+000	2,090885093358175E-002	2,000000000000000E+000	-4,6275528E-003	41	5,5834680E-005
2	1	0	1	1	1,994681983098346E+005	2,6909447E+000	2,6903756E+000	2,083459357835948E-002	2,000000000000000E+000	-4,1629490E-003	41	5,6052882E-005
2	1	0	1	0	1,994888576130656E+005	2,7095368E+000	2,7089727E+000	2,084634224063739E-002	2,000000000000000E+000	-3,7310896E-003	41	5,6472170E-005
2	1	0	1	0	1,995110708165411E+005	2,7295287E+000	2,7289526E+000	2,102204142581660E-002	2,000000000000000E+000	-3,2649445E-003	41	5,7368157E-005
2	1	0	0	0	1,995245706186532E+005	2,7417748E+000	2,7412033E+000	2,149998472520598E-002	2,000000000000000E+000	-2,9790299E-003	41	5,8935828E-005