File: Dati/201104_LTO-CNT/CV_LTO_Al_grafite_01_1mVs_08_CV_C03.mpt
EC-Lab ASCII FILE
Nb header lines : 57

Cyclic Voltammetry

Run on channel : 3 (SN 6807)
User :
Electrode connection : standard
Ewe ctrl range : min = 0,00 V, max = 5,00 V
Ewe,I filtering : 50 kHz
Safety Limits :
	Do not start on E overload
Channel : Grounded
Acquisition started on : 11/04/2020 18:19:46
Saved on :
	File : CV_LTO_Al_grafite_01_1mVs_08_CV_C03.mpr
	Directory : C:\Users\labsuperfici\Desktop\Biologic\Users\Prisca Viviani\201104\
	Host : 10.78.33.0
Device : VSP-300 (SN 0638)
Address : USB
EC-Lab for windows v11.31 (software)
Internet server v11.30 (firmware)
Command interpretor v11.31 (firmware)
Electrode material :
Initial state :
Electrolyte :
Comments :
Cable : standard
Reference electrode : SCE Saturated Calomel Electrode (0,241 V)
Electrode surface area : 0,001 cm²
Characteristic mass : 0,001 g
Equivalent Weight : 0,000 g/eq.
Density : 0,000 g/cm3
Cycle Definition : Charge/Discharge alternance
Ei (V)              0,000
vs.                 Eoc
dE/dt               0,700
dE/dt unit          mV/s
E1 (V)              1,000
vs.                 Ref
Step percent        50
N                   10
E range min (V)     0,000
E range max (V)     5,000
I Range             Auto
I Range min         Unset
I Range max         Unset
I Range init        Unset
Bandwidth           8
E2 (V)              2,700
vs.                 Ref
nc cycles           1
Reverse Scan        1
Ef (V)              0,000
vs.                 Eoc

mode	ox/red	error	control changes	counter inc.	time/s	control/V	Ewe/V	<I>/mA	cycle number	(Q-Qo)/C	I Range	P/W
2	1	0	0	0	1,734378475370780E+005	2,7417748E+000	2,7411919E+000	1,638155244290829E-002	1,000000000000000E+000	0,0000000E+000	41	4,4904977E-005
2	1	0	1	0	1,734657648414478E+005	2,7222319E+000	2,7217090E+000	6,382805933160582E-003	1,000000000000000E+000	2,4477564E-004	41	1,7372140E-005
2	1	0	1	0	1,734943245459162E+005	2,7022402E+000	2,7016602E+000	3,903175646973431E-003	1,000000000000000E+000	3,8680318E-004	42	1,0545054E-005
2	1	0	1	0	1,735228844503853E+005	2,6822479E+000	2,6816738E+000	2,259301049483868E-003	1,000000000000000E+000	4,7162472E-004	42	6,0587085E-006
2	1	0	1	0	1,735514442548528E+005	2,6622562E+000	2,6616981E+000	1,047347091545652E-003	1,000000000000000E+000	5,1638484E-004	42	2,7877218E-006
2	1	0	1	0	1,735800040593212E+005	2,6422644E+000	2,6417220E+000	1,424174438350299E-004	1,000000000000000E+000	5,3119636E-004	43	3,7622729E-007
2	0	0	1	0	1,736085636637895E+005	2,6222725E+000	2,6218324E+000	-6,046927948203315E-004	1,000000000000000E+000	5,2260887E-004	43	-1,5854032E-006
2	0	0	1	0	1,736371233682589E+005	2,6022811E+000	2,6017635E+000	-1,223369185961023E-003	1,000000000000000E+000	4,9426843E-004	42	-3,1829172E-006
2	0	0	1	0	1,736656830727276E+005	2,5822890E+000	2,5817978E+000	-1,742994377555648E-003	1,000000000000000E+000	4,5013093E-004	42	-4,5000593E-006
2	0	0	1	0	1,736942428771961E+005	2,5622971E+000	2,5617864E+000	-2,191548992328398E-003	1,000000000000000E+000	3,9207313E-004	42	-5,6142803E-006
2	0	0	1	0	1,737228026816635E+005	2,5423050E+000	2,5418043E+000	-2,600018419254547E-003	1,000000000000000E+000	3,2147797E-004	42	-6,6087382E-006
2	0	0	1	0	1,737513624861320E+005	2,5223131E+000	2,5218315E+000	-3,020832370940384E-003	1,000000000000000E+000	2,3963249E-004	42	-7,6180304E-006
2	0	0	1	0	1,737799220906010E+005	2,5023215E+000	2,5018551E+000	-3,323864570310878E-003	1,000000000000000E+000	1,4731138E-004	42	-8,3158275E-006
2	0	0	1	0	1,738084819950701E+005	2,4823294E+000	2,4818213E+000	-3,681472840105615E-003	1,000000000000000E+000	4,5298286E-005	42	-9,1367574E-006
2	0	0	1	0	1,738370418995386E+005	2,4623377E+000	2,4618597E+000	-3,964407752761905E-003	1,000000000000000E+000	-6,5448228E-005	42	-9,7598158E-006
2	0	0	1	0	1,738656012040069E+005	2,4423459E+000	2,4418507E+000	-4,253674126280443E-003	1,000000000000000E+000	-1,8454318E-004	42	-1,0386837E-005
2	0	0	1	0	1,738941610084744E+005	2,4223540E+000	2,4218750E+000	-4,495109966208104E-003	1,000000000000000E+000	-3,1131419E-004	42	-1,0886594E-005
2	0	0	1	0	1,739227208129428E+005	2,4023619E+000	2,4018793E+000	-4,759507805798299E-003	1,000000000000000E+000	-4,4543762E-004	42	-1,1431764E-005
2	0	0	1	0	1,739512807174121E+005	2,3823702E+000	2,3818958E+000	-5,025406922471755E-003	1,000000000000000E+000	-5,8688456E-004	42	-1,1969995E-005
2	0	0	1	0	1,739798405218814E+005	2,3623786E+000	2,3619120E+000	-5,271514074829273E-003	1,000000000000000E+000	-7,3547597E-004	42	-1,2450852E-005
2	0	0	1	0	1,740084003263498E+005	2,3423865E+000	2,3419371E+000	-5,520993516339029E-003	1,000000000000000E+000	-8,9129771E-004	42	-1,2929820E-005
2	0	0	1	0	1,740369599308176E+005	2,3223951E+000	2,3219309E+000	-5,786113485126528E-003	1,000000000000000E+000	-1,0546026E-003	42	-1,3434956E-005
2	0	0	1	0	1,740655195352859E+005	2,3024032E+000	2,3019240E+000	-6,077547523016674E-003	1,000000000000000E+000	-1,2257667E-003	42	-1,3990052E-005
2	0	0	1	0	1,740940793397542E+005	2,2824113E+000	2,2819541E+000	-6,390673787529930E-003	1,000000000000000E+000	-1,4053334E-003	42	-1,4583224E-005
2	0	0	1	0	1,741226391442235E+005	2,2624197E+000	2,2619762E+000	-6,727067154018190E-003	1,000000000000000E+000	-1,5942489E-003	42	-1,5216466E-005
2	0	0	1	0	1,741511988486922E+005	2,2424276E+000	2,2419546E+000	-7,118466432467135E-003	1,000000000000000E+000	-1,7935266E-003	42	-1,5959278E-005
2	0	0	1	0	1,741797586531607E+005	2,2224357E+000	2,2219839E+000	-7,522394624992365E-003	1,000000000000000E+000	-2,0041221E-003	42	-1,6714639E-005
2	0	0	1	0	1,742083184576286E+005	2,2024438E+000	2,2019966E+000	-7,997082842201991E-003	1,000000000000000E+000	-2,2274896E-003	42	-1,7609549E-005
2	0	0	1	0	1,742368782620966E+005	2,1824517E+000	2,1819882E+000	-8,500316120784196E-003	1,000000000000000E+000	-2,4651564E-003	42	-1,8547589E-005
2	0	0	1	0	1,742654377665655E+005	2,1624601E+000	2,1620014E+000	-9,100830944986246E-003	1,000000000000000E+000	-2,7184321E-003	42	-1,9676008E-005
2	0	0	1	0	1,742939976710349E+005	2,1424682E+000	2,1420293E+000	-9,735096116265982E-003	1,000000000000000E+000	-2,9890086E-003	42	-2,0852862E-005
2	0	0	1	0	1,743225573755032E+005	2,1224766E+000	2,1219349E+000	-1,048378029829145E-002	1,000000000000000E+000	-3,2799044E-003	41	-2,2245898E-005
2	0	0	1	0	1,743511171799712E+005	2,1024849E+000	2,1019537E+000	-1,124035283810939E-002	1,000000000000000E+000	-3,5919009E-003	41	-2,3626702E-005
2	0	0	1	0	1,743796769844391E+005	2,0824926E+000	2,0819764E+000	-1,208696119817630E-002	1,000000000000000E+000	-3,9272201E-003	41	-2,5164769E-005
2	0	0	1	0	1,744082367889076E+005	2,0625010E+000	2,0619037E+000	-1,305204010387306E-002	1,000000000000000E+000	-4,2882464E-003	41	-2,6912050E-005
2	0	0	1	0	1,744367963933767E+005	2,0425088E+000	2,0419631E+000	-1,405080466586212E-002	1,000000000000000E+000	-4,6769297E-003	41	-2,8691225E-005
2	0	0	1	0	1,744653559978458E+005	2,0225172E+000	2,0219626E+000	-1,515974981592810E-002	1,000000000000000E+000	-5,0957263E-003	41	-3,0652449E-005
2	0	0	1	0	1,744939158023144E+005	2,0025253E+000	2,0019531E+000	-1,634740111236441E-002	1,000000000000000E+000	-5,5473950E-003	41	-3,2726730E-005
2	0	0	1	0	1,745224757067822E+005	1,9825336E+000	1,9819390E+000	-1,763962697057347E-002	1,000000000000000E+000	-6,0342574E-003	41	-3,4960663E-005
2	0	0	0	0	1,745510355112501E+005	1,9625416E+000	1,9619672E+000	-1,900774300401797E-002	1,000000000000000E+000	-6,5593715E-003	41	-3,7292568E-005
2	0	0	1	0	1,745795952157186E+005	1,9425499E+000	1,9419568E+000	-2,049616509993049E-002	1,000000000000000E+000	-7,1257111E-003	41	-3,9802668E-005
2	0	0	1	0	1,746081550201882E+005	1,9225583E+000	1,9219874E+000	-2,210243832340103E-002	1,000000000000000E+000	-7,7356747E-003	41	-4,2480609E-005
2	0	0	1	0	1,746367148246565E+005	1,9025664E+000	1,9020195E+000	-2,375992227682186E-002	1,000000000000000E+000	-8,3927121E-003	41	-4,5191835E-005
2	0	0	1	0	1,746652745291255E+005	1,8825743E+000	1,8819963E+000	-2,560604223429125E-002	1,000000000000000E+000	-9,0994760E-003	41	-4,8190475E-005
2	0	0	1	0	1,746938343335930E+005	1,8625824E+000	1,8619962E+000	-2,748068890314526E-002	1,000000000000000E+000	-9,8591922E-003	41	-5,1168936E-005
2	0	0	1	0	1,747223941380612E+005	1,8425907E+000	1,8420306E+000	-2,952888465620895E-002	1,000000000000000E+000	-1,0674472E-002	41	-5,4393109E-005
2	0	0	1	0	1,747509538425297E+005	1,8225989E+000	1,8220488E+000	-3,162794115189610E-002	1,000000000000000E+000	-1,1549188E-002	41	-5,7627651E-005
2	0	0	1	0	1,747795137469996E+005	1,8026069E+000	1,8020504E+000	-3,384786755499697E-002	1,000000000000000E+000	-1,2486135E-002	41	-6,0995560E-005
2	0	0	1	0	1,748080735514676E+005	1,7826152E+000	1,7820479E+000	-3,623074223815903E-002	1,000000000000000E+000	-1,3488604E-002	41	-6,4564920E-005
2	0	0	1	0	1,748366332559367E+005	1,7626232E+000	1,7620794E+000	-3,873860018710779E-002	1,000000000000000E+000	-1,4561182E-002	41	-6,8260488E-005
2	0	0	1	0	1,748651929604039E+005	1,7426314E+000	1,7421077E+000	-4,141307168872294E-002	1,000000000000000E+000	-1,5707251E-002	41	-7,2146031E-005
2	0	0	1	0	1,748937526648722E+005	1,7226398E+000	1,7221262E+000	-4,422742185111106E-002	1,000000000000000E+000	-1,6931994E-002	41	-7,6165205E-005
2	0	0	1	0	1,749223125693412E+005	1,7026478E+000	1,7021308E+000	-4,728271943781093E-002	1,000000000000000E+000	-1,8240947E-002	41	-8,0481375E-005
2	0	0	1	0	1,749508723738105E+005	1,6826558E+000	1,6821314E+000	-5,066321478131480E-002	1,000000000000000E+000	-1,9640943E-002	41	-8,5222186E-005
2	0	0	1	0	1,749794321782789E+005	1,6626641E+000	1,6621314E+000	-5,437747117355562E-002	1,000000000000000E+000	-2,1141745E-002	41	-9,0382506E-005
2	0	0	1	0	1,750079919827469E+005	1,6426721E+000	1,6421514E+000	-5,865138537528414E-002	1,000000000000000E+000	-2,2756092E-002	41	-9,6314448E-005
2	0	0	1	0	1,750365516872150E+005	1,6226804E+000	1,6221913E+000	-6,371289258349355E-002	1,000000000000000E+000	-2,4503253E-002	41	-1,0335450E-004
2	0	0	1	0	1,750651113916829E+005	1,6026886E+000	1,6021734E+000	-6,980112151006956E-002	1,000000000000000E+000	-2,6409136E-002	41	-1,1183351E-004
2	0	0	0	0	1,750936711961527E+005	1,5826967E+000	1,5821825E+000	-7,719646973074101E-002	1,000000000000000E+000	-2,8506817E-002	41	-1,2213891E-004
2	0	0	1	0	1,751222310006213E+005	1,5627049E+000	1,5622131E+000	-8,639139696559285E-002	1,000000000000000E+000	-3,0841099E-002	41	-1,3496177E-004
2	0	0	1	0	1,751507907050909E+005	1,5427129E+000	1,5422403E+000	-9,783166373946117E-002	1,000000000000000E+000	-3,3467662E-002	41	-1,5087993E-004
2	0	0	1	0	1,751793505095579E+005	1,5227213E+000	1,5221558E+000	-1,132525022324820E-001	1,000000000000000E+000	-3,6476113E-002	40	-1,7238795E-004
2	0	0	1	0	1,752079103140258E+005	1,5027295E+000	1,5021619E+000	-1,324693067589320E-001	1,000000000000000E+000	-3,9979674E-002	40	-1,9899034E-004
2	0	0	1	0	1,752364701184945E+005	1,4827375E+000	1,4821837E+000	-1,536979639605482E-001	1,000000000000000E+000	-4,4067759E-002	40	-2,2780862E-004
2	0	0	1	0	1,752650298229640E+005	1,4627457E+000	1,4621850E+000	-1,741629682606862E-001	1,000000000000000E+000	-4,8757527E-002	40	-2,5465849E-004
2	0	0	1	0	1,752935895274328E+005	1,4427538E+000	1,4421847E+000	-1,918296856909820E-001	1,000000000000000E+000	-5,3996298E-002	40	-2,7665382E-004
2	0	0	1	0	1,753221494319011E+005	1,4227619E+000	1,4221809E+000	-2,049030750686320E-001	1,000000000000000E+000	-5,9676904E-002	40	-2,9140923E-004
2	0	0	1	0	1,753507091363687E+005	1,4027703E+000	1,4022064E+000	-2,120891570285837E-001	1,000000000000000E+000	-6,5648049E-002	40	-2,9739278E-004
2	0	0	1	0	1,753792690408370E+005	1,3827780E+000	1,3822122E+000	-2,132121175159477E-001	1,000000000000000E+000	-7,1738005E-002	40	-2,9470437E-004
2	0	0	1	0	1,754078288453058E+005	1,3627864E+000	1,3622153E+000	-2,088050331218128E-001	1,000000000000000E+000	-7,7778541E-002	40	-2,8443741E-004
2	0	0	1	0	1,754363885497754E+005	1,3427947E+000	1,3421900E+000	-2,003508535347127E-001	1,000000000000000E+000	-8,3630599E-002	40	-2,6890892E-004
2	0	0	1	0	1,754649481542436E+005	1,3228029E+000	1,3222132E+000	-1,899318672941952E-001	1,000000000000000E+000	-8,9207433E-002	40	-2,5113040E-004
2	0	0	1	0	1,754935079587121E+005	1,3028110E+000	1,3022131E+000	-1,792147501335268E-001	1,000000000000000E+000	-9,4480351E-002	40	-2,3337579E-004
2	0	0	1	0	1,755220678631794E+005	1,2828190E+000	1,2821957E+000	-1,691147193897029E-001	1,000000000000000E+000	-9,9454418E-002	40	-2,1683816E-004
2	0	0	1	0	1,755506275676480E+005	1,2628272E+000	1,2622364E+000	-1,598666588168636E-001	1,000000000000000E+000	-1,0415245E-001	40	-2,0178950E-004
2	0	0	1	0	1,755791873721171E+005	1,2428354E+000	1,2422298E+000	-1,515982946444940E-001	1,000000000000000E+000	-1,0859962E-001	40	-1,8831993E-004
2	0	0	1	0	1,756077470765864E+005	1,2228435E+000	1,2222289E+000	-1,441629121509140E-001	1,000000000000000E+000	-1,1282312E-001	40	-1,7620008E-004
2	0	0	1	0	1,756363068810548E+005	1,2028515E+000	1,2022494E+000	-1,376138153306481E-001	1,000000000000000E+000	-1,1684684E-001	40	-1,6544612E-004
2	0	0	1	0	1,756648666855227E+005	1,1828598E+000	1,1822729E+000	-1,318055109376989E-001	1,000000000000000E+000	-1,2069450E-001	40	-1,5583009E-004
2	0	0	1	0	1,756934263899904E+005	1,1628680E+000	1,1622797E+000	-1,267711574366066E-001	1,000000000000000E+000	-1,2438770E-001	40	-1,4734354E-004
2	0	0	1	0	1,757219861944590E+005	1,1428761E+000	1,1422802E+000	-1,224000906238287E-001	1,000000000000000E+000	-1,2794656E-001	40	-1,3981521E-004
2	0	0	1	0	1,757505458989284E+005	1,1228844E+000	1,1222688E+000	-1,186653348342159E-001	1,000000000000000E+000	-1,3138948E-001	40	-1,3317440E-004
2	0	0	1	0	1,757791057033974E+005	1,1028924E+000	1,1022896E+000	-1,155335651813896E-001	1,000000000000000E+000	-1,3473405E-001	40	-1,2735144E-004
2	0	0	1	0	1,758076656078659E+005	1,0829006E+000	1,0823007E+000	-1,129920814113439E-001	1,000000000000000E+000	-1,3799828E-001	40	-1,2229140E-004
2	0	0	0	0	1,758362253123336E+005	1,0629086E+000	1,0623050E+000	-1,109539190349116E-001	1,000000000000000E+000	-1,4119722E-001	40	-1,1786690E-004
2	0	0	1	0	1,758647849168018E+005	1,0429169E+000	1,0423073E+000	-1,094861195534355E-001	1,000000000000000E+000	-1,4434601E-001	40	-1,1411818E-004
2	0	0	1	0	1,758933447212703E+005	1,0229251E+000	1,0223129E+000	-1,085811971706865E-001	1,000000000000000E+000	-1,4746076E-001	40	-1,1100396E-004
2	0	0	1	0	1,759219046257399E+005	1,0029334E+000	1,0023328E+000	-1,081650229677678E-001	1,000000000000000E+000	-1,5055673E-001	40	-1,0841735E-004
2	0	0	1	0	1,759483231298733E+005	1,0155280E+000	1,0149192E+000	-7,161119025253893E-002	1,000000000000000E+000	-1,5294127E-001	40	-7,2679570E-005
2	0	0	0	0	1,759768829343417E+005	1,0355198E+000	1,0349524E+000	-4,697884948614367E-002	1,000000000000000E+000	-1,5460455E-001	41	-4,8620874E-005
2	0	0	1	0	1,760054426388093E+005	1,0555117E+000	1,0549512E+000	-3,124972166828882E-002	1,000000000000000E+000	-1,5570489E-001	41	-3,2966931E-005
2	0	0	0	0	1,760340025432778E+005	1,0755037E+000	1,0749146E+000	-2,008488150634768E-002	1,000000000000000E+000	-1,5642673E-001	41	-2,1589532E-005
2	0	0	1	0	1,760625622477469E+005	1,0954956E+000	1,0949018E+000	-1,184109254588545E-002	1,000000000000000E+000	-1,5687415E-001	41	-1,2964833E-005
2	0	0	1	0	1,760911221522163E+005	1,1154873E+000	1,1148717E+000	-5,501552073056786E-003	1,000000000000000E+000	-1,5711550E-001	41	-6,1335249E-006
2	0	0	1	0	1,761196819566847E+005	1,1354792E+000	1,1349299E+000	-4,107622197075615E-004	1,000000000000000E+000	-1,5719481E-001	43	-4,6618632E-007
2	1	0	1	0	1,761482416611528E+005	1,1554708E+000	1,1548426E+000	3,550456266869548E-003	1,000000000000000E+000	-1,5714702E-001	42	4,1002181E-006
2	1	0	1	0	1,761768014656203E+005	1,1754628E+000	1,1748338E+000	6,869361058355589E-003	1,000000000000000E+000	-1,5699457E-001	42	8,0703576E-006
2	1	0	1	0	1,762053611700885E+005	1,1954546E+000	1,1947513E+000	9,614625743930377E-003	1,000000000000000E+000	-1,5675573E-001	42	1,1487086E-005
2	1	0	1	0	1,762339210745583E+005	1,2154466E+000	1,2148101E+000	1,206696580921968E-002	1,000000000000000E+000	-1,5644184E-001	41	1,4659072E-005
2	1	0	1	0	1,762624809790270E+005	1,2354385E+000	1,2347869E+000	1,414451794761021E-002	1,000000000000000E+000	-1,5606469E-001	41	1,7465465E-005
2	1	0	1	0	1,762910406834963E+005	1,2554302E+000	1,2547780E+000	1,599627225365796E-002	1,000000000000000E+000	-1,5563174E-001	41	2,0071771E-005
2	1	0	1	0	1,763196003879635E+005	1,2754220E+000	1,2747943E+000	1,767822543645918E-002	1,000000000000000E+000	-1,5514843E-001	41	2,2536102E-005
2	1	0	0	0	1,763481601924314E+005	1,2954139E+000	1,2947525E+000	1,918479429461144E-002	1,000000000000000E+000	-1,5461953E-001	41	2,4839561E-005
2	1	0	1	0	1,763767199968999E+005	1,3154057E+000	1,3147486E+000	2,065239281268548E-002	1,000000000000000E+000	-1,5404762E-001	41	2,7152706E-005
2	1	0	0	0	1,764052798013696E+005	1,3353975E+000	1,3347530E+000	2,208345948332477E-002	1,000000000000000E+000	-1,5343532E-001	41	2,9475965E-005
2	1	0	1	0	1,764338397058379E+005	1,3553894E+000	1,3547382E+000	2,339261280388799E-002	1,000000000000000E+000	-1,5278348E-001	41	3,1690866E-005
2	1	0	1	0	1,764623994103065E+005	1,3753812E+000	1,3747294E+000	2,476419240954464E-002	1,000000000000000E+000	-1,5209323E-001	41	3,4044064E-005
2	1	0	1	0	1,764909592147740E+005	1,3953731E+000	1,3946905E+000	2,609892054448082E-002	1,000000000000000E+000	-1,5136470E-001	41	3,6399917E-005
2	1	0	0	0	1,765195190192426E+005	1,4153650E+000	1,4147170E+000	2,746870194953616E-002	1,000000000000000E+000	-1,5059726E-001	41	3,8860439E-005
2	1	0	1	0	1,765480788237114E+005	1,4353567E+000	1,4346985E+000	2,893267942216949E-002	1,000000000000000E+000	-1,4978953E-001	41	4,1509669E-005
2	1	0	1	0	1,765766385281808E+005	1,4553487E+000	1,4546673E+000	3,046466471618381E-002	1,000000000000000E+000	-1,4893895E-001	41	4,4315952E-005
2	1	0	1	0	1,766051984326495E+005	1,4753406E+000	1,4746891E+000	3,215966145797333E-002	1,000000000000000E+000	-1,4804249E-001	41	4,7425503E-005
2	1	0	0	0	1,766337582371179E+005	1,4953324E+000	1,4946804E+000	3,391721002093739E-002	1,000000000000000E+000	-1,4709686E-001	41	5,0695387E-005
2	1	0	1	0	1,766623180415849E+005	1,5153242E+000	1,5146239E+000	3,586951305013963E-002	1,000000000000000E+000	-1,4609841E-001	41	5,4328822E-005
2	1	0	1	0	1,766908777460535E+005	1,5353159E+000	1,5346439E+000	3,817931440727751E-002	1,000000000000000E+000	-1,4503989E-001	41	5,8591653E-005
2	1	0	1	0	1,767194375505227E+005	1,5553080E+000	1,5546265E+000	4,141719505013741E-002	1,000000000000000E+000	-1,4390408E-001	41	6,4388267E-005
2	1	0	1	0	1,767479973549917E+005	1,5753000E+000	1,5746236E+000	4,644742967435254E-002	1,000000000000000E+000	-1,4265260E-001	41	7,3137220E-005
2	1	0	1	0	1,767765572594604E+005	1,5952915E+000	1,5946226E+000	5,832538548286259E-002	1,000000000000000E+000	-1,4118615E-001	41	9,3006980E-005
2	1	0	1	0	1,768051169639286E+005	1,6152834E+000	1,6145521E+000	8,580936772102077E-002	1,000000000000000E+000	-1,3915601E-001	41	1,3854369E-004
2	1	0	1	0	1,768336767683961E+005	1,6352752E+000	1,6346347E+000	1,194095496822070E-001	1,000000000000000E+000	-1,3622272E-001	40	1,9519099E-004
2	1	0	1	0	1,768622364728644E+005	1,6552670E+000	1,6546030E+000	1,513413825432308E-001	1,000000000000000E+000	-1,3234554E-001	40	2,5040991E-004
2	1	0	1	0	1,768907963773340E+005	1,6752590E+000	1,6746124E+000	1,795480297826964E-001	1,000000000000000E+000	-1,2760653E-001	40	3,0067336E-004
2	1	0	1	0	1,769193561818029E+005	1,6952509E+000	1,6945916E+000	2,031503486499332E-001	1,000000000000000E+000	-1,2212639E-001	40	3,4425687E-004
2	1	0	1	0	1,769479160862714E+005	1,7152426E+000	1,7146045E+000	2,219205562122282E-001	1,000000000000000E+000	-1,1604115E-001	40	3,8050598E-004
2	1	0	1	0	1,769764758907398E+005	1,7352344E+000	1,7345680E+000	2,352565751136457E-001	1,000000000000000E+000	-1,0949636E-001	40	4,0806853E-004
2	1	0	1	0	1,770050355952075E+005	1,7552263E+000	1,7545643E+000	2,427473281149366E-001	1,000000000000000E+000	-1,0265270E-001	40	4,2591579E-004
2	1	0	1	0	1,770335953996758E+005	1,7752180E+000	1,7745669E+000	2,439545133860115E-001	1,000000000000000E+000	-9,5685877E-002	40	4,3291360E-004
2	1	0	1	0	1,770621552041452E+005	1,7952100E+000	1,7945876E+000	2,390460079704689E-001	1,000000000000000E+000	-8,8772900E-002	40	4,2898901E-004
2	1	0	1	0	1,770907151086142E+005	1,8152019E+000	1,8145562E+000	2,291517178829459E-001	1,000000000000000E+000	-8,2075670E-002	40	4,1580867E-004
2	1	0	1	0	1,771192748130825E+005	1,8351938E+000	1,8345392E+000	2,159774714499312E-001	1,000000000000000E+000	-7,5711437E-002	40	3,9621914E-004
2	1	0	1	0	1,771478346175505E+005	1,8551854E+000	1,8545491E+000	2,013927550136063E-001	1,000000000000000E+000	-6,9747306E-002	40	3,7349274E-004
2	1	0	1	0	1,771763943220184E+005	1,8751771E+000	1,8745435E+000	1,863754101239268E-001	1,000000000000000E+000	-6,4208500E-002	40	3,4936881E-004
2	1	0	1	0	1,772049541264870E+005	1,8951693E+000	1,8945558E+000	1,715259109319406E-001	1,000000000000000E+000	-5,9096470E-002	40	3,2496540E-004
2	1	0	1	0	1,772335140309567E+005	1,9151613E+000	1,9145184E+000	1,570991098437031E-001	1,000000000000000E+000	-5,4402940E-002	40	3,0076914E-004
2	1	0	1	0	1,772620738354251E+005	1,9351530E+000	1,9345270E+000	1,433385772357417E-001	1,000000000000000E+000	-5,0112877E-002	40	2,7729236E-004
2	1	0	1	0	1,772906336398940E+005	1,9551448E+000	1,9545321E+000	1,303152843604609E-001	1,000000000000000E+000	-4,6205170E-002	40	2,5470540E-004
2	1	0	1	0	1,773191933443611E+005	1,9751365E+000	1,9744949E+000	1,182954823912197E-001	1,000000000000000E+000	-4,2655073E-002	40	2,3357382E-004
2	1	0	0	0	1,773477531488296E+005	1,9951284E+000	1,9945213E+000	1,073084113242732E-001	1,000000000000000E+000	-3,9433822E-002	40	2,1402891E-004
2	1	0	1	0	1,773763130532983E+005	2,0151200E+000	2,0145211E+000	9,731564629939354E-002	1,000000000000000E+000	-3,6512099E-002	40	1,9604442E-004
2	1	0	1	0	1,774048728577681E+005	2,0351117E+000	2,0345435E+000	8,833239788450387E-002	1,000000000000000E+000	-3,3861563E-002	40	1,7971611E-004
2	1	0	1	0	1,774334328622362E+005	2,0551040E+000	2,0545235E+000	8,021091458890917E-002	1,000000000000000E+000	-3,1454243E-002	40	1,6479520E-004
2	1	0	1	0	1,774619926667046E+005	2,0750959E+000	2,0744886E+000	7,294121450103369E-002	1,000000000000000E+000	-2,9266829E-002	40	1,5131572E-004
2	1	0	1	0	1,774905524711721E+005	2,0950875E+000	2,0944655E+000	6,643794495593902E-002	1,000000000000000E+000	-2,7275944E-002	40	1,3915198E-004
2	1	0	1	0	1,775191122756405E+005	2,1150796E+000	2,1144838E+000	6,059040749073930E-002	1,000000000000000E+000	-2,5461234E-002	40	1,2811743E-004
2	1	0	1	0	1,775476718801097E+005	2,1350710E+000	2,1344676E+000	5,530788928268726E-002	1,000000000000000E+000	-2,3805315E-002	40	1,1805290E-004
2	1	0	1	0	1,775762316845790E+005	2,1550632E+000	2,1545002E+000	5,063925661215890E-002	1,000000000000000E+000	-2,2292024E-002	40	1,0910229E-004
2	1	0	1	0	1,776049344890697E+005	2,1751549E+000	2,1744974E+000	4,643770378722595E-002	1,000000000000000E+000	-2,0898640E-002	41	1,0097866E-004
2	1	0	1	0	1,776334940935383E+005	2,1951466E+000	2,1945469E+000	4,264423577654650E-002	1,000000000000000E+000	-1,9625597E-002	41	9,3584778E-005
2	1	0	1	0	1,776620539980065E+005	2,2151387E+000	2,2144985E+000	3,918906978029973E-002	1,000000000000000E+000	-1,8455911E-002	41	8,6784137E-005
2	1	0	1	0	1,776906138024740E+005	2,2351303E+000	2,2344887E+000	3,614923281142862E-002	1,000000000000000E+000	-1,7378613E-002	41	8,0775055E-005
2	1	0	1	0	1,777191736069424E+005	2,2551227E+000	2,2545042E+000	3,346161852795848E-002	1,000000000000000E+000	-1,6383661E-002	41	7,5439362E-005
2	1	0	1	0	1,777477335114118E+005	2,2751141E+000	2,2744770E+000	3,103145415989854E-002	1,000000000000000E+000	-1,5461863E-002	41	7,0580332E-005
2	1	0	1	0	1,777762933158809E+005	2,2951062E+000	2,2944934E+000	2,892384148971797E-002	1,000000000000000E+000	-1,4604363E-002	41	6,6365566E-005
2	1	0	1	0	1,778048529203497E+005	2,3150978E+000	2,3144808E+000	2,709223993279658E-002	1,000000000000000E+000	-1,3803170E-002	41	6,2704472E-005
2	1	0	1	0	1,778334127248162E+005	2,3350899E+000	2,3344805E+000	2,549519084246332E-002	1,000000000000000E+000	-1,3050872E-002	41	5,9518028E-005
2	1	0	1	0	1,778619726292852E+005	2,3550816E+000	2,3544579E+000	2,414785378083290E-002	1,000000000000000E+000	-1,2340740E-002	41	5,6855104E-005
2	1	0	1	0	1,778905323337537E+005	2,3750732E+000	2,3744588E+000	2,299474526087875E-002	1,000000000000000E+000	-1,1665845E-002	41	5,4600074E-005
2	1	0	1	0	1,779190921382234E+005	2,3950651E+000	2,3944535E+000	2,205047139231414E-002	1,000000000000000E+000	-1,1021048E-002	41	5,2798830E-005
2	1	0	1	0	1,779476519426918E+005	2,4150569E+000	2,4144838E+000	2,126636553366193E-002	1,000000000000000E+000	-1,0400637E-002	41	5,1347295E-005
2	1	0	1	0	1,779762117471606E+005	2,4350491E+000	2,4344740E+000	2,060226100799595E-002	1,000000000000000E+000	-9,8011652E-003	41	5,0155668E-005
2	1	0	1	0	1,780047715516277E+005	2,4550407E+000	2,4544132E+000	2,003742046117779E-002	1,000000000000000E+000	-9,2188949E-003	41	4,9180107E-005
2	1	0	1	0	1,780333314560964E+005	2,4750326E+000	2,4744356E+000	1,961066373779155E-002	1,000000000000000E+000	-8,6505460E-003	41	4,8525322E-005
2	1	0	1	0	1,780618912605649E+005	2,4950242E+000	2,4944313E+000	1,921792378697629E-002	1,000000000000000E+000	-8,0939764E-003	41	4,7937789E-005
2	1	0	1	0	1,780904509650345E+005	2,5150163E+000	2,5144608E+000	1,888454199891987E-002	1,000000000000000E+000	-7,5480365E-003	41	4,7484442E-005
2	1	0	1	0	1,781190107695027E+005	2,5350082E+000	2,5344284E+000	1,850737258551780E-002	1,000000000000000E+000	-7,0121512E-003	41	4,6905610E-005
2	1	0	1	0	1,781475705739711E+005	2,5550003E+000	2,5544102E+000	1,814934581542671E-002	1,000000000000000E+000	-6,4867917E-003	41	4,6360874E-005
2	1	0	1	0	1,781761302784388E+005	2,5749915E+000	2,5743830E+000	1,775372724776142E-002	1,000000000000000E+000	-5,9717349E-003	41	4,5704895E-005
2	1	0	1	0	1,782046900829072E+005	2,5949836E+000	2,5944059E+000	1,746221857616234E-002	1,000000000000000E+000	-5,4664370E-003	41	4,5304081E-005
2	1	0	1	0	1,782332499873764E+005	2,6149755E+000	2,6144249E+000	1,723516130277195E-002	1,000000000000000E+000	-4,9692332E-003	41	4,5060035E-005
2	1	0	1	0	1,782618097918457E+005	2,6349673E+000	2,6343794E+000	1,703270712679152E-002	1,000000000000000E+000	-4,4779661E-003	41	4,4870612E-005
2	1	0	1	0	1,782903695963142E+005	2,6549594E+000	2,6543958E+000	1,694651743822861E-002	1,000000000000000E+000	-3,9903573E-003	41	4,4982764E-005
2	1	0	1	0	1,783189294007821E+005	2,6749511E+000	2,6743507E+000	1,693776456722824E-002	1,000000000000000E+000	-3,5042264E-003	41	4,5297522E-005
2	1	0	1	0	1,783474890052499E+005	2,6949432E+000	2,6943753E+000	1,698791997870701E-002	1,000000000000000E+000	-3,0179040E-003	41	4,5771831E-005
2	1	0	1	1	1,783740502094056E+005	2,6864464E+000	2,6858575E+000	8,361904273267995E-003	2,000000000000000E+000	-2,6891162E-003	41	2,2458884E-005
2	1	0	1	1	1,784026100138745E+005	2,6664543E+000	2,6658916E+000	5,164471274368365E-003	2,000000000000000E+000	-2,5028440E-003	41	1,3767921E-005
2	1	0	1	1	1,784311698183438E+005	2,6464627E+000	2,6458647E+000	3,162005129105513E-003	2,000000000000000E+000	-2,3883120E-003	42	8,3662380E-006
2	1	0	1	1	1,784597294228124E+005	2,6264706E+000	2,6258807E+000	1,730107847610489E-003	2,000000000000000E+000	-2,3218889E-003	42	4,5430570E-006
2	1	0	1	1	1,784882892272803E+005	2,6064789E+000	2,6058183E+000	5,948867124113970E-004	2,000000000000000E+000	-2,2907883E-003	43	1,5501666E-006
2	0	0	1	1	1,785168490317483E+005	2,5864873E+000	2,5859072E+000	-2,235194019901288E-004	2,000000000000000E+000	-2,2869362E-003	43	-5,7800042E-007
2	0	0	1	1	1,785454089362165E+005	2,5664952E+000	2,5659194E+000	-9,548951491658887E-004	2,000000000000000E+000	-2,3051864E-003	42	-2,4501840E-006
2	0	0	1	1	1,785739687406857E+005	2,5465033E+000	2,5459378E+000	-1,533775486852881E-003	2,000000000000000E+000	-2,3426451E-003	42	-3,9048969E-006
2	0	0	1	1	1,786025285451552E+005	2,5265114E+000	2,5259423E+000	-2,061297935563085E-003	2,000000000000000E+000	-2,3963233E-003	42	-5,2067198E-006
2	0	0	1	1	1,786310884496234E+005	2,5065196E+000	2,5059793E+000	-2,548302508910560E-003	2,000000000000000E+000	-2,4646600E-003	42	-6,3859934E-006
2	0	0	1	1	1,786596480540913E+005	2,4865282E+000	2,4859881E+000	-2,990565087265650E-003	2,000000000000000E+000	-2,5460050E-003	42	-7,4345094E-006
2	0	0	1	1	1,786882078585592E+005	2,4665363E+000	2,4659798E+000	-3,386297161712473E-003	2,000000000000000E+000	-2,6393384E-003	42	-8,3505402E-006
2	0	0	1	1	1,787167674630276E+005	2,4465444E+000	2,4460030E+000	-3,732333600879285E-003	2,000000000000000E+000	-2,7430232E-003	42	-9,1292986E-006
2	0	0	1	1	1,787453270674972E+005	2,4265525E+000	2,4260335E+000	-4,059720484857227E-003	2,000000000000000E+000	-2,8562990E-003	42	-9,8490182E-006
2	0	0	1	1	1,787738868719661E+005	2,4065607E+000	2,4060564E+000	-4,373474057180161E-003	2,000000000000000E+000	-2,9784180E-003	42	-1,0522826E-005
2	0	0	1	1	1,788024466764345E+005	2,3865685E+000	2,3860681E+000	-4,650992259800008E-003	2,000000000000000E+000	-3,1090840E-003	42	-1,1097584E-005
2	0	0	1	1	1,788310064809024E+005	2,3665769E+000	2,3660736E+000	-4,921992429540209E-003	2,000000000000000E+000	-3,2480278E-003	42	-1,1645797E-005
2	0	0	1	1	1,788595663853704E+005	2,3465850E+000	2,3460956E+000	-5,215846524633194E-003	2,000000000000000E+000	-3,3948948E-003	42	-1,2236875E-005
2	0	0	1	1	1,788881261898389E+005	2,3265932E+000	2,3260963E+000	-5,494607019184444E-003	2,000000000000000E+000	-3,5499493E-003	42	-1,2780985E-005
2	0	0	1	1	1,789166854943088E+005	2,3066015E+000	2,3061309E+000	-5,790421735372584E-003	2,000000000000000E+000	-3,7130183E-003	42	-1,3353470E-005
2	0	0	1	1	1,789452452987768E+005	2,2866096E+000	2,2860925E+000	-6,118021479386594E-003	2,000000000000000E+000	-3,8853290E-003	42	-1,3986363E-005
2	0	0	1	1	1,789738052032455E+005	2,2666178E+000	2,2661183E+000	-6,477485492653590E-003	2,000000000000000E+000	-4,0672128E-003	42	-1,4678748E-005
2	0	0	1	1	1,790023651077128E+005	2,2466259E+000	2,2461195E+000	-6,855635036827276E-003	2,000000000000000E+000	-4,2596054E-003	42	-1,5398575E-005
2	0	0	1	1	1,790309247121813E+005	2,2266340E+000	2,2261672E+000	-7,291436453536401E-003	2,000000000000000E+000	-4,4637867E-003	42	-1,6231957E-005
2	0	0	1	1	1,790594845166503E+005	2,2066422E+000	2,2061911E+000	-7,765192100944032E-003	2,000000000000000E+000	-4,6808566E-003	42	-1,7131497E-005
2	0	0	1	1	1,790880443211198E+005	2,1866503E+000	2,1861770E+000	-8,320903259517634E-003	2,000000000000000E+000	-4,9126423E-003	42	-1,8190967E-005
2	0	0	1	1	1,791166039255881E+005	2,1666584E+000	2,1662087E+000	-8,893543975979343E-003	2,000000000000000E+000	-5,1604477E-003	42	-1,9265273E-005
2	0	0	1	1	1,791451637300560E+005	2,1466665E+000	2,1462247E+000	-9,565978638424399E-003	2,000000000000000E+000	-5,4260208E-003	42	-2,0530741E-005
2	0	0	1	1	1,791737235345240E+005	2,1266747E+000	2,1261005E+000	-1,031488362723686E-002	2,000000000000000E+000	-5,7119722E-003	41	-2,1930480E-005
2	0	0	1	1	1,792022831389921E+005	2,1066830E+000	2,1061463E+000	-1,107046543565035E-002	2,000000000000000E+000	-6,0193255E-003	41	-2,3316021E-005
2	0	0	1	1	1,792308429434618E+005	2,0866911E+000	2,0861056E+000	-1,196379930654670E-002	2,000000000000000E+000	-6,3504474E-003	41	-2,4957748E-005
2	0	0	1	1	1,792594027479305E+005	2,0666995E+000	2,0661402E+000	-1,287581609150099E-002	2,000000000000000E+000	-6,7070993E-003	41	-2,6603240E-005
2	0	0	1	1	1,792879626523997E+005	2,0467072E+000	2,0461252E+000	-1,393526276567358E-002	2,000000000000000E+000	-7,0919525E-003	41	-2,8513292E-005
2	0	0	1	1	1,793165219568666E+005	2,0267155E+000	2,0261548E+000	-1,501872605641186E-002	2,000000000000000E+000	-7,5073685E-003	41	-3,0430263E-005
2	0	0	1	1	1,793450818613351E+005	2,0067236E+000	2,0061429E+000	-1,622834017294669E-002	2,000000000000000E+000	-7,9557654E-003	41	-3,2556367E-005
2	0	0	1	1	1,793736417658034E+005	1,9867319E+000	1,9861410E+000	-1,753216415845024E-002	2,000000000000000E+000	-8,4398547E-003	41	-3,4821351E-005
2	0	0	1	1	1,794022015702733E+005	1,9667401E+000	1,9661636E+000	-1,891373434836965E-002	2,000000000000000E+000	-8,9621413E-003	41	-3,7187496E-005
2	0	0	1	1	1,794307614747416E+005	1,9467479E+000	1,9461668E+000	-2,041985403598373E-002	2,000000000000000E+000	-9,5256902E-003	41	-3,9740440E-005
2	0	0	1	1	1,794593211792102E+005	1,9267563E+000	1,9262094E+000	-2,200521182697418E-002	2,000000000000000E+000	-1,0133503E-002	41	-4,2386648E-005
2	0	0	1	1	1,794878808836779E+005	1,9067646E+000	1,9061732E+000	-2,373638911638609E-002	2,000000000000000E+000	-1,0788734E-002	41	-4,5245670E-005
2	0	0	1	1	1,795164405881460E+005	1,8867726E+000	1,8862021E+000	-2,551840179147163E-002	2,000000000000000E+000	-1,1493445E-002	41	-4,8132864E-005
2	0	0	1	1	1,795450003926150E+005	1,8667809E+000	1,8662131E+000	-2,743247180443190E-002	2,000000000000000E+000	-1,2251358E-002	41	-5,1194838E-005
2	0	0	1	1	1,795735602970845E+005	1,8467888E+000	1,8462385E+000	-2,941173765308469E-002	2,000000000000000E+000	-1,3064822E-002	41	-5,4301083E-005
2	0	0	1	1	1,796021200015531E+005	1,8267971E+000	1,8262353E+000	-3,150397881324879E-002	2,000000000000000E+000	-1,3936953E-002	41	-5,7533678E-005
2	0	0	1	1	1,796306797060212E+005	1,8068053E+000	1,8062609E+000	-3,376305235176502E-002	2,000000000000000E+000	-1,4871159E-002	41	-6,0984883E-005
2	0	0	0	1	1,796592395104887E+005	1,7868133E+000	1,7862393E+000	-3,615298556333951E-002	2,000000000000000E+000	-1,5871348E-002	41	-6,4577885E-005
2	0	0	1	1	1,796877993149569E+005	1,7668215E+000	1,7662774E+000	-3,864508971295577E-002	2,000000000000000E+000	-1,6940892E-002	41	-6,8257948E-005
2	0	0	1	1	1,797163590194263E+005	1,7468299E+000	1,7462775E+000	-4,126347975275715E-002	2,000000000000000E+000	-1,8083792E-002	41	-7,2057483E-005
2	0	0	1	1	1,797449188238953E+005	1,7268380E+000	1,7262992E+000	-4,407148329915378E-002	2,000000000000000E+000	-1,9304516E-002	41	-7,6080563E-005
2	0	0	1	1	1,797734785283641E+005	1,7068460E+000	1,7062829E+000	-4,711752440201900E-002	2,000000000000000E+000	-2,0608645E-002	41	-8,0395825E-005
2	0	0	1	1	1,798020383328320E+005	1,6868542E+000	1,6863159E+000	-5,045125533977435E-002	2,000000000000000E+000	-2,2003306E-002	41	-8,5076754E-005
2	0	0	1	1	1,798305981372995E+005	1,6668624E+000	1,6662997E+000	-5,415187376919064E-002	2,000000000000000E+000	-2,3498654E-002	41	-9,0233254E-005
2	0	0	1	1	1,798591580417681E+005	1,6468706E+000	1,6463207E+000	-5,842917109904999E-002	2,000000000000000E+000	-2,5106965E-002	41	-9,6193151E-005
2	0	0	1	1	1,798877178462376E+005	1,6268789E+000	1,6263461E+000	-6,344107608372340E-002	2,000000000000000E+000	-2,6847230E-002	41	-1,0317715E-004
2	0	0	1	1	1,799162774507063E+005	1,6068867E+000	1,6063550E+000	-6,955044143268230E-002	2,000000000000000E+000	-2,8745959E-002	41	-1,1172269E-004
2	0	0	1	1	1,799448371551754E+005	1,5868951E+000	1,5863783E+000	-7,705588572203931E-002	2,000000000000000E+000	-3,0838503E-002	41	-1,2223978E-004
2	0	0	1	1	1,799733970596427E+005	1,5669032E+000	1,5664232E+000	-8,630102951664548E-002	2,000000000000000E+000	-3,3170223E-002	41	-1,3518393E-004
2	0	0	1	1	1,800019568641109E+005	1,5469115E+000	1,5464256E+000	-9,798565172364015E-002	2,000000000000000E+000	-3,5797145E-002	41	-1,5152752E-004
2	0	0	1	1	1,800305166685795E+005	1,5269195E+000	1,5263292E+000	-1,135324137180080E-001	2,000000000000000E+000	-3,8811188E-002	40	-1,7328783E-004
2	0	0	1	1	1,800590764730489E+005	1,5069276E+000	1,5063223E+000	-1,333397724098964E-001	2,000000000000000E+000	-4,2329893E-002	40	-2,0085266E-004
2	0	0	1	1	1,800876361775175E+005	1,4869360E+000	1,4863678E+000	-1,554830354313516E-001	2,000000000000000E+000	-4,6455070E-002	40	-2,3110498E-004
2	0	0	1	1	1,801161958819861E+005	1,4669441E+000	1,4663496E+000	-1,768730868406706E-001	2,000000000000000E+000	-5,1208820E-002	40	-2,5935777E-004
2	0	0	1	1	1,801447556864531E+005	1,4469521E+000	1,4463784E+000	-1,949929241070638E-001	2,000000000000000E+000	-5,6531515E-002	40	-2,8203355E-004
2	0	0	1	1	1,801733154909217E+005	1,4269602E+000	1,4263781E+000	-2,083097860987141E-001	2,000000000000000E+000	-6,2307138E-002	40	-2,9712851E-004
2	0	0	1	1	1,802018752953907E+005	1,4069684E+000	1,4064020E+000	-2,154765404886092E-001	2,000000000000000E+000	-6,8376631E-002	40	-3,0304663E-004
2	0	0	1	1	1,802304349998604E+005	1,3869766E+000	1,3864099E+000	-2,161535338048651E-001	2,000000000000000E+000	-7,4557826E-002	40	-2,9967740E-004
2	0	0	0	1	1,802589948043288E+005	1,3669847E+000	1,3664173E+000	-2,109707528089606E-001	2,000000000000000E+000	-8,0671541E-002	40	-2,8827408E-004
2	0	0	1	1	1,802875546087967E+005	1,3469930E+000	1,3464231E+000	-2,016207634624934E-001	2,000000000000000E+000	-8,6572744E-002	40	-2,7146685E-004
2	0	0	1	1	1,803161143132644E+005	1,3270010E+000	1,3264208E+000	-1,904011239850634E-001	2,000000000000000E+000	-9,2175208E-002	40	-2,5255201E-004
2	0	0	1	1	1,803446740177327E+005	1,3070091E+000	1,3064107E+000	-1,790687234892663E-001	2,000000000000000E+000	-9,7452186E-002	40	-2,3393729E-004
2	0	0	1	1	1,803732338222021E+005	1,2870173E+000	1,2864392E+000	-1,684415911954522E-001	2,000000000000000E+000	-1,0241447E-001	40	-2,1668986E-004
2	0	0	1	1	1,804017936266712E+005	1,2670255E+000	1,2664274E+000	-1,588324266733707E-001	2,000000000000000E+000	-1,0708750E-001	40	-2,0114974E-004
2	0	0	1	1	1,804303534311401E+005	1,2470336E+000	1,2464489E+000	-1,501300893427535E-001	2,000000000000000E+000	-1,1149953E-001	40	-1,8712948E-004
2	0	0	0	1	1,804589132356076E+005	1,2270417E+000	1,2264218E+000	-1,424435696991291E-001	2,000000000000000E+000	-1,1567790E-001	40	-1,7469590E-004
2	0	0	1	1	1,804874730400755E+005	1,2070498E+000	1,2064736E+000	-1,356209331495348E-001	2,000000000000000E+000	-1,1964897E-001	40	-1,6362307E-004
2	0	0	1	1	1,805160326445439E+005	1,1870581E+000	1,1864817E+000	-1,296613467159724E-001	2,000000000000000E+000	-1,2343761E-001	40	-1,5384081E-004
2	0	0	1	1	1,805445924490136E+005	1,1670662E+000	1,1664770E+000	-1,244324616171295E-001	2,000000000000000E+000	-1,2706643E-001	40	-1,4514760E-004
2	0	0	1	1	1,805731522534820E+005	1,1470745E+000	1,1464427E+000	-1,199298874857589E-001	2,000000000000000E+000	-1,3055630E-001	40	-1,3749274E-004
2	0	0	0	1	1,806017120579509E+005	1,1270826E+000	1,1264677E+000	-1,160360336979256E-001	2,000000000000000E+000	-1,3392632E-001	40	-1,3071085E-004
2	0	0	1	1	1,806302718624184E+005	1,1070908E+000	1,1065055E+000	-1,127808069968328E-001	2,000000000000000E+000	-1,3719399E-001	40	-1,2479258E-004
2	0	0	0	1	1,806588316668866E+005	1,0870987E+000	1,0864896E+000	-1,101340718018577E-001	2,000000000000000E+000	-1,4037794E-001	40	-1,1965952E-004
2	0	0	1	1	1,806873914713552E+005	1,0671070E+000	1,0664984E+000	-1,080949295361736E-001	2,000000000000000E+000	-1,4349526E-001	40	-1,1528307E-004
2	0	0	1	1	1,807159510758249E+005	1,0471152E+000	1,0464735E+000	-1,065833176792483E-001	2,000000000000000E+000	-1,4656182E-001	40	-1,1153662E-004
2	0	0	0	1	1,807445108802933E+005	1,0271233E+000	1,0265241E+000	-1,055742524873506E-001	2,000000000000000E+000	-1,4959274E-001	40	-1,0837451E-004
2	0	0	1	1	1,807730706847617E+005	1,0071316E+000	1,0065128E+000	-1,051484910174163E-001	2,000000000000000E+000	-1,5260360E-001	40	-1,0583330E-004
2	0	0	1	1	1,807997745889397E+005	1,0115298E+000	1,0109191E+000	-7,545737281045584E-002	2,000000000000000E+000	-1,5512933E-001	40	-7,6281300E-005
2	0	0	1	1	1,808283344934070E+005	1,0315216E+000	1,0309258E+000	-4,830760473396367E-002	2,000000000000000E+000	-1,5685859E-001	40	-4,9801554E-005
2	0	0	1	1	1,808568942978757E+005	1,0515134E+000	1,0509293E+000	-3,147930326201870E-002	2,000000000000000E+000	-1,5797809E-001	41	-3,3082524E-005
2	0	0	1	1	1,808854540023445E+005	1,0715053E+000	1,0709047E+000	-1,983775242140995E-002	2,000000000000000E+000	-1,5869883E-001	41	-2,1244343E-005
2	0	0	1	1	1,809140138068140E+005	1,0914971E+000	1,0908948E+000	-1,132816665117869E-002	2,000000000000000E+000	-1,5913531E-001	41	-1,2357838E-005
2	0	0	1	1	1,809425735112824E+005	1,1114889E+000	1,1109275E+000	-4,764537476630804E-003	2,000000000000000E+000	-1,5935934E-001	42	-5,2930554E-006
2	1	0	1	1	1,809711334157512E+005	1,1314809E+000	1,1308542E+000	1,396295438216000E-004	2,000000000000000E+000	-1,5942015E-001	43	1,5790066E-007
2	1	0	1	1	1,809996932202182E+005	1,1514727E+000	1,1508089E+000	4,162119308485271E-003	2,000000000000000E+000	-1,5935391E-001	42	4,7898043E-006
2	1	0	0	1	1,810282529246868E+005	1,1714643E+000	1,1708101E+000	7,472165109349366E-003	2,000000000000000E+000	-1,5918387E-001	42	8,7484868E-006
2	1	0	1	1	1,810568128291557E+005	1,1914564E+000	1,1908311E+000	1,027208105645901E-002	2,000000000000000E+000	-1,5892798E-001	41	1,2232314E-005
2	1	0	0	1	1,810853725336252E+005	1,2114482E+000	1,2108229E+000	1,256342226682887E-002	2,000000000000000E+000	-1,5859890E-001	41	1,5212080E-005
2	1	0	1	1	1,811139323380934E+005	1,2314399E+000	1,2307961E+000	1,456029871206116E-002	2,000000000000000E+000	-1,5820840E-001	41	1,7920758E-005
2	1	0	1	1	1,811424922425617E+005	1,2514319E+000	1,2507921E+000	1,635951681370268E-002	2,000000000000000E+000	-1,5776409E-001	41	2,0462356E-005
2	1	0	1	1	1,811710519470293E+005	1,2714236E+000	1,2707551E+000	1,796250064542212E-002	2,000000000000000E+000	-1,5727162E-001	41	2,2825938E-005
2	1	0	0	1	1,811996117514977E+005	1,2914156E+000	1,2907525E+000	1,944268553844120E-002	2,000000000000000E+000	-1,5673487E-001	41	2,5095696E-005
2	1	0	1	1	1,812281715559671E+005	1,3114073E+000	1,3107533E+000	2,081988554796075E-002	2,000000000000000E+000	-1,5615730E-001	41	2,7289734E-005
2	1	0	0	1	1,812567313604362E+005	1,3313992E+000	1,3307419E+000	2,216109450335002E-002	2,000000000000000E+000	-1,5554132E-001	41	2,9490697E-005
2	1	0	1	1	1,812852911649048E+005	1,3513911E+000	1,3507493E+000	2,346381213392118E-002	2,000000000000000E+000	-1,5488760E-001	41	3,1693726E-005
2	1	0	0	1	1,813138509693723E+005	1,3713830E+000	1,3707352E+000	2,472043919329725E-002	2,000000000000000E+000	-1,5419728E-001	41	3,3885175E-005
2	1	0	1	1	1,813424107738407E+005	1,3913748E+000	1,3907139E+000	2,600400392858393E-002	2,000000000000000E+000	-1,5347056E-001	41	3,6164129E-005
2	1	0	0	1	1,813709705783087E+005	1,4113665E+000	1,4106916E+000	2,733215840061673E-002	2,000000000000000E+000	-1,5270692E-001	41	3,8557246E-005
2	1	0	1	1	1,813995303827784E+005	1,4313585E+000	1,4306937E+000	2,870997064021666E-002	2,000000000000000E+000	-1,5190470E-001	41	4,1075175E-005
2	1	0	1	1	1,814280900872471E+005	1,4513502E+000	1,4506876E+000	3,017809337532040E-002	2,000000000000000E+000	-1,5106221E-001	41	4,3778986E-005
2	1	0	1	1	1,814566498917160E+005	1,4713422E+000	1,4706813E+000	3,174088985305323E-002	2,000000000000000E+000	-1,5017614E-001	41	4,6680732E-005
2	1	0	1	1	1,814852097961837E+005	1,4913341E+000	1,4906877E+000	3,347435092465656E-002	2,000000000000000E+000	-1,4924274E-001	41	4,9899805E-005
2	1	0	1	1	1,815137696006517E+005	1,5113258E+000	1,5106479E+000	3,531300993673586E-002	2,000000000000000E+000	-1,4825898E-001	41	5,3345524E-005
2	1	0	1	1	1,815423294051202E+005	1,5313177E+000	1,5306652E+000	3,746568093250463E-002	2,000000000000000E+000	-1,4721808E-001	41	5,7347414E-005
2	1	0	1	1	1,815708891095897E+005	1,5513096E+000	1,5506411E+000	4,033147234430523E-002	2,000000000000000E+000	-1,4610779E-001	41	6,2539635E-005
2	1	0	1	1	1,815994488140582E+005	1,5713012E+000	1,5706334E+000	4,477016669828146E-002	2,000000000000000E+000	-1,4489500E-001	41	7,0317517E-005
2	1	0	1	1	1,816280086185271E+005	1,5912930E+000	1,5905994E+000	5,364619455236452E-002	2,000000000000000E+000	-1,4351027E-001	41	8,5329608E-005
2	1	0	1	1	1,816565685229944E+005	1,6112852E+000	1,6105435E+000	7,672309277520817E-002	2,000000000000000E+000	-1,4168309E-001	41	1,2356587E-004
2	1	0	1	1	1,816851283274626E+005	1,6312768E+000	1,6306525E+000	1,087057101949505E-001	2,000000000000000E+000	-1,3903657E-001	40	1,7726124E-004
2	1	0	1	1	1,817136881319316E+005	1,6512687E+000	1,6506327E+000	1,402274647666371E-001	2,000000000000000E+000	-1,3547325E-001	40	2,3146404E-004
2	1	0	1	1	1,817422478364010E+005	1,6712606E+000	1,6706004E+000	1,685064891190513E-001	2,000000000000000E+000	-1,3105224E-001	40	2,8150700E-004
2	1	0	1	1	1,817708077408695E+005	1,6912526E+000	1,6905957E+000	1,926006551786497E-001	2,000000000000000E+000	-1,2588145E-001	40	3,2560984E-004
2	1	0	1	1	1,817993674453376E+005	1,7112441E+000	1,7105873E+000	2,122763759450383E-001	2,000000000000000E+000	-1,2008456E-001	40	3,6311726E-004
2	1	0	1	1	1,818279273498054E+005	1,7312363E+000	1,7305889E+000	2,270138474476764E-001	2,000000000000000E+000	-1,1379606E-001	40	3,9286766E-004
2	1	0	1	1	1,818564871542735E+005	1,7512280E+000	1,7505814E+000	2,363913631539598E-001	2,000000000000000E+000	-1,0716279E-001	40	4,1382233E-004
2	1	0	1	1	1,818850469587427E+005	1,7712196E+000	1,7705665E+000	2,399001495355035E-001	2,000000000000000E+000	-1,0034452E-001	40	4,2475917E-004
2	1	0	1	1	1,819136066632122E+005	1,7912117E+000	1,7905459E+000	2,374586664779201E-001	2,000000000000000E+000	-9,3511842E-002	40	4,2518065E-004
2	1	0	1	1	1,819421664676806E+005	1,8112035E+000	1,8105633E+000	2,298502142969951E-001	2,000000000000000E+000	-8,6825348E-002	40	4,1615838E-004
2	1	0	1	1	1,819707262721490E+005	1,8311952E+000	1,8305614E+000	2,183740674820607E-001	2,000000000000000E+000	-8,0415815E-002	40	3,9974714E-004
2	1	0	1	1	1,819992861766163E+005	1,8511873E+000	1,8505474E+000	2,047980345998859E-001	2,000000000000000E+000	-7,4368253E-002	40	3,7898848E-004
2	1	0	0	1	1,820278458810847E+005	1,8711790E+000	1,8705443E+000	1,904196308806002E-001	2,000000000000000E+000	-6,8722188E-002	40	3,5618836E-004
2	1	0	1	1	1,820564056855540E+005	1,8911707E+000	1,8905526E+000	1,759734131435395E-001	2,000000000000000E+000	-6,3488312E-002	40	3,3268699E-004
2	1	0	0	1	1,820849654900231E+005	1,9111627E+000	1,9105567E+000	1,616962816453007E-001	2,000000000000000E+000	-5,8665331E-002	40	3,0892991E-004
2	1	0	1	1	1,821135252944920E+005	1,9311545E+000	1,9305376E+000	1,479921681324852E-001	2,000000000000000E+000	-5,4242741E-002	40	2,8570445E-004
2	1	0	0	1	1,821420850989595E+005	1,9511464E+000	1,9505148E+000	1,349441701082411E-001	2,000000000000000E+000	-5,0202634E-002	40	2,6321059E-004
2	1	0	1	1	1,821706449034275E+005	1,9711381E+000	1,9705273E+000	1,228275817845678E-001	2,000000000000000E+000	-4,6522189E-002	40	2,4203511E-004
2	1	0	1	1	1,821992047078958E+005	1,9911301E+000	1,9905568E+000	1,116141199445113E-001	2,000000000000000E+000	-4,3175392E-002	40	2,2217425E-004
2	1	0	1	1	1,822277646123655E+005	2,0111220E+000	2,0105250E+000	1,014325580798263E-001	2,000000000000000E+000	-4,0134314E-002	40	2,0393269E-004
2	1	0	1	1	1,822563244168342E+005	2,0311136E+000	2,0305171E+000	9,216328918507011E-002	2,000000000000000E+000	-3,7370689E-002	40	1,8713913E-004
2	1	0	1	1	1,822848842213028E+005	2,0511053E+000	2,0504951E+000	8,385511330581175E-002	2,000000000000000E+000	-3,4858391E-002	40	1,7194450E-004
2	1	0	1	1	1,823134441257706E+005	2,0710971E+000	2,0704648E+000	7,633507417334673E-002	2,000000000000000E+000	-3,2570906E-002	40	1,5804909E-004
2	1	0	1	1	1,823420039302385E+005	2,0910890E+000	2,0905101E+000	6,963901048335219E-002	2,000000000000000E+000	-3,0485811E-002	40	1,4558106E-004
2	1	0	1	1	1,823705637347071E+005	2,1110809E+000	2,1104975E+000	6,357109057538768E-002	2,000000000000000E+000	-2,8583061E-002	40	1,3416662E-004
2	1	0	1	1	1,823991235391768E+005	2,1310732E+000	2,1304975E+000	5,813305285698345E-002	2,000000000000000E+000	-2,6844727E-002	40	1,2385233E-004
2	1	0	1	1	1,824276834436450E+005	2,1510646E+000	2,1504788E+000	5,316335592056620E-002	2,000000000000000E+000	-2,5254697E-002	40	1,1432667E-004
2	1	0	1	1	1,824562432481139E+005	2,1710567E+000	2,1704588E+000	4,875990863613300E-002	2,000000000000000E+000	-2,3798419E-002	40	1,0583137E-004
2	1	0	1	1	1,824849458526042E+005	2,1911485E+000	2,1905241E+000	4,488448289406377E-002	2,000000000000000E+000	-2,2452274E-002	41	9,8320539E-005
2	1	0	1	1	1,825135056570722E+005	2,2111402E+000	2,2105093E+000	4,129419393623934E-002	2,000000000000000E+000	-2,1220474E-002	41	9,1281203E-005
2	1	0	1	1	1,825420652615405E+005	2,2311323E+000	2,2305112E+000	3,809136064752527E-002	2,000000000000000E+000	-2,0085782E-002	41	8,4963205E-005
2	1	0	1	1	1,825706250660095E+005	2,2511239E+000	2,2504811E+000	3,522023561983766E-002	2,000000000000000E+000	-1,9037981E-002	41	7,9262478E-005
2	1	0	1	1	1,825991848704787E+005	2,2711160E+000	2,2704833E+000	3,264507518425908E-002	2,000000000000000E+000	-1,8067505E-002	41	7,4120100E-005
2	1	0	1	1	1,826277445749473E+005	2,2911077E+000	2,2904696E+000	3,037935810049452E-002	2,000000000000000E+000	-1,7165946E-002	41	6,9582995E-005
2	1	0	1	1	1,826563044794155E+005	2,3110995E+000	2,3104892E+000	2,838379210697917E-002	2,000000000000000E+000	-1,6325247E-002	41	6,5580447E-005
2	1	0	1	1	1,826848642838830E+005	2,3310912E+000	2,3304536E+000	2,664956437844325E-002	2,000000000000000E+000	-1,5537943E-002	41	6,2105573E-005
2	1	0	1	1	1,827134240883514E+005	2,3510830E+000	2,3504663E+000	2,514922606306702E-002	2,000000000000000E+000	-1,4796597E-002	41	5,9112408E-005
2	1	0	1	1	1,827419838928207E+005	2,3710749E+000	2,3704495E+000	2,386811141835837E-002	2,000000000000000E+000	-1,4094893E-002	41	5,6578152E-005
2	1	0	1	1	1,827705437972900E+005	2,3910668E+000	2,3904481E+000	2,279504453494446E-002	2,000000000000000E+000	-1,3426650E-002	41	5,4490371E-005
2	1	0	1	1	1,827991036017584E+005	2,4110587E+000	2,4104290E+000	2,190419341663075E-002	2,000000000000000E+000	-1,2786440E-002	41	5,2798503E-005
2	1	0	1	1	1,828276633062260E+005	2,4310505E+000	2,4304326E+000	2,114026935370955E-002	2,000000000000000E+000	-1,2169996E-002	41	5,1380001E-005
2	1	0	1	1	1,828562231106944E+005	2,4510424E+000	2,4504230E+000	2,050515396257113E-002	2,000000000000000E+000	-1,1573293E-002	41	5,0246301E-005
2	1	0	1	1	1,828847829151625E+005	2,4710343E+000	2,4704385E+000	1,999728453181265E-002	2,000000000000000E+000	-1,0993095E-002	41	4,9402061E-005
2	1	0	1	1	1,829133427196321E+005	2,4910262E+000	2,4904072E+000	1,953126664009748E-002	2,000000000000000E+000	-1,0426767E-002	41	4,8640806E-005
2	1	0	1	1	1,829419024241008E+005	2,5110178E+000	2,5104308E+000	1,914527148843065E-002	2,000000000000000E+000	-9,8725371E-003	41	4,8062881E-005
2	1	0	1	1	1,829704622285697E+005	2,5310097E+000	2,5303969E+000	1,874022897629127E-002	2,000000000000000E+000	-9,3296105E-003	41	4,7420217E-005
2	1	0	1	1	1,829990221330374E+005	2,5510015E+000	2,5503891E+000	1,834488513775295E-002	2,000000000000000E+000	-8,7980330E-003	41	4,6786594E-005
2	1	0	1	1	1,830275819375054E+005	2,5709934E+000	2,5703819E+000	1,796647873584206E-002	2,000000000000000E+000	-8,2775494E-003	41	4,6180710E-005
2	1	0	1	1	1,830561417419737E+005	2,5909853E+000	2,5903935E+000	1,760730672648195E-002	2,000000000000000E+000	-7,7676936E-003	41	4,5609853E-005
2	1	0	1	1	1,830847016464435E+005	2,6109772E+000	2,6103637E+000	1,732453647107762E-002	2,000000000000000E+000	-7,2670192E-003	41	4,5223340E-005
2	1	0	1	1	1,831132613509116E+005	2,6309693E+000	2,6303780E+000	1,713828619876168E-002	2,000000000000000E+000	-6,7731584E-003	41	4,5080171E-005
2	1	0	1	1	1,831418211553805E+005	2,6509612E+000	2,6503813E+000	1,698737811709608E-002	2,000000000000000E+000	-6,2832120E-003	41	4,5023029E-005
2	1	0	1	1	1,831703809598479E+005	2,6709530E+000	2,6703641E+000	1,693779195224637E-002	2,000000000000000E+000	-5,7967282E-003	41	4,5230074E-005
2	1	0	1	1	1,831989405643162E+005	2,6909442E+000	2,6903574E+000	1,699052363336231E-002	2,000000000000000E+000	-5,3106034E-003	41	4,5710582E-005
2	1	0	1	0	1,832255025684722E+005	2,7095370E+000	2,7089684E+000	1,706606829288593E-002	2,000000000000000E+000	-4,8568784E-003	41	4,6231438E-005
2	1	0	1	0	1,832540625729413E+005	2,7295291E+000	2,7289548E+000	1,728507502251717E-002	2,000000000000000E+000	-4,3646917E-003	41	4,7170190E-005
2	1	0	0	0	1,832714192756575E+005	2,7417748E+000	2,7411919E+000	1,779793180963572E-002	2,000000000000000E+000	-4,0615788E-003	41	4,8787544E-005