File: Dati/201104_LTO-CNT/CV_LTO_Al_grafite_01_1mVs_07_CV_C03.mpt
EC-Lab ASCII FILE
Nb header lines : 57

Cyclic Voltammetry

Run on channel : 3 (SN 6807)
User :
Electrode connection : standard
Ewe ctrl range : min = 0,00 V, max = 5,00 V
Ewe,I filtering : 50 kHz
Safety Limits :
	Do not start on E overload
Channel : Grounded
Acquisition started on : 11/04/2020 18:19:46
Saved on :
	File : CV_LTO_Al_grafite_01_1mVs_07_CV_C03.mpr
	Directory : C:\Users\labsuperfici\Desktop\Biologic\Users\Prisca Viviani\201104\
	Host : 10.78.33.0
Device : VSP-300 (SN 0638)
Address : USB
EC-Lab for windows v11.31 (software)
Internet server v11.30 (firmware)
Command interpretor v11.31 (firmware)
Electrode material :
Initial state :
Electrolyte :
Comments :
Cable : standard
Reference electrode : SCE Saturated Calomel Electrode (0,241 V)
Electrode surface area : 0,001 cm²
Characteristic mass : 0,001 g
Equivalent Weight : 0,000 g/eq.
Density : 0,000 g/cm3
Cycle Definition : Charge/Discharge alternance
Ei (V)              0,000
vs.                 Eoc
dE/dt               0,600
dE/dt unit          mV/s
E1 (V)              1,000
vs.                 Ref
Step percent        50
N                   10
E range min (V)     0,000
E range max (V)     5,000
I Range             Auto
I Range min         Unset
I Range max         Unset
I Range init        Unset
Bandwidth           8
E2 (V)              2,700
vs.                 Ref
nc cycles           1
Reverse Scan        1
Ef (V)              0,000
vs.                 Eoc

mode	ox/red	error	control changes	counter inc.	time/s	control/V	Ewe/V	<I>/mA	cycle number	(Q-Qo)/C	I Range	P/W
2	1	0	0	0	1,619650951420323E+005	2,7417748E+000	2,7411690E+000	1,427679229527712E-002	1,000000000000000E+000	0,0000000E+000	41	3,9135099E-005
2	1	0	1	0	1,619976653471291E+005	2,7222316E+000	2,7217007E+000	5,596566824497606E-003	1,000000000000000E+000	2,4856435E-004	41	1,5232180E-005
2	1	0	1	0	1,620309849523421E+005	2,7022400E+000	2,7016497E+000	3,377435580805721E-003	1,000000000000000E+000	3,9303137E-004	42	9,1246475E-006
2	1	0	1	0	1,620643047575555E+005	2,6822479E+000	2,6816857E+000	1,945257210355558E-003	1,000000000000000E+000	4,7822524E-004	42	5,2165683E-006
2	1	0	1	0	1,620976245627687E+005	2,6622560E+000	2,6617091E+000	8,764755663593880E-004	1,000000000000000E+000	5,2220706E-004	42	2,3329230E-006
2	1	0	1	0	1,621309443679815E+005	2,6422641E+000	2,6417282E+000	5,093056430010513E-005	1,000000000000000E+000	5,3486187E-004	43	1,3454471E-007
2	0	0	1	0	1,621642638731954E+005	2,6222725E+000	2,6218064E+000	-6,002015903952681E-004	1,000000000000000E+000	5,2332645E-004	43	-1,5736124E-006
2	0	0	1	0	1,621975836784076E+005	2,6022806E+000	2,6017895E+000	-1,140688770403157E-003	1,000000000000000E+000	4,9176434E-004	42	-2,9678320E-006
2	0	0	1	0	1,622309034836225E+005	2,5822887E+000	2,5817893E+000	-1,597353010955158E-003	1,000000000000000E+000	4,4368338E-004	42	-4,1240287E-006
2	0	0	1	0	1,622642232888336E+005	2,5622969E+000	2,5617852E+000	-2,006441138632539E-003	1,000000000000000E+000	3,8157677E-004	42	-5,1400712E-006
2	0	0	1	0	1,622975430940497E+005	2,5423050E+000	2,5418246E+000	-2,331124344835060E-003	1,000000000000000E+000	3,0689550E-004	42	-5,9253093E-006
2	0	0	1	0	1,623308628992599E+005	2,5223131E+000	2,5218258E+000	-2,672725244406558E-003	1,000000000000000E+000	2,2083838E-004	42	-6,7401475E-006
2	0	0	1	0	1,623641824044758E+005	2,5023215E+000	2,5018451E+000	-2,979774137662553E-003	1,000000000000000E+000	1,2434975E-004	42	-7,4549334E-006
2	0	0	1	0	1,623975022096871E+005	2,4823296E+000	2,4818559E+000	-3,239194083230854E-003	1,000000000000000E+000	1,8172941E-005	42	-8,0392128E-006
2	0	0	1	0	1,624308220149018E+005	2,4623375E+000	2,4618771E+000	-3,509327325963631E-003	1,000000000000000E+000	-9,6739146E-005	42	-8,6395330E-006
2	0	0	1	0	1,624641416201140E+005	2,4423456E+000	2,4418771E+000	-3,753541409178024E-003	1,000000000000000E+000	-2,1972982E-004	42	-9,1656866E-006
2	0	0	1	0	1,624974614253277E+005	2,4223542E+000	2,4218845E+000	-3,971055299337667E-003	1,000000000000000E+000	-3,5070087E-004	42	-9,6174372E-006
2	0	0	1	0	1,625307812305412E+005	2,4023621E+000	2,4018941E+000	-4,200953491702044E-003	1,000000000000000E+000	-4,8886542E-004	42	-1,0090245E-005
2	0	0	1	0	1,625641010357542E+005	2,3823705E+000	2,3819160E+000	-4,422116243550087E-003	1,000000000000000E+000	-6,3439400E-004	42	-1,0533110E-005
2	0	0	1	0	1,625974208409678E+005	2,3623786E+000	2,3619115E+000	-4,633904065834193E-003	1,000000000000000E+000	-7,8733551E-004	42	-1,0944871E-005
2	0	0	1	0	1,626307406461802E+005	2,3423867E+000	2,3419352E+000	-4,851702751952625E-003	1,000000000000000E+000	-9,4757555E-004	42	-1,1362374E-005
2	0	0	1	0	1,626640602513945E+005	2,3223951E+000	2,3219688E+000	-5,091967035208344E-003	1,000000000000000E+000	-1,1153573E-003	42	-1,1823388E-005
2	0	0	1	0	1,626973800566061E+005	2,3024030E+000	2,3019550E+000	-5,347730009432436E-003	1,000000000000000E+000	-1,2914041E-003	42	-1,2310234E-005
2	0	0	1	0	1,627306998618217E+005	2,2824111E+000	2,2819369E+000	-5,617787745266528E-003	1,000000000000000E+000	-1,4760890E-003	42	-1,2819437E-005
2	0	0	1	0	1,627640196670322E+005	2,2624192E+000	2,2619696E+000	-5,923190156881652E-003	1,000000000000000E+000	-1,6703447E-003	42	-1,3398076E-005
2	0	0	1	0	1,627973392722486E+005	2,2424276E+000	2,2419524E+000	-6,260063694080220E-003	1,000000000000000E+000	-1,8752273E-003	42	-1,4034765E-005
2	0	0	1	0	1,628306589774594E+005	2,2224357E+000	2,2219784E+000	-6,624166594153214E-003	1,000000000000000E+000	-2,0921347E-003	42	-1,4718756E-005
2	0	0	1	0	1,628639787826748E+005	2,2024438E+000	2,2019691E+000	-7,056379393927170E-003	1,000000000000000E+000	-2,3220091E-003	42	-1,5537929E-005
2	0	0	1	0	1,628972985878864E+005	2,1824517E+000	2,1820190E+000	-7,508085147316722E-003	1,000000000000000E+000	-2,5664489E-003	42	-1,6382784E-005
2	0	0	1	0	1,629306183931008E+005	2,1624599E+000	2,1620088E+000	-8,008745741141993E-003	1,000000000000000E+000	-2,8272234E-003	42	-1,7314978E-005
2	0	0	1	0	1,629639381983131E+005	2,1424680E+000	2,1420267E+000	-8,582996468783827E-003	1,000000000000000E+000	-3,1058383E-003	42	-1,8385008E-005
2	0	0	1	0	1,629972578035276E+005	2,1224766E+000	2,1220798E+000	-9,217166326830799E-003	1,000000000000000E+000	-3,4041540E-003	42	-1,9559562E-005
2	0	0	1	0	1,630305775087402E+005	2,1024845E+000	2,1020856E+000	-9,918951439668573E-003	1,000000000000000E+000	-3,7246505E-003	42	-2,0850484E-005
2	0	0	1	0	1,630638973139529E+005	2,0824926E+000	2,0819523E+000	-1,065650509989030E-002	1,000000000000000E+000	-4,0705563E-003	41	-2,2186336E-005
2	0	0	1	0	1,630972171191669E+005	2,0625010E+000	2,0619493E+000	-1,148451574588580E-002	1,000000000000000E+000	-4,4416906E-003	41	-2,3680488E-005
2	0	0	1	0	1,631305367243788E+005	2,0425091E+000	2,0419781E+000	-1,239023290327251E-002	1,000000000000000E+000	-4,8411605E-003	41	-2,5300584E-005
2	0	0	1	0	1,631638565295939E+005	2,0225172E+000	2,0219607E+000	-1,334111958242575E-002	1,000000000000000E+000	-5,2715633E-003	41	-2,6975220E-005
2	0	0	1	0	1,631971763348049E+005	2,0025253E+000	2,0019956E+000	-1,436441780699349E-002	1,000000000000000E+000	-5,7351561E-003	41	-2,8757500E-005
2	0	0	1	0	1,632304962400212E+005	1,9825337E+000	1,9819734E+000	-1,549154216677121E-002	1,000000000000000E+000	-6,2344875E-003	41	-3,0703824E-005
2	0	0	1	0	1,632638160452314E+005	1,9625417E+000	1,9620074E+000	-1,668400489750844E-002	1,000000000000000E+000	-6,7728045E-003	41	-3,2734140E-005
2	0	0	0	0	1,632971357504474E+005	1,9425498E+000	1,9420066E+000	-1,799797826938542E-002	1,000000000000000E+000	-7,3526930E-003	41	-3,4952191E-005
2	0	0	1	0	1,633304554556587E+005	1,9225581E+000	1,9220433E+000	-1,936437137694880E-002	1,000000000000000E+000	-7,9772156E-003	41	-3,7219161E-005
2	0	0	1	0	1,633637752608736E+005	1,9025661E+000	1,9020336E+000	-2,082593767023411E-002	1,000000000000000E+000	-8,6494805E-003	41	-3,9611634E-005
2	0	0	1	0	1,633970950660856E+005	1,8825742E+000	1,8820518E+000	-2,242209821366098E-002	1,000000000000000E+000	-9,3719615E-003	41	-4,2199550E-005
2	0	0	1	0	1,634304148712996E+005	1,8625823E+000	1,8620453E+000	-2,404389600621593E-002	1,000000000000000E+000	-1,0148183E-002	41	-4,4770823E-005
2	0	0	1	0	1,634637345765122E+005	1,8425907E+000	1,8420556E+000	-2,583101761332938E-002	1,000000000000000E+000	-1,0981106E-002	41	-4,7582169E-005
2	0	0	1	0	1,634970542817260E+005	1,8225988E+000	1,8220643E+000	-2,763007312164312E-002	1,000000000000000E+000	-1,1873643E-002	41	-5,0343770E-005
2	0	0	0	0	1,635303739869393E+005	1,8026068E+000	1,8020701E+000	-2,955956850244312E-002	1,000000000000000E+000	-1,2828846E-002	41	-5,3268417E-005
2	0	0	1	0	1,635636937921518E+005	1,7826151E+000	1,7820495E+000	-3,162120777812205E-002	1,000000000000000E+000	-1,3850230E-002	41	-5,6350560E-005
2	0	0	1	0	1,635970134973661E+005	1,7626233E+000	1,7620873E+000	-3,377941347938185E-002	1,000000000000000E+000	-1,4942064E-002	41	-5,9522277E-005
2	0	0	1	0	1,636303333025780E+005	1,7426314E+000	1,7421153E+000	-3,609768285539929E-002	1,000000000000000E+000	-1,6107595E-002	41	-6,2886327E-005
2	0	0	1	0	1,636636530077932E+005	1,7226396E+000	1,7221285E+000	-3,849132994671423E-002	1,000000000000000E+000	-1,7351890E-002	41	-6,6287015E-005
2	0	0	0	0	1,636969728130037E+005	1,7026477E+000	1,7021507E+000	-4,110093413266694E-002	1,000000000000000E+000	-1,8680193E-002	41	-6,9959984E-005
2	0	0	1	0	1,637302925182204E+005	1,6826558E+000	1,6821557E+000	-4,402837136972032E-002	1,000000000000000E+000	-2,0100206E-002	41	-7,4062576E-005
2	0	0	1	0	1,637636123234311E+005	1,6626639E+000	1,6621288E+000	-4,727762703995908E-002	1,000000000000000E+000	-2,1622308E-002	41	-7,8581506E-005
2	0	0	1	0	1,637969321286464E+005	1,6426721E+000	1,6421429E+000	-5,098954163506231E-002	1,000000000000000E+000	-2,3259554E-002	41	-8,3732113E-005
2	0	0	1	0	1,638302518338579E+005	1,6226803E+000	1,6221886E+000	-5,539052844889630E-002	1,000000000000000E+000	-2,5032472E-002	41	-8,9853886E-005
2	0	0	1	0	1,638635715390723E+005	1,6026884E+000	1,6021926E+000	-6,079360250073584E-002	1,000000000000000E+000	-2,6967693E-002	41	-9,7403063E-005
2	0	0	1	0	1,638968913442846E+005	1,5826967E+000	1,5821917E+000	-6,739725079860082E-002	1,000000000000000E+000	-2,9102014E-002	41	-1,0663537E-004
2	0	0	1	0	1,639302111494984E+005	1,5627048E+000	1,5621977E+000	-7,558143700614406E-002	1,000000000000000E+000	-3,1482235E-002	41	-1,1807315E-004
2	0	0	1	0	1,639635308547113E+005	1,5427129E+000	1,5422484E+000	-8,589074172665356E-002	1,000000000000000E+000	-3,4167744E-002	41	-1,3246486E-004
2	0	0	0	0	1,639968506599246E+005	1,5227212E+000	1,5223085E+000	-9,957065198437465E-002	1,000000000000000E+000	-3,7249573E-002	41	-1,5157725E-004
2	0	0	1	0	1,640301703651380E+005	1,5027293E+000	1,5021626E+000	-1,172364274214394E-001	1,000000000000000E+000	-4,0859126E-002	40	-1,7610818E-004
2	0	0	1	0	1,640634901703508E+005	1,4827374E+000	1,4821749E+000	-1,360284272620544E-001	1,000000000000000E+000	-4,5080513E-002	40	-2,0161792E-004
2	0	0	1	0	1,640968099755654E+005	1,4627457E+000	1,4621888E+000	-1,535791167242738E-001	1,000000000000000E+000	-4,9914759E-002	40	-2,2456166E-004
2	0	0	1	0	1,641301296807765E+005	1,4427538E+000	1,4422286E+000	-1,683621347237358E-001	1,000000000000000E+000	-5,5291638E-002	40	-2,4281668E-004
2	0	0	1	0	1,641634494859925E+005	1,4227619E+000	1,4222307E+000	-1,787747270818894E-001	1,000000000000000E+000	-6,1091129E-002	40	-2,5425892E-004
2	0	0	1	0	1,641967690912031E+005	1,4027702E+000	1,4022510E+000	-1,838487413328043E-001	1,000000000000000E+000	-6,7151718E-002	40	-2,5780208E-004
2	0	0	0	0	1,642300888964189E+005	1,3827783E+000	1,3822187E+000	-1,837229543763081E-001	1,000000000000000E+000	-7,3292032E-002	40	-2,5394530E-004
2	0	0	1	0	1,642634087016303E+005	1,3627864E+000	1,3622559E+000	-1,788178809209005E-001	1,000000000000000E+000	-7,9345122E-002	40	-2,4359571E-004
2	0	0	1	0	1,642967284068451E+005	1,3427944E+000	1,3422205E+000	-1,708006591682343E-001	1,000000000000000E+000	-8,5178219E-002	40	-2,2925215E-004
2	0	0	1	0	1,643300481120570E+005	1,3228028E+000	1,3222270E+000	-1,614656939754942E-001	1,000000000000000E+000	-9,0716876E-002	40	-2,1349431E-004
2	0	0	1	0	1,643633679172709E+005	1,3028109E+000	1,3022298E+000	-1,521285623527547E-001	1,000000000000000E+000	-9,5941216E-002	40	-1,9810634E-004
2	0	0	1	0	1,643966876224837E+005	1,2828190E+000	1,2822279E+000	-1,434451387494935E-001	1,000000000000000E+000	-1,0086460E-001	40	-1,8392935E-004
2	0	0	1	0	1,644300073276972E+005	1,2628273E+000	1,2622606E+000	-1,356630915766015E-001	1,000000000000000E+000	-1,0551342E-001	40	-1,7124217E-004
2	0	0	1	0	1,644633271329104E+005	1,2428354E+000	1,2422520E+000	-1,286413944971507E-001	1,000000000000000E+000	-1,0991610E-001	40	-1,5980503E-004
2	0	0	1	0	1,644966468381234E+005	1,2228435E+000	1,2222679E+000	-1,224316803023342E-001	1,000000000000000E+000	-1,1409936E-001	40	-1,4964431E-004
2	0	0	1	0	1,645299666433372E+005	1,2028517E+000	1,2022691E+000	-1,169110541192122E-001	1,000000000000000E+000	-1,1808653E-001	40	-1,4055855E-004
2	0	0	1	0	1,645632864485495E+005	1,1828598E+000	1,1822952E+000	-1,121056437308828E-001	1,000000000000000E+000	-1,2190253E-001	40	-1,3254196E-004
2	0	0	1	0	1,645966061537648E+005	1,1628680E+000	1,1622510E+000	-1,078878559034471E-001	1,000000000000000E+000	-1,2556808E-001	40	-1,2539276E-004
2	0	0	0	0	1,646299259589757E+005	1,1428761E+000	1,1422846E+000	-1,042024815042968E-001	1,000000000000000E+000	-1,2910172E-001	40	-1,1902890E-004
2	0	0	1	0	1,646632456641919E+005	1,1228842E+000	1,1222891E+000	-1,010387623185116E-001	1,000000000000000E+000	-1,3252133E-001	40	-1,1339470E-004
2	0	0	1	0	1,646965654694026E+005	1,1028924E+000	1,1023139E+000	-9,837573239058250E-002	1,000000000000000E+000	-1,3584413E-001	40	-1,0844094E-004
2	0	0	1	0	1,647298852746179E+005	1,0829006E+000	1,0823389E+000	-9,625524721900502E-002	1,000000000000000E+000	-1,3908793E-001	40	-1,0418080E-004
2	0	0	1	0	1,647632049798296E+005	1,0629088E+000	1,0623597E+000	-9,455021158139321E-002	1,000000000000000E+000	-1,4226760E-001	40	-1,0044633E-004
2	0	0	1	0	1,647965246850438E+005	1,0429169E+000	1,0423280E+000	-9,330829633648152E-002	1,000000000000000E+000	-1,4539889E-001	40	-9,7257849E-005
2	0	0	1	0	1,648298444902562E+005	1,0229249E+000	1,0223615E+000	-9,251830692730045E-002	1,000000000000000E+000	-1,4849645E-001	40	-9,4587158E-005
2	0	0	1	0	1,648631642954699E+005	1,0029330E+000	1,0023462E+000	-9,219647083376481E-002	1,000000000000000E+000	-1,5157530E-001	40	-9,2412782E-005
2	0	0	1	0	1,648939856002916E+005	1,0155281E+000	1,0149417E+000	-6,125001461550261E-002	1,000000000000000E+000	-1,5395044E-001	40	-6,2165193E-005
2	0	0	0	0	1,649273054055055E+005	1,0355200E+000	1,0349672E+000	-4,037570636271276E-002	1,000000000000000E+000	-1,5561163E-001	41	-4,1787531E-005
2	0	0	1	0	1,649606251107183E+005	1,0555117E+000	1,0549641E+000	-2,702818505573401E-002	1,000000000000000E+000	-1,5671773E-001	41	-2,8513765E-005
2	0	0	1	0	1,649939449159321E+005	1,0755036E+000	1,0749259E+000	-1,757412952541085E-002	1,000000000000000E+000	-1,5744954E-001	41	-1,8890887E-005
2	0	0	1	0	1,650272646211450E+005	1,0954955E+000	1,0949383E+000	-1,060451787441136E-002	1,000000000000000E+000	-1,5791093E-001	41	-1,1611292E-005
2	0	0	1	0	1,650605844263579E+005	1,1154873E+000	1,1149025E+000	-5,252400887087609E-003	1,000000000000000E+000	-1,5816915E-001	41	-5,8559149E-006
2	0	0	1	0	1,650939042315721E+005	1,1354792E+000	1,1349252E+000	-1,017660489437209E-003	1,000000000000000E+000	-1,5826803E-001	42	-1,1549686E-006
2	1	0	1	0	1,651272239367841E+005	1,1554710E+000	1,1548766E+000	2,384707728391486E-003	1,000000000000000E+000	-1,5824167E-001	42	2,7540432E-006
2	1	0	1	0	1,651605436419994E+005	1,1754627E+000	1,1748204E+000	5,185530474706601E-003	1,000000000000000E+000	-1,5811191E-001	42	6,0920670E-006
2	1	0	1	0	1,651938635472101E+005	1,1954547E+000	1,1948144E+000	7,590154234056755E-003	1,000000000000000E+000	-1,5789586E-001	42	9,0688263E-006
2	1	0	1	0	1,652271833524262E+005	1,2154465E+000	1,2147750E+000	9,633019595461865E-003	1,000000000000000E+000	-1,5760578E-001	42	1,1701951E-005
2	1	0	1	0	1,652605031576371E+005	1,2354385E+000	1,2348223E+000	1,145565227207761E-002	1,000000000000000E+000	-1,5725054E-001	41	1,4145695E-005
2	1	0	0	0	1,652938228628524E+005	1,2554302E+000	1,2547952E+000	1,304591151403854E-002	1,000000000000000E+000	-1,5683962E-001	41	1,6369948E-005
2	1	0	1	0	1,653271425680640E+005	1,2754220E+000	1,2748004E+000	1,451673682912674E-002	1,000000000000000E+000	-1,5637746E-001	41	1,8505942E-005
2	1	0	1	0	1,653604623732786E+005	1,2954139E+000	1,2948046E+000	1,588532840609219E-002	1,000000000000000E+000	-1,5586840E-001	41	2,0568395E-005
2	1	0	1	0	1,653937823784908E+005	1,3154057E+000	1,3147888E+000	1,716709002429578E-002	1,000000000000000E+000	-1,5531562E-001	41	2,2571097E-005
2	1	0	0	0	1,654271020837044E+005	1,3353976E+000	1,3347818E+000	1,836848403002131E-002	1,000000000000000E+000	-1,5472141E-001	41	2,4517918E-005
2	1	0	1	0	1,654604218889174E+005	1,3553895E+000	1,3547512E+000	1,956435300550127E-002	1,000000000000000E+000	-1,5408699E-001	41	2,6504831E-005
2	1	0	1	0	1,654937415941311E+005	1,3753811E+000	1,3747979E+000	2,075108492564866E-002	1,000000000000000E+000	-1,5341315E-001	41	2,8528550E-005
2	1	0	1	0	1,655270613993441E+005	1,3953731E+000	1,3947498E+000	2,191818005545121E-002	1,000000000000000E+000	-1,5269986E-001	41	3,0570376E-005
2	1	0	1	0	1,655603812045571E+005	1,4153650E+000	1,4147916E+000	2,310121182842773E-002	1,000000000000000E+000	-1,5194735E-001	41	3,2683402E-005
2	1	0	1	0	1,655937010097713E+005	1,4353567E+000	1,4347438E+000	2,434968227944923E-002	1,000000000000000E+000	-1,5115476E-001	41	3,4935554E-005
2	1	0	1	0	1,656270207149829E+005	1,4553486E+000	1,4547361E+000	2,569178881270028E-002	1,000000000000000E+000	-1,5031911E-001	41	3,7374772E-005
2	1	0	1	0	1,656603405201985E+005	1,4753405E+000	1,4747310E+000	2,713667357700406E-002	1,000000000000000E+000	-1,4943728E-001	41	4,0019291E-005
2	1	0	0	0	1,656936603254089E+005	1,4953324E+000	1,4947444E+000	2,867244603967173E-002	1,000000000000000E+000	-1,4850579E-001	41	4,2857977E-005
2	1	0	1	0	1,657269801306254E+005	1,5153244E+000	1,5147029E+000	3,035072312858078E-002	1,000000000000000E+000	-1,4752078E-001	41	4,5972331E-005
2	1	0	1	0	1,657602998358363E+005	1,5353160E+000	1,5346897E+000	3,228493799300228E-002	1,000000000000000E+000	-1,4647594E-001	41	4,9547361E-005
2	1	0	1	0	1,657936196410516E+005	1,5553076E+000	1,5546910E+000	3,492921505111751E-002	1,000000000000000E+000	-1,4535645E-001	41	5,4304135E-005
2	1	0	1	0	1,658269394462631E+005	1,5752996E+000	1,5746953E+000	3,894600972274115E-002	1,000000000000000E+000	-1,4412856E-001	41	6,1328101E-005
2	1	0	1	0	1,658602592514777E+005	1,5952915E+000	1,5946784E+000	4,756166406942073E-002	1,000000000000000E+000	-1,4271094E-001	41	7,5845557E-005
2	1	0	1	0	1,658935789566899E+005	1,6152833E+000	1,6146371E+000	6,824889067120185E-002	1,000000000000000E+000	-1,4081076E-001	41	1,1019719E-004
2	1	0	1	0	1,659268987619034E+005	1,6352751E+000	1,6346151E+000	9,483727265000108E-002	1,000000000000000E+000	-1,3809313E-001	41	1,5502244E-004
2	1	0	1	0	1,659602184671165E+005	1,6552671E+000	1,6546938E+000	1,205579352886226E-001	1,000000000000000E+000	-1,3449560E-001	40	1,9948647E-004
2	1	0	1	0	1,659935384723302E+005	1,6752589E+000	1,6747023E+000	1,434291853056058E-001	1,000000000000000E+000	-1,3008600E-001	40	2,4020119E-004
2	1	0	1	0	1,660268582775432E+005	1,6952507E+000	1,6946687E+000	1,628687727378439E-001	1,000000000000000E+000	-1,2497061E-001	40	2,7600859E-004
2	1	0	1	0	1,660601780827562E+005	1,7152424E+000	1,7146672E+000	1,786406329055881E-001	1,000000000000000E+000	-1,1926769E-001	40	3,0630923E-004
2	1	0	1	0	1,660934978879699E+005	1,7352343E+000	1,7346568E+000	1,904598233944270E-001	1,000000000000000E+000	-1,1310478E-001	40	3,3038243E-004
2	1	0	1	0	1,661268175931820E+005	1,7552264E+000	1,7546514E+000	1,977430002560645E-001	1,000000000000000E+000	-1,0662140E-001	40	3,4697005E-004
2	1	0	1	0	1,661601372983977E+005	1,7752180E+000	1,7746308E+000	2,002764506489098E-001	1,000000000000000E+000	-9,9973910E-002	40	3,5541676E-004
2	1	0	1	0	1,661934573036083E+005	1,7952100E+000	1,7946570E+000	1,980602793359321E-001	1,000000000000000E+000	-9,3322799E-002	40	3,5545026E-004
2	1	0	1	0	1,662267771088243E+005	1,8152018E+000	1,8146186E+000	1,915584577892044E-001	1,000000000000000E+000	-8,6819433E-002	40	3,4760553E-004
2	1	0	1	0	1,662600968140352E+005	1,8351939E+000	1,8346218E+000	1,820609061917962E-001	1,000000000000000E+000	-8,0586672E-002	40	3,3401290E-004
2	1	0	1	0	1,662934165192507E+005	1,8551853E+000	1,8545951E+000	1,711629056257316E-001	1,000000000000000E+000	-7,4698433E-002	40	3,1743789E-004
2	1	0	1	0	1,663267362244624E+005	1,8751773E+000	1,8746260E+000	1,597384976936574E-001	1,000000000000000E+000	-6,9183826E-002	40	2,9944995E-004
2	1	0	0	0	1,663600560296765E+005	1,8951693E+000	1,8946041E+000	1,481848663461330E-001	1,000000000000000E+000	-6,4052939E-002	40	2,8075164E-004
2	1	0	1	0	1,663933760348889E+005	1,9151610E+000	1,9146076E+000	1,369670373125480E-001	1,000000000000000E+000	-5,9300687E-002	40	2,6223814E-004
2	1	0	1	0	1,664266957401028E+005	1,9351526E+000	1,9345829E+000	1,261182625824753E-001	1,000000000000000E+000	-5,4916795E-002	40	2,4398624E-004
2	1	0	1	0	1,664600155453156E+005	1,9551446E+000	1,9545976E+000	1,157908066753979E-001	1,000000000000000E+000	-5,0886121E-002	40	2,2632444E-004
2	1	0	1	0	1,664933351505292E+005	1,9751365E+000	1,9745781E+000	1,061285870905377E-001	1,000000000000000E+000	-4,7188979E-002	40	2,0955919E-004
2	1	0	1	0	1,665266549557423E+005	1,9951283E+000	1,9945776E+000	9,718851649938287E-002	1,000000000000000E+000	-4,3801434E-002	40	1,9385004E-004
2	1	0	1	0	1,665599748609550E+005	2,0151200E+000	2,0145738E+000	8,895941664293372E-002	1,000000000000000E+000	-4,0700242E-002	40	1,7921531E-004
2	1	0	1	0	1,665932948661691E+005	2,0351119E+000	2,0345597E+000	8,138565622451122E-002	1,000000000000000E+000	-3,7861846E-002	40	1,6558397E-004
2	1	0	1	0	1,666266144713811E+005	2,0551038E+000	2,0545523E+000	7,447905780382735E-002	1,000000000000000E+000	-3,5265323E-002	40	1,5302112E-004
2	1	0	1	0	1,666599342765966E+005	2,0750957E+000	2,0745444E+000	6,821931120268365E-002	1,000000000000000E+000	-3,2887928E-002	40	1,4152400E-004
2	1	0	1	0	1,666932540818071E+005	2,0950875E+000	2,0945146E+000	6,248418623988912E-002	1,000000000000000E+000	-3,0709555E-002	40	1,3087405E-004
2	1	0	1	0	1,667265738870236E+005	2,1150794E+000	2,1145332E+000	5,732431060962540E-002	1,000000000000000E+000	-2,8712668E-002	40	1,2121416E-004
2	1	0	1	0	1,667598934922344E+005	2,1350713E+000	2,1345196E+000	5,259517162063576E-002	1,000000000000000E+000	-2,6880348E-002	40	1,1226542E-004
2	1	0	1	0	1,667933802974736E+005	2,1551628E+000	2,1545491E+000	4,832136935418019E-002	1,000000000000000E+000	-2,5191013E-002	41	1,0411076E-004
2	1	0	1	0	1,668267001026890E+005	2,1751549E+000	2,1745408E+000	4,443279419492396E-002	1,000000000000000E+000	-2,3644742E-002	41	9,6620919E-005
2	1	0	1	0	1,668600197079000E+005	2,1951466E+000	2,1945500E+000	4,090468154276383E-002	1,000000000000000E+000	-2,2221932E-002	41	8,9767367E-005
2	1	0	1	0	1,668933395131161E+005	2,2151384E+000	2,2145407E+000	3,770709137294059E-002	1,000000000000000E+000	-2,0911492E-002	41	8,3503888E-005
2	1	0	1	0	1,669266593183267E+005	2,2351303E+000	2,2345600E+000	3,482415201810002E-002	1,000000000000000E+000	-1,9701986E-002	41	7,7816658E-005
2	1	0	1	0	1,669599791235421E+005	2,2551222E+000	2,2545574E+000	3,227737818781573E-002	1,000000000000000E+000	-1,8583043E-002	41	7,2771203E-005
2	1	0	1	0	1,669932993287537E+005	2,2751141E+000	2,2745309E+000	2,997944295360441E-002	1,000000000000000E+000	-1,7544612E-002	41	6,8189169E-005
2	1	0	1	0	1,670266191339684E+005	2,2951059E+000	2,2945185E+000	2,795112346677842E-002	1,000000000000000E+000	-1,6578138E-002	41	6,4134372E-005
2	1	0	1	0	1,670599387391804E+005	2,3150976E+000	2,3145413E+000	2,613837703291244E-002	1,000000000000000E+000	-1,5675690E-002	41	6,0498354E-005
2	1	0	1	0	1,670932585443943E+005	2,3350897E+000	2,3345399E+000	2,454438887476934E-002	1,000000000000000E+000	-1,4829969E-002	41	5,7299854E-005
2	1	0	1	0	1,671265783496071E+005	2,3550816E+000	2,3545182E+000	2,314860785899381E-002	1,000000000000000E+000	-1,4033951E-002	41	5,4503817E-005
2	1	0	1	0	1,671598979548207E+005	2,3750732E+000	2,3744929E+000	2,192933150501661E-002	1,000000000000000E+000	-1,3281179E-002	41	5,2071042E-005
2	1	0	1	0	1,671932181600338E+005	2,3950653E+000	2,3945043E+000	2,091390919338043E-002	1,000000000000000E+000	-1,2565725E-002	41	5,0078444E-005
2	1	0	1	0	1,672265379652469E+005	2,4150569E+000	2,4145117E+000	2,002388014869297E-002	1,000000000000000E+000	-1,1881645E-002	41	4,8347891E-005
2	1	0	1	0	1,672598576704605E+005	2,4350486E+000	2,4345014E+000	1,929998726166735E-002	1,000000000000000E+000	-1,1224454E-002	41	4,6985846E-005
2	1	0	1	0	1,672931774756731E+005	2,4550407E+000	2,4544930E+000	1,866265021129166E-002	1,000000000000000E+000	-1,0590033E-002	41	4,5807345E-005
2	1	0	1	0	1,673264972808880E+005	2,4750326E+000	2,4744773E+000	1,814942269725409E-002	1,000000000000000E+000	-9,9748848E-003	41	4,4910335E-005
2	1	0	1	0	1,673598170860992E+005	2,4950244E+000	2,4944696E+000	1,770293215139457E-002	1,000000000000000E+000	-9,3760081E-003	41	4,4159427E-005
2	1	0	1	0	1,673931370913151E+005	2,5150166E+000	2,5144815E+000	1,728274300096949E-002	1,000000000000000E+000	-8,7907948E-003	41	4,3457138E-005
2	1	0	1	0	1,674264567965255E+005	2,5350080E+000	2,5344772E+000	1,690807931623173E-002	1,000000000000000E+000	-8,2185576E-003	41	4,2853142E-005
2	1	0	1	0	1,674597766017416E+005	2,5549998E+000	2,5544441E+000	1,654814986207603E-002	1,000000000000000E+000	-7,6593757E-003	41	4,2271324E-005
2	1	0	1	0	1,674930962069528E+005	2,5749917E+000	2,5744743E+000	1,614649082554548E-002	1,000000000000000E+000	-7,1129068E-003	41	4,1568725E-005
2	1	0	1	0	1,675264160121675E+005	2,5949833E+000	2,5944414E+000	1,579650443902425E-002	1,000000000000000E+000	-6,5790475E-003	41	4,0983105E-005
2	1	0	1	0	1,675597358173796E+005	2,6149755E+000	2,6144650E+000	1,548961065481967E-002	1,000000000000000E+000	-6,0558626E-003	41	4,0497045E-005
2	1	0	1	0	1,675930560225938E+005	2,6349673E+000	2,6344469E+000	1,527061547821448E-002	1,000000000000000E+000	-5,5412399E-003	41	4,0229625E-005
2	1	0	1	0	1,676263758278062E+005	2,6549592E+000	2,6544533E+000	1,511976835187578E-002	1,000000000000000E+000	-5,0331778E-003	41	4,0134717E-005
2	1	0	1	0	1,676596956330198E+005	2,6749513E+000	2,6744440E+000	1,501907557661647E-002	1,000000000000000E+000	-4,5292769E-003	41	4,0167677E-005
2	1	0	1	0	1,676930152382329E+005	2,6949427E+000	2,6944389E+000	1,496350970896414E-002	1,000000000000000E+000	-4,0279659E-003	41	4,0318264E-005
2	1	0	1	1	1,677240028430803E+005	2,6864464E+000	2,6859186E+000	7,613090572952771E-003	2,000000000000000E+000	-3,6850469E-003	41	2,0448142E-005
2	1	0	1	1	1,677573226482957E+005	2,6664543E+000	2,6658807E+000	4,762328691963302E-003	2,000000000000000E+000	-3,4853178E-003	42	1,2695800E-005
2	1	0	1	1	1,677906424535075E+005	2,6464627E+000	2,6459157E+000	2,994493879756227E-003	2,000000000000000E+000	-3,3598922E-003	42	7,9231786E-006
2	1	0	1	1	1,678239620587216E+005	2,6264708E+000	2,6259465E+000	1,746811818658375E-003	2,000000000000000E+000	-3,2842678E-003	42	4,5870343E-006
2	1	0	1	1	1,678572818639342E+005	2,6064792E+000	2,6059515E+000	7,707315639750700E-004	2,000000000000000E+000	-3,2454953E-003	42	2,0084892E-006
2	1	0	1	1	1,678906016691485E+005	2,5864871E+000	2,5859399E+000	-2,472659079855212E-005	2,000000000000000E+000	-3,2354055E-003	43	-6,3941478E-008
2	0	0	1	1	1,679239213743609E+005	2,5664954E+000	2,5660229E+000	-6,360621271632979E-004	2,000000000000000E+000	-3,2482608E-003	43	-1,6321500E-006
2	0	0	1	1	1,679572411795743E+005	2,5465035E+000	2,5459938E+000	-1,194053074124592E-003	2,000000000000000E+000	-3,2811698E-003	42	-3,0400518E-006
2	0	0	1	1	1,679905609847880E+005	2,5265114E+000	2,5260003E+000	-1,663755507650361E-003	2,000000000000000E+000	-3,3309232E-003	42	-4,2026468E-006
2	0	0	1	1	1,680238807900003E+005	2,5065196E+000	2,5060353E+000	-2,088157492051962E-003	2,000000000000000E+000	-3,3957514E-003	42	-5,2329965E-006
2	0	0	1	1	1,680572003952151E+005	2,4865279E+000	2,4860370E+000	-2,457049598599027E-003	2,000000000000000E+000	-3,4740064E-003	42	-6,1083160E-006
2	0	0	1	1	1,680905202004262E+005	2,4665360E+000	2,4660439E+000	-2,807308403837736E-003	2,000000000000000E+000	-3,5640525E-003	42	-6,9229459E-006
2	0	0	1	1	1,681238399056422E+005	2,4465442E+000	2,4460309E+000	-3,120373123170928E-003	2,000000000000000E+000	-3,6647273E-003	42	-7,6325286E-006
2	0	0	1	1	1,681571595108528E+005	2,4265523E+000	2,4260991E+000	-3,376706186434895E-003	2,000000000000000E+000	-3,7750339E-003	42	-8,1922235E-006
2	0	0	1	1	1,681904793160683E+005	2,4065607E+000	2,4061093E+000	-3,643269314224137E-003	2,000000000000000E+000	-3,8942157E-003	42	-8,7661047E-006
2	0	0	1	1	1,682237991212797E+005	2,3865685E+000	2,3861020E+000	-3,902479362571400E-003	2,000000000000000E+000	-4,0221503E-003	42	-9,3117133E-006
2	0	0	1	1	1,682571189264944E+005	2,3665767E+000	2,3660967E+000	-4,136410642020930E-003	2,000000000000000E+000	-4,1581648E-003	42	-9,7871480E-006
2	0	0	1	1	1,682904387317066E+005	2,3465848E+000	2,3460915E+000	-4,390507559839781E-003	2,000000000000000E+000	-4,3022879E-003	42	-1,0300532E-005
2	0	0	1	1	1,683237585369204E+005	2,3265929E+000	2,3261161E+000	-4,629111772797394E-003	2,000000000000000E+000	-4,4542281E-003	42	-1,0767852E-005
2	0	0	1	1	1,683570781421333E+005	2,3066013E+000	2,3061495E+000	-4,888400075396947E-003	2,000000000000000E+000	-4,6145120E-003	42	-1,1273381E-005
2	0	0	1	1	1,683903979473468E+005	2,2866094E+000	2,2861514E+000	-5,175613818994035E-003	2,000000000000000E+000	-4,7837351E-003	42	-1,1832237E-005
2	0	0	1	1	1,684237177525599E+005	2,2666175E+000	2,2661471E+000	-5,468013039719166E-003	2,000000000000000E+000	-4,9626147E-003	42	-1,2391322E-005
2	0	0	1	1	1,684570375577728E+005	2,2466257E+000	2,2461734E+000	-5,796073667911600E-003	2,000000000000000E+000	-5,1518129E-003	42	-1,3018986E-005
2	0	0	1	1	1,684903571629866E+005	2,2266338E+000	2,2261968E+000	-6,145236334595655E-003	2,000000000000000E+000	-5,3527677E-003	42	-1,3680506E-005
2	0	0	1	1	1,685236769681987E+005	2,2066419E+000	2,2062149E+000	-6,556673926489388E-003	2,000000000000000E+000	-5,5666128E-003	42	-1,4465431E-005
2	0	0	1	1	1,685569967734143E+005	2,1866500E+000	2,1862342E+000	-7,019989625443153E-003	2,000000000000000E+000	-5,7947342E-003	42	-1,5347341E-005
2	0	0	1	1	1,685903165786252E+005	2,1666582E+000	2,1662335E+000	-7,502107734927030E-003	2,000000000000000E+000	-6,0385428E-003	42	-1,6251317E-005
2	0	0	1	1	1,686236363838413E+005	2,1466665E+000	2,1462612E+000	-8,042664181478580E-003	2,000000000000000E+000	-6,2995264E-003	42	-1,7261658E-005
2	0	0	1	1	1,686569560890521E+005	2,1266744E+000	2,1262805E+000	-8,646869005001188E-003	2,000000000000000E+000	-6,5797227E-003	42	-1,8385670E-005
2	0	0	1	1	1,686902756942674E+005	2,1066830E+000	2,1063271E+000	-9,299935933334724E-003	2,000000000000000E+000	-6,8810303E-003	42	-1,9588706E-005
2	0	0	1	1	1,687235954994792E+005	2,0866911E+000	2,0861900E+000	-1,009760222776601E-002	2,000000000000000E+000	-7,2058160E-003	41	-2,1065516E-005
2	0	0	1	1	1,687569153046934E+005	2,0666993E+000	2,0661817E+000	-1,086643335928025E-002	2,000000000000000E+000	-7,5563574E-003	41	-2,2452024E-005
2	0	0	1	1	1,687902351099057E+005	2,0467074E+000	2,0462263E+000	-1,170010602886473E-002	2,000000000000000E+000	-7,9334341E-003	41	-2,3941064E-005
2	0	0	1	1	1,688235547151193E+005	2,0267155E+000	2,0262184E+000	-1,260723808515626E-002	2,000000000000000E+000	-8,3401203E-003	41	-2,5545018E-005
2	0	0	1	1	1,688568744203324E+005	2,0067239E+000	2,0062125E+000	-1,361169802848911E-002	2,000000000000000E+000	-8,7787965E-003	41	-2,7307959E-005
2	0	0	1	1	1,688901943255458E+005	1,9867316E+000	1,9862059E+000	-1,467986996886900E-002	2,000000000000000E+000	-9,2517277E-003	41	-2,9157245E-005
2	0	0	1	1	1,689235141307591E+005	1,9667399E+000	1,9662241E+000	-1,583275922982398E-002	2,000000000000000E+000	-9,7618261E-003	41	-3,1130752E-005
2	0	0	1	1	1,689568339359718E+005	1,9467481E+000	1,9462032E+000	-1,710928036172873E-002	2,000000000000000E+000	-1,0312402E-002	41	-3,3298136E-005
2	0	0	1	1	1,689901536411860E+005	1,9267561E+000	1,9262668E+000	-1,845181587514352E-002	2,000000000000000E+000	-1,0906530E-002	41	-3,5543118E-005
2	0	0	1	1	1,690234733463977E+005	1,9067644E+000	1,9062562E+000	-1,989804804822268E-002	2,000000000000000E+000	-1,1547484E-002	41	-3,7930778E-005
2	0	0	1	1	1,690567931516138E+005	1,8867726E+000	1,8862759E+000	-2,143313507096781E-002	2,000000000000000E+000	-1,2238170E-002	41	-4,0428808E-005
2	0	0	1	1	1,690901129568242E+005	1,8667808E+000	1,8662429E+000	-2,304970935385264E-002	2,000000000000000E+000	-1,2981196E-002	41	-4,3016356E-005
2	0	0	1	1	1,691234327620403E+005	1,8467886E+000	1,8462752E+000	-2,476925077193254E-002	2,000000000000000E+000	-1,3779934E-002	41	-4,5730852E-005
2	0	0	1	1	1,691567524672514E+005	1,8267969E+000	1,8262526E+000	-2,657444810867834E-002	2,000000000000000E+000	-1,4637288E-002	41	-4,8531656E-005
2	0	0	1	1	1,691900721724662E+005	1,8068054E+000	1,8062898E+000	-2,848085685049651E-002	2,000000000000000E+000	-1,5556052E-002	41	-5,1444680E-005
2	0	0	1	1	1,692233919776783E+005	1,7868134E+000	1,7863047E+000	-3,050362725753905E-002	2,000000000000000E+000	-1,6540224E-002	41	-5,4488773E-005
2	0	0	1	1	1,692567117828922E+005	1,7668213E+000	1,7662987E+000	-3,264169484957585E-002	2,000000000000000E+000	-1,7594002E-002	41	-5,7654983E-005
2	0	0	1	1	1,692900313881048E+005	1,7468297E+000	1,7462939E+000	-3,492465196140121E-002	2,000000000000000E+000	-1,8721193E-002	41	-6,0988707E-005
2	0	0	1	1	1,693233511933186E+005	1,7268378E+000	1,7263222E+000	-3,730247243487578E-002	2,000000000000000E+000	-1,9926289E-002	41	-6,4396088E-005
2	0	0	0	1	1,693566708985314E+005	1,7068460E+000	1,7063036E+000	-3,991248531044456E-002	2,000000000000000E+000	-2,1214426E-002	41	-6,8102818E-005
2	0	0	1	1	1,693899907037443E+005	1,6868541E+000	1,6863565E+000	-4,269506952233026E-002	2,000000000000000E+000	-2,2591654E-002	41	-7,1999108E-005
2	0	0	0	1	1,694233105089581E+005	1,6668625E+000	1,6663312E+000	-4,579615056263209E-002	2,000000000000000E+000	-2,4067262E-002	41	-7,6311553E-005
2	0	0	1	1	1,694566303141704E+005	1,6468704E+000	1,6463596E+000	-4,936575009970223E-002	2,000000000000000E+000	-2,5653997E-002	41	-8,1273778E-005
2	0	0	1	1	1,694899500193854E+005	1,6268785E+000	1,6263465E+000	-5,353494957196969E-002	2,000000000000000E+000	-2,7368428E-002	41	-8,7066379E-005
2	0	0	1	1	1,695232697245963E+005	1,6068867E+000	1,6063645E+000	-5,853848890530859E-002	2,000000000000000E+000	-2,9234858E-002	41	-9,4034149E-005
2	0	0	1	1	1,695565894298130E+005	1,5868950E+000	1,5863953E+000	-6,468492955808824E-002	2,000000000000000E+000	-3,1286158E-002	41	-1,0261586E-004
2	0	0	1	1	1,695899092350237E+005	1,5669031E+000	1,5664192E+000	-7,223116100662419E-002	2,000000000000000E+000	-3,3565298E-002	41	-1,1314428E-004
2	0	0	1	1	1,696232290402390E+005	1,5469111E+000	1,5464276E+000	-8,161686907646848E-002	2,000000000000000E+000	-3,6124930E-002	41	-1,2621458E-004
2	0	0	0	1	1,696565487454507E+005	1,5269194E+000	1,5264795E+000	-9,390675780419433E-002	2,000000000000000E+000	-3,9041687E-002	41	-1,4334674E-004
2	0	0	1	1	1,696898685506647E+005	1,5069275E+000	1,5063955E+000	-1,100245833641149E-001	2,000000000000000E+000	-4,2432126E-002	40	-1,6574054E-004
2	0	0	1	1	1,697231882558774E+005	1,4869357E+000	1,4863900E+000	-1,282248396357706E-001	2,000000000000000E+000	-4,6402100E-002	40	-1,9059212E-004
2	0	0	1	1	1,697565080610914E+005	1,4669437E+000	1,4664000E+000	-1,460188904724442E-001	2,000000000000000E+000	-5,0978255E-002	40	-2,1412210E-004
2	0	0	1	1	1,697898278663039E+005	1,4469520E+000	1,4463993E+000	-1,615753005597569E-001	2,000000000000000E+000	-5,6113955E-002	40	-2,3370241E-004
2	0	0	0	1	1,698231475715172E+005	1,4269603E+000	1,4264073E+000	-1,734546773946866E-001	2,000000000000000E+000	-6,1709993E-002	40	-2,4741702E-004
2	0	0	1	1	1,698564673767305E+005	1,4069682E+000	1,4064348E+000	-1,804867613278511E-001	2,000000000000000E+000	-6,7623526E-002	40	-2,5384285E-004
2	0	0	1	1	1,698897870819434E+005	1,3869765E+000	1,3864564E+000	-1,820609108033991E-001	2,000000000000000E+000	-7,3680960E-002	40	-2,5241950E-004
2	0	0	1	1	1,699231068871575E+005	1,3669847E+000	1,3664663E+000	-1,787964191416727E-001	2,000000000000000E+000	-7,9707704E-002	40	-2,4431926E-004
2	0	0	1	1	1,699564266923694E+005	1,3469927E+000	1,3464550E+000	-1,719134337005073E-001	2,000000000000000E+000	-8,5560426E-002	40	-2,3147369E-004
2	0	0	1	1	1,699897463975847E+005	1,3270010E+000	1,3264530E+000	-1,630957402158444E-001	2,000000000000000E+000	-9,1146477E-002	40	-2,1633883E-004
2	0	0	1	1	1,700230660027955E+005	1,3070093E+000	1,3064364E+000	-1,540162092903257E-001	2,000000000000000E+000	-9,6429847E-002	40	-2,0121239E-004
2	0	0	0	1	1,700563858080115E+005	1,2870172E+000	1,2864863E+000	-1,453254346401287E-001	2,000000000000000E+000	-1,0141651E-001	40	-1,8695918E-004
2	0	0	1	1	1,700897056132229E+005	1,2670255E+000	1,2664778E+000	-1,373094363827154E-001	2,000000000000000E+000	-1,0612404E-001	40	-1,7389936E-004
2	0	0	1	1	1,701230253184377E+005	1,2470336E+000	1,2464943E+000	-1,300921007069444E-001	2,000000000000000E+000	-1,1057832E-001	40	-1,6215906E-004
2	0	0	1	1	1,701563451236498E+005	1,2270417E+000	1,2264706E+000	-1,237361140237733E-001	2,000000000000000E+000	-1,1480718E-001	40	-1,5175871E-004
2	0	0	1	1	1,701896647288636E+005	1,2070500E+000	1,2064872E+000	-1,180536887197052E-001	2,000000000000000E+000	-1,1883558E-001	40	-1,4243026E-004
2	0	0	1	1	1,702229845340765E+005	1,1870581E+000	1,1864823E+000	-1,130416952544655E-001	2,000000000000000E+000	-1,2268610E-001	40	-1,3412198E-004
2	0	0	1	1	1,702563043392901E+005	1,1670662E+000	1,1665202E+000	-1,086713355452507E-001	2,000000000000000E+000	-1,2637989E-001	40	-1,2676731E-004
2	0	0	1	1	1,702896240445030E+005	1,1470745E+000	1,1464987E+000	-1,048957660719032E-001	2,000000000000000E+000	-1,2993859E-001	40	-1,2026286E-004
2	0	0	1	1	1,703229437497160E+005	1,1270826E+000	1,1265265E+000	-1,016545508743557E-001	2,000000000000000E+000	-1,3338029E-001	40	-1,1451654E-004
2	0	0	1	1	1,703562635549298E+005	1,1070907E+000	1,1065059E+000	-9,895452787118653E-002	2,000000000000000E+000	-1,3672237E-001	40	-1,0949377E-004
2	0	0	1	1	1,703895833601421E+005	1,0870988E+000	1,0865083E+000	-9,671353043403119E-002	2,000000000000000E+000	-1,3998309E-001	40	-1,0508005E-004
2	0	0	1	1	1,704229031653570E+005	1,0671070E+000	1,0665274E+000	-9,496989759837371E-002	2,000000000000000E+000	-1,4317706E-001	40	-1,0128799E-004
2	0	0	0	1	1,704562228705678E+005	1,0471152E+000	1,0465239E+000	-9,365862102725697E-002	2,000000000000000E+000	-1,4632031E-001	40	-9,8015989E-005
2	0	0	1	1	1,704895425757840E+005	1,0271233E+000	1,0265538E+000	-9,274593088685207E-002	2,000000000000000E+000	-1,4942706E-001	40	-9,5208685E-005
2	0	0	1	1	1,705228623809949E+005	1,0071315E+000	1,0065534E+000	-9,228422938877090E-002	2,000000000000000E+000	-1,5251085E-001	40	-9,2889008E-005
2	0	0	1	1	1,705540168858701E+005	1,0115296E+000	1,0109754E+000	-6,733405044802376E-002	2,000000000000000E+000	-1,5510900E-001	40	-6,8073066E-005
2	0	0	0	1	1,705873366910839E+005	1,0315216E+000	1,0309769E+000	-4,419275582958893E-002	2,000000000000000E+000	-1,5692988E-001	41	-4,5561708E-005
2	0	0	1	1	1,706206564962967E+005	1,0515133E+000	1,0509881E+000	-2,973725649534236E-002	2,000000000000000E+000	-1,5814309E-001	41	-3,1253501E-005
2	0	0	1	1	1,706539762015105E+005	1,0715052E+000	1,0709436E+000	-1,959745726164105E-002	2,000000000000000E+000	-1,5895276E-001	41	-2,0987771E-005
2	0	0	1	1	1,706872960067234E+005	1,0914971E+000	1,0909373E+000	-1,209542472814676E-002	2,000000000000000E+000	-1,5947248E-001	41	-1,3195349E-005
2	0	0	1	1	1,707206156119364E+005	1,1114888E+000	1,1109123E+000	-6,370366734413074E-003	2,000000000000000E+000	-1,5977396E-001	41	-7,0769188E-006
2	0	0	1	1	1,707539354171501E+005	1,1314807E+000	1,1309202E+000	-1,877103592397414E-003	2,000000000000000E+000	-1,5990572E-001	42	-2,1228543E-006
2	1	0	1	1	1,707872552223625E+005	1,1514726E+000	1,1508775E+000	1,725604735675745E-003	2,000000000000000E+000	-1,5990432E-001	42	1,9859597E-006
2	1	0	1	1	1,708205749275773E+005	1,1714644E+000	1,1708564E+000	4,698303980983012E-003	2,000000000000000E+000	-1,5979373E-001	42	5,5010391E-006
2	1	0	0	1	1,708538949327883E+005	1,1914563E+000	1,1908319E+000	7,179479333554589E-003	2,000000000000000E+000	-1,5959287E-001	42	8,5495531E-006
2	1	0	1	1	1,708872146380041E+005	1,2114482E+000	1,2108217E+000	9,319004328918051E-003	2,000000000000000E+000	-1,5931524E-001	42	1,1283653E-005
2	1	0	1	1	1,709205344432155E+005	1,2314399E+000	1,2308668E+000	1,120851173746067E-002	2,000000000000000E+000	-1,5896989E-001	41	1,3796185E-005
2	1	0	1	1	1,709538542484310E+005	1,2514318E+000	1,2508435E+000	1,279016755688081E-002	2,000000000000000E+000	-1,5856715E-001	41	1,5998497E-005
2	1	0	1	1	1,709871739536426E+005	1,2714236E+000	1,2708199E+000	1,429767379253166E-002	2,000000000000000E+000	-1,5811282E-001	41	1,8169769E-005
2	1	0	1	1	1,710204936588570E+005	1,2914155E+000	1,2908510E+000	1,568923668206693E-002	2,000000000000000E+000	-1,5761052E-001	41	2,0252466E-005
2	1	0	1	1	1,710538136640693E+005	1,3114074E+000	1,3108197E+000	1,692931673306664E-002	2,000000000000000E+000	-1,5706484E-001	41	2,2191283E-005
2	1	0	1	1	1,710871334692831E+005	1,3313992E+000	1,3308164E+000	1,818247144691794E-002	2,000000000000000E+000	-1,5647794E-001	41	2,4197530E-005
2	1	0	1	1	1,711204531744960E+005	1,3513911E+000	1,3507713E+000	1,932140196706633E-002	2,000000000000000E+000	-1,5585113E-001	41	2,6098796E-005
2	1	0	1	1	1,711537729797093E+005	1,3713830E+000	1,3707952E+000	2,049643517844402E-002	2,000000000000000E+000	-1,5518512E-001	41	2,8096416E-005
2	1	0	1	1	1,711870926849225E+005	1,3913746E+000	1,3907690E+000	2,164742931153543E-002	2,000000000000000E+000	-1,5448017E-001	41	3,0106574E-005
2	1	0	0	1	1,712204123901352E+005	1,4113666E+000	1,4107890E+000	2,286846270605858E-002	2,000000000000000E+000	-1,5373658E-001	41	3,2262575E-005
2	1	0	1	1	1,712537323953491E+005	1,4313583E+000	1,4307144E+000	2,408948630420660E-002	2,000000000000000E+000	-1,5295228E-001	41	3,4465174E-005
2	1	0	1	1	1,712870521005616E+005	1,4513502E+000	1,4507238E+000	2,541993872516785E-002	2,000000000000000E+000	-1,5212514E-001	41	3,6877311E-005
2	1	0	1	1	1,713203719057764E+005	1,4713422E+000	1,4706867E+000	2,682210960633014E-002	2,000000000000000E+000	-1,5125300E-001	41	3,9446921E-005
2	1	0	0	1	1,713536916109873E+005	1,4913340E+000	1,4907399E+000	2,836120246459251E-002	2,000000000000000E+000	-1,5033193E-001	41	4,2279178E-005
2	1	0	1	1	1,713870114162033E+005	1,5113257E+000	1,5107071E+000	3,000506313617113E-002	2,000000000000000E+000	-1,4935769E-001	41	4,5328863E-005
2	1	0	1	1	1,714203311214144E+005	1,5313176E+000	1,5307040E+000	3,188255381307581E-002	2,000000000000000E+000	-1,4832553E-001	41	4,8802754E-005
2	1	0	1	1	1,714536510266298E+005	1,5513095E+000	1,5507003E+000	3,432697062570426E-002	2,000000000000000E+000	-1,4722306E-001	41	5,3230844E-005
2	1	0	1	1	1,714869707318416E+005	1,5713012E+000	1,5706929E+000	3,806010613914540E-002	2,000000000000000E+000	-1,4601934E-001	41	5,9780738E-005
2	1	0	1	1	1,715202905370560E+005	1,5912930E+000	1,5906540E+000	4,536836980987385E-002	2,000000000000000E+000	-1,4464733E-001	41	7,2165378E-005
2	1	0	1	1	1,715536103422684E+005	1,6112850E+000	1,6106220E+000	6,450691830321414E-002	2,000000000000000E+000	-1,4285080E-001	41	1,0389627E-004
2	1	0	1	1	1,715869300474818E+005	1,6312770E+000	1,6305865E+000	9,145383300596244E-002	2,000000000000000E+000	-1,4025493E-001	41	1,4912339E-004
2	1	0	0	1	1,716202498526950E+005	1,6512687E+000	1,6506546E+000	1,180892459418250E-001	2,000000000000000E+000	-1,3675547E-001	40	1,9492455E-004
2	1	0	1	1	1,716535697579086E+005	1,6712606E+000	1,6706390E+000	1,422777275870022E-001	2,000000000000000E+000	-1,3240562E-001	40	2,3769472E-004
2	1	0	1	1	1,716868896631215E+005	1,6912525E+000	1,6906334E+000	1,628751736302496E-001	2,000000000000000E+000	-1,2730807E-001	40	2,7536222E-004
2	1	0	1	1	1,717202093683346E+005	1,7112441E+000	1,7106274E+000	1,796952737306268E-001	2,000000000000000E+000	-1,2158729E-001	40	3,0739166E-004
2	1	0	1	1	1,717535291735483E+005	1,7312361E+000	1,7306241E+000	1,923873465203525E-001	2,000000000000000E+000	-1,1537332E-001	40	3,3295018E-004
2	1	0	1	1	1,717868489787607E+005	1,7512280E+000	1,7506206E+000	2,005547751996939E-001	2,000000000000000E+000	-1,0881054E-001	40	3,5109531E-004
2	1	0	1	1	1,718201686839755E+005	1,7712198E+000	1,7706262E+000	2,036734788539019E-001	2,000000000000000E+000	-1,0206027E-001	40	3,6062961E-004
2	1	0	1	1	1,718534884891864E+005	1,7912114E+000	1,7906075E+000	2,019188163834960E-001	2,000000000000000E+000	-9,5287956E-002	40	3,6155735E-004
2	1	0	1	1	1,718868082944024E+005	1,8112034E+000	1,8106034E+000	1,957166205760833E-001	2,000000000000000E+000	-8,8650040E-002	40	3,5436518E-004
2	1	0	0	1	1,719201280996134E+005	1,8311951E+000	1,8305961E+000	1,862658667080166E-001	2,000000000000000E+000	-8,2277417E-002	40	3,4097757E-004
2	1	0	1	1	1,719534479048289E+005	1,8511872E+000	1,8505914E+000	1,749606984537424E-001	2,000000000000000E+000	-7,6254733E-002	40	3,2378075E-004
2	1	0	1	1	1,719867676100407E+005	1,8711787E+000	1,8705848E+000	1,629498411182921E-001	2,000000000000000E+000	-7,0622973E-002	40	3,0481152E-004
2	1	0	1	1	1,720200873152548E+005	1,8911707E+000	1,8905814E+000	1,509317570984388E-001	2,000000000000000E+000	-6,5393358E-002	40	2,8534877E-004
2	1	0	1	1	1,720534072204675E+005	1,9111625E+000	1,9105878E+000	1,390938118972769E-001	2,000000000000000E+000	-6,0561210E-002	40	2,6575095E-004
2	1	0	1	1	1,720867270256812E+005	1,9311543E+000	1,9305613E+000	1,275811957424601E-001	2,000000000000000E+000	-5,6117289E-002	40	2,4630333E-004
2	1	0	1	1	1,721200467308941E+005	1,9511461E+000	1,9505638E+000	1,166959451240841E-001	2,000000000000000E+000	-5,2047651E-002	40	2,2762289E-004
2	1	0	1	1	1,721533665361074E+005	1,9711382E+000	1,9705598E+000	1,065044555988214E-001	2,000000000000000E+000	-4,8329376E-002	40	2,0987340E-004
2	1	0	1	1	1,721866862413207E+005	1,9911301E+000	1,9905928E+000	9,710968716191770E-002	2,000000000000000E+000	-4,4937592E-002	40	1,9330585E-004
2	1	0	1	1	1,722200061465334E+005	2,0111217E+000	2,0105672E+000	8,855214281109136E-002	2,000000000000000E+000	-4,1845061E-002	40	1,7804003E-004
2	1	0	1	1	1,722533261517473E+005	2,0311136E+000	2,0305676E+000	8,074266486709879E-002	2,000000000000000E+000	-3,9025232E-002	40	1,6395345E-004
2	1	0	1	1	1,722866457569595E+005	2,0511053E+000	2,0505404E+000	7,364547300171376E-002	2,000000000000000E+000	-3,6453348E-002	40	1,5101302E-004
2	1	0	1	1	1,723199655621746E+005	2,0710974E+000	2,0705295E+000	6,721667292949657E-002	2,000000000000000E+000	-3,4106847E-002	40	1,3917410E-004
2	1	0	1	1	1,723532853673855E+005	2,0910892E+000	2,0905299E+000	6,144599406086715E-002	2,000000000000000E+000	-3,1963129E-002	40	1,2845469E-004
2	1	0	1	1	1,723866051726015E+005	2,1110811E+000	2,1105456E+000	5,617765147742904E-002	2,000000000000000E+000	-3,0002734E-002	40	1,1856550E-004
2	1	0	1	1	1,724199249778125E+005	2,1310730E+000	2,1305254E+000	5,140532122394220E-002	2,000000000000000E+000	-2,8209176E-002	40	1,0952034E-004
2	1	0	1	1	1,724534115830520E+005	2,1511645E+000	2,1505830E+000	4,717950369878154E-002	2,000000000000000E+000	-2,6558120E-002	41	1,0146344E-004
2	1	0	1	1	1,724867313882669E+005	2,1711566E+000	2,1705658E+000	4,327302230330621E-002	2,000000000000000E+000	-2,5049921E-002	41	9,3926945E-005
2	1	0	1	1	1,725200511934781E+005	2,1911485E+000	2,1905813E+000	3,974623910723124E-002	2,000000000000000E+000	-2,3665778E-002	41	8,7067368E-005
2	1	0	1	1	1,725533709986941E+005	2,2111404E+000	2,2105544E+000	3,656607614152085E-002	2,000000000000000E+000	-2,2393556E-002	41	8,0831298E-005
2	1	0	1	1	1,725866906039049E+005	2,2311320E+000	2,2305748E+000	3,368046224158566E-002	2,000000000000000E+000	-2,1222448E-002	41	7,5126794E-005
2	1	0	1	1	1,726200104091205E+005	2,2511241E+000	2,2505441E+000	3,113887200748799E-002	2,000000000000000E+000	-2,0141246E-002	41	7,0079404E-005
2	1	0	1	1	1,726533306143321E+005	2,2711160E+000	2,2705562E+000	2,888325139304221E-002	2,000000000000000E+000	-1,9140108E-002	41	6,5581044E-005
2	1	0	1	1	1,726866502195466E+005	2,2911074E+000	2,2905033E+000	2,685613115195323E-002	2,000000000000000E+000	-1,8210286E-002	41	6,1514053E-005
2	1	0	1	1	1,727199700247590E+005	2,3110993E+000	2,3105178E+000	2,510320674499877E-002	2,000000000000000E+000	-1,7343216E-002	41	5,8001406E-005
2	1	0	1	1	1,727532898299727E+005	2,3310914E+000	2,3305035E+000	2,355920224069519E-002	2,000000000000000E+000	-1,6531060E-002	41	5,4904802E-005
2	1	0	1	1	1,727866096351857E+005	2,3510833E+000	2,3505235E+000	2,226082684745700E-002	2,000000000000000E+000	-1,5766449E-002	41	5,2324594E-005
2	1	0	1	1	1,728199294403987E+005	2,3710752E+000	2,3705292E+000	2,111713473453480E-002	2,000000000000000E+000	-1,5042463E-002	41	5,0058785E-005
2	1	0	1	1	1,728532495456122E+005	2,3910668E+000	2,3905213E+000	2,013797859023599E-002	2,000000000000000E+000	-1,4353834E-002	41	4,8140268E-005
2	1	0	1	1	1,728865693508256E+005	2,4110587E+000	2,4105206E+000	1,931089504170802E-002	2,000000000000000E+000	-1,3694746E-002	41	4,6549310E-005
2	1	0	1	1	1,729198889560389E+005	2,4310505E+000	2,4305081E+000	1,863967025487781E-002	2,000000000000000E+000	-1,3060848E-002	41	4,5303870E-005
2	1	0	1	1	1,729532087612515E+005	2,4510424E+000	2,4504890E+000	1,807146756600347E-002	2,000000000000000E+000	-1,2447666E-002	41	4,4283934E-005
2	1	0	1	1	1,729865285664659E+005	2,4710343E+000	2,4704754E+000	1,757978059526485E-002	2,000000000000000E+000	-1,1851866E-002	41	4,3430417E-005
2	1	0	1	1	1,730198483716776E+005	2,4910262E+000	2,4904263E+000	1,719779557757128E-002	2,000000000000000E+000	-1,1270436E-002	41	4,2829841E-005
2	1	0	1	1	1,730531682768930E+005	2,5110178E+000	2,5104501E+000	1,685454125683319E-002	2,000000000000000E+000	-1,0701060E-002	41	4,2312484E-005
2	1	0	1	1	1,730864880821039E+005	2,5310097E+000	2,5304368E+000	1,650947020026150E-002	2,000000000000000E+000	-1,0143341E-002	41	4,1776169E-005
2	1	0	1	1	1,731198078873199E+005	2,5510013E+000	2,5504513E+000	1,614908648786623E-002	2,000000000000000E+000	-9,5969364E-003	41	4,1187457E-005
2	1	0	1	1	1,731531276925311E+005	2,5709934E+000	2,5704582E+000	1,580029405820610E-002	2,000000000000000E+000	-9,0623703E-003	41	4,0613995E-005
2	1	0	1	1	1,731864474977460E+005	2,5909855E+000	2,5904288E+000	1,547750118646479E-002	2,000000000000000E+000	-8,5390443E-003	41	4,0093364E-005
2	1	0	1	1	1,732197673029581E+005	2,6109769E+000	2,6103976E+000	1,519954385777133E-002	2,000000000000000E+000	-8,0254981E-003	41	3,9676852E-005
2	1	0	1	1	1,732530873081721E+005	2,6309688E+000	2,6304362E+000	1,502393002536724E-002	2,000000000000000E+000	-7,5196377E-003	41	3,9519487E-005
2	1	0	1	1	1,732864071133847E+005	2,6509609E+000	2,6504128E+000	1,490681888223941E-002	2,000000000000000E+000	-7,0192302E-003	41	3,9509225E-005
2	1	0	1	1	1,733197269185982E+005	2,6709526E+000	2,6704087E+000	1,481627152896495E-002	2,000000000000000E+000	-6,5219626E-003	41	3,9565501E-005
2	1	0	1	1	1,733530465238114E+005	2,6909447E+000	2,6904187E+000	1,483261716807319E-002	2,000000000000000E+000	-6,0259593E-003	41	3,9905950E-005
2	1	0	1	0	1,733840353286583E+005	2,7095368E+000	2,7089925E+000	1,488851361895725E-002	2,000000000000000E+000	-5,5636209E-003	41	4,0332870E-005
2	1	0	1	0	1,734173551338748E+005	2,7295287E+000	2,7289953E+000	1,504718657019732E-002	2,000000000000000E+000	-5,0627468E-003	41	4,1063700E-005
2	1	0	0	0	1,734376047370429E+005	2,7417748E+000	2,7412262E+000	1,546717953318966E-002	2,000000000000000E+000	-4,7550285E-003	41	4,2399039E-005