File: Dati/201104_LTO-CNT/CV_LTO_Al_grafite_01_1mVs_04_CV_C03.mpt
EC-Lab ASCII FILE
Nb header lines : 57

Cyclic Voltammetry

Run on channel : 3 (SN 6807)
User :
Electrode connection : standard
Ewe ctrl range : min = 0,00 V, max = 5,00 V
Ewe,I filtering : 50 kHz
Safety Limits :
	Do not start on E overload
Channel : Grounded
Acquisition started on : 11/04/2020 18:19:46
Saved on :
	File : CV_LTO_Al_grafite_01_1mVs_04_CV_C03.mpr
	Directory : C:\Users\labsuperfici\Desktop\Biologic\Users\Prisca Viviani\201104\
	Host : 10.78.33.0
Device : VSP-300 (SN 0638)
Address : USB
EC-Lab for windows v11.31 (software)
Internet server v11.30 (firmware)
Command interpretor v11.31 (firmware)
Electrode material :
Initial state :
Electrolyte :
Comments :
Cable : standard
Reference electrode : SCE Saturated Calomel Electrode (0,241 V)
Electrode surface area : 0,001 cm²
Characteristic mass : 0,001 g
Equivalent Weight : 0,000 g/eq.
Density : 0,000 g/cm3
Cycle Definition : Charge/Discharge alternance
Ei (V)              0,000
vs.                 Eoc
dE/dt               0,300
dE/dt unit          mV/s
E1 (V)              1,000
vs.                 Ref
Step percent        50
N                   10
E range min (V)     0,000
E range max (V)     5,000
I Range             Auto
I Range min         Unset
I Range max         Unset
I Range init        Unset
Bandwidth           8
E2 (V)              2,700
vs.                 Ref
nc cycles           1
Reverse Scan        1
Ef (V)              0,000
vs.                 Eoc

mode	ox/red	error	control changes	counter inc.	time/s	control/V	Ewe/V	<I>/mA	cycle number	(Q-Qo)/C	I Range	P/W
2	1	0	0	0	1,080434093556392E+005	2,7417748E+000	2,7411003E+000	6,880420260131359E-003	1,000000000000000E+000	0,0000000E+000	42	1,8859922E-005
2	1	0	1	0	1,081085497402151E+005	2,7222319E+000	2,7216594E+000	2,741063849291916E-003	1,000000000000000E+000	2,4100189E-004	42	7,4602422E-006
2	1	0	1	0	1,081751889244779E+005	2,7022400E+000	2,7016914E+000	1,573067345303082E-003	1,000000000000000E+000	3,7736219E-004	42	4,2499423E-006
2	1	0	1	0	1,082418283087288E+005	2,6822481E+000	2,6816647E+000	8,039261405067893E-004	1,000000000000000E+000	4,5077494E-004	42	2,1558603E-006
2	1	0	1	0	1,083084676929392E+005	2,6622560E+000	2,6616490E+000	2,427066594173658E-004	1,000000000000000E+000	4,8062301E-004	43	6,4599993E-007
2	0	0	1	0	1,083754401770886E+005	2,6421647E+000	2,6416421E+000	-1,741818839957216E-004	1,000000000000000E+000	4,7878109E-004	43	-4,6012619E-007
2	0	0	1	0	1,084420795613511E+005	2,6221724E+000	2,6217041E+000	-5,027296642822442E-004	1,000000000000000E+000	4,5214649E-004	43	-1,3180085E-006
2	0	0	1	0	1,085087189455936E+005	2,6021807E+000	2,6017256E+000	-7,569205244059539E-004	1,000000000000000E+000	4,0633397E-004	43	-1,9692995E-006
2	0	0	1	0	1,085753581298047E+005	2,5821888E+000	2,5816667E+000	-9,726995834452717E-004	1,000000000000000E+000	3,4409837E-004	42	-2,5111860E-006
2	0	0	1	0	1,086419975140409E+005	2,5621972E+000	2,5616646E+000	-1,181402741268510E-003	1,000000000000000E+000	2,6878348E-004	42	-3,0263575E-006
2	0	0	1	0	1,087086368983034E+005	2,5422053E+000	2,5416927E+000	-1,335645702076603E-003	1,000000000000000E+000	1,8118585E-004	42	-3,3948011E-006
2	0	0	1	0	1,087752763825366E+005	2,5222135E+000	2,5216868E+000	-1,494137511345285E-003	1,000000000000000E+000	8,2305458E-005	42	-3,7677469E-006
2	0	0	1	0	1,088419157667483E+005	2,5022216E+000	2,5017068E+000	-1,659850686652602E-003	1,000000000000000E+000	-2,7200162E-005	42	-4,1524600E-006
2	0	0	1	0	1,089085551509939E+005	2,4822297E+000	2,4816954E+000	-1,809509416294122E-003	1,000000000000000E+000	-1,4705499E-004	42	-4,4906510E-006
2	0	0	1	0	1,089751943352564E+005	2,4622378E+000	2,4617107E+000	-1,944861677779790E-003	1,000000000000000E+000	-2,7633924E-004	42	-4,7876870E-006
2	0	0	1	0	1,090418337194806E+005	2,4422460E+000	2,4416919E+000	-2,070559929140365E-003	1,000000000000000E+000	-4,1439780E-004	42	-5,0556691E-006
2	0	0	1	0	1,091084730036911E+005	2,4222543E+000	2,4217453E+000	-2,193697928360779E-003	1,000000000000000E+000	-5,6027353E-004	42	-5,3125777E-006
2	0	0	1	0	1,091751121879458E+005	2,4022624E+000	2,4017413E+000	-2,310646304802502E-003	1,000000000000000E+000	-7,1443146E-004	42	-5,5495748E-006
2	0	0	1	0	1,092417515722087E+005	2,3822708E+000	2,3817606E+000	-2,441972325549803E-003	1,000000000000000E+000	-8,7659596E-004	42	-5,8161936E-006
2	0	0	1	0	1,093083909564256E+005	2,3622787E+000	2,3617573E+000	-2,551916260806203E-003	1,000000000000000E+000	-1,0469869E-003	42	-6,0270067E-006
2	0	0	1	0	1,093750305406381E+005	2,3422868E+000	2,3417838E+000	-2,688889239076932E-003	1,000000000000000E+000	-1,2257238E-003	42	-6,2967970E-006
2	0	0	1	0	1,094416698248968E+005	2,3222952E+000	2,3217471E+000	-2,810820181444573E-003	1,000000000000000E+000	-1,4130535E-003	42	-6,5260133E-006
2	0	0	1	0	1,095083092091559E+005	2,3023033E+000	2,3018165E+000	-2,939716836926308E-003	1,000000000000000E+000	-1,6091109E-003	42	-6,7666888E-006
2	0	0	1	0	1,095749487933693E+005	2,2823112E+000	2,2817893E+000	-3,109949905389618E-003	1,000000000000000E+000	-1,8149380E-003	42	-7,0962506E-006
2	0	0	1	0	1,096415877775896E+005	2,2623193E+000	2,2618251E+000	-3,278809450295433E-003	1,000000000000000E+000	-2,0314639E-003	42	-7,4160935E-006
2	0	0	1	0	1,097082271618508E+005	2,2423275E+000	2,2417924E+000	-3,453380112293389E-003	1,000000000000000E+000	-2,2599129E-003	42	-7,7417617E-006
2	0	0	1	0	1,097748667461004E+005	2,2223356E+000	2,2218394E+000	-3,658231356344521E-003	1,000000000000000E+000	-2,5011266E-003	42	-8,1280023E-006
2	0	0	1	0	1,098415058303119E+005	2,2023439E+000	2,2018089E+000	-3,903828000625345E-003	1,000000000000000E+000	-2,7569928E-003	42	-8,5954835E-006
2	0	0	1	0	1,099081450145412E+005	2,1823518E+000	2,1818559E+000	-4,151069910010713E-003	1,000000000000000E+000	-3,0289120E-003	42	-9,0570366E-006
2	0	0	1	0	1,099747845988041E+005	2,1623604E+000	2,1618390E+000	-4,421397934511941E-003	1,000000000000000E+000	-3,3186381E-003	42	-9,5583509E-006
2	0	0	1	0	1,100414241830448E+005	2,1423683E+000	2,1418490E+000	-4,727762803191524E-003	1,000000000000000E+000	-3,6280353E-003	42	-1,0126154E-005
2	0	0	1	0	1,101080633672556E+005	2,1223762E+000	2,1218598E+000	-5,070709732847060E-003	1,000000000000000E+000	-3,9591938E-003	42	-1,0759335E-005
2	0	0	1	0	1,101747029514925E+005	2,1023846E+000	2,1018739E+000	-5,471434211172521E-003	1,000000000000000E+000	-4,3145306E-003	42	-1,1500265E-005
2	0	0	1	0	1,102413424357553E+005	2,0823927E+000	2,0819144E+000	-5,877525093501655E-003	1,000000000000000E+000	-4,6961573E-003	42	-1,2236505E-005
2	0	0	1	0	1,103079816199888E+005	2,0624011E+000	2,0619037E+000	-6,335458420678203E-003	1,000000000000000E+000	-5,1071444E-003	42	-1,3063105E-005
2	0	0	1	0	1,103746208042004E+005	2,0424089E+000	2,0419271E+000	-6,832526175368593E-003	1,000000000000000E+000	-5,5498928E-003	42	-1,3951520E-005
2	0	0	1	0	1,104412603884453E+005	2,0224171E+000	2,0219238E+000	-7,372288374938751E-003	1,000000000000000E+000	-6,0274708E-003	42	-1,4906205E-005
2	0	0	1	0	1,105078994727079E+005	2,0024254E+000	2,0019479E+000	-7,977712202779486E-003	1,000000000000000E+000	-6,5425769E-003	42	-1,5970963E-005
2	0	0	1	0	1,105745390569322E+005	1,9824338E+000	1,9819527E+000	-8,617953155036800E-003	1,000000000000000E+000	-7,0992247E-003	42	-1,7080376E-005
2	0	0	1	0	1,106411784411434E+005	1,9624418E+000	1,9619689E+000	-9,307868494318750E-003	1,000000000000000E+000	-7,7004717E-003	42	-1,8261748E-005
2	0	0	1	0	1,107078180253976E+005	1,9424500E+000	1,9418645E+000	-1,011287810243401E-002	1,000000000000000E+000	-8,3504831E-003	41	-1,9637839E-005
2	0	0	1	0	1,107744576096593E+005	1,9224581E+000	1,9218849E+000	-1,086874282591768E-002	1,000000000000000E+000	-9,0529183E-003	41	-2,0888472E-005
2	0	0	1	0	1,108410969938757E+005	1,9024663E+000	1,9018935E+000	-1,169536137167962E-002	1,000000000000000E+000	-9,8093683E-003	41	-2,2243332E-005
2	0	0	1	0	1,109077364780901E+005	1,8824744E+000	1,8819360E+000	-1,260137404311107E-002	1,000000000000000E+000	-1,0623275E-002	41	-2,3714980E-005
2	0	0	1	0	1,109743758623507E+005	1,8624827E+000	1,8618990E+000	-1,352247008449994E-002	1,000000000000000E+000	-1,1497805E-002	41	-2,5177475E-005
2	0	0	1	0	1,110410154466083E+005	1,8424907E+000	1,8419108E+000	-1,451305371260249E-002	1,000000000000000E+000	-1,2435289E-002	41	-2,6731750E-005
2	0	0	1	0	1,111076550308194E+005	1,8224989E+000	1,8219332E+000	-1,551765821268086E-002	1,000000000000000E+000	-1,3439624E-002	41	-2,8272136E-005
2	0	0	1	0	1,111742944150390E+005	1,8025070E+000	1,8019485E+000	-1,663512159974975E-002	1,000000000000000E+000	-1,4515936E-002	41	-2,9975634E-005
2	0	0	1	0	1,112409338993023E+005	1,7825153E+000	1,7819301E+000	-1,779316219297933E-002	1,000000000000000E+000	-1,5667967E-002	41	-3,1706171E-005
2	0	0	1	0	1,113075732835531E+005	1,7625234E+000	1,7619663E+000	-1,904667200932411E-002	1,000000000000000E+000	-1,6899902E-002	41	-3,3559594E-005
2	0	0	1	0	1,113742128677645E+005	1,7425314E+000	1,7419569E+000	-2,039371425165374E-002	1,000000000000000E+000	-1,8216757E-002	41	-3,5524972E-005
2	0	0	1	0	1,114408524519923E+005	1,7225395E+000	1,7220130E+000	-2,179549743371700E-002	1,000000000000000E+000	-1,9625641E-002	41	-3,7532129E-005
2	0	0	1	0	1,115074918362535E+005	1,7025478E+000	1,7019963E+000	-2,336747185705894E-002	1,000000000000000E+000	-2,1134477E-002	41	-3,9771352E-005
2	0	0	1	0	1,115741312204951E+005	1,6825562E+000	1,6820250E+000	-2,516741478319695E-002	1,000000000000000E+000	-2,2754757E-002	41	-4,2332220E-005
2	0	0	1	0	1,116407709047070E+005	1,6625643E+000	1,6620097E+000	-2,722747456821933E-002	1,000000000000000E+000	-2,4504572E-002	41	-4,5252327E-005
2	0	0	1	0	1,117074102889453E+005	1,6425724E+000	1,6420320E+000	-2,979011651651766E-002	1,000000000000000E+000	-2,6407601E-002	41	-4,8916325E-005
2	0	0	1	0	1,117740498732070E+005	1,6225804E+000	1,6220404E+000	-3,303120759394240E-002	1,000000000000000E+000	-2,8500609E-002	41	-5,3577955E-005
2	0	0	1	0	1,118406894574389E+005	1,6025885E+000	1,6020505E+000	-3,717797571011666E-002	1,000000000000000E+000	-3,0838402E-002	41	-5,9560996E-005
2	0	0	1	0	1,119073287416503E+005	1,5825967E+000	1,5820559E+000	-4,262516272088415E-002	1,000000000000000E+000	-3,3495165E-002	41	-6,7435394E-005
2	0	0	1	0	1,119739683258973E+005	1,5626050E+000	1,5620891E+000	-4,986859160163248E-002	1,000000000000000E+000	-3,6569260E-002	41	-7,7899182E-005
2	0	0	1	0	1,120406077101597E+005	1,5426130E+000	1,5420943E+000	-6,059670683831353E-002	1,000000000000000E+000	-4,0229052E-002	41	-9,3445837E-005
2	0	0	1	0	1,121072472943822E+005	1,5226212E+000	1,5221351E+000	-7,685485607604858E-002	1,000000000000000E+000	-4,4786710E-002	41	-1,1698348E-004
2	0	0	1	0	1,121738868785931E+005	1,5026293E+000	1,5021546E+000	-9,519406279953813E-002	1,000000000000000E+000	-5,0531168E-002	41	-1,4299620E-004
2	0	0	1	0	1,122405262628491E+005	1,4826375E+000	1,4820658E+000	-1,105577843400247E-001	1,000000000000000E+000	-5,7421740E-002	40	-1,6385391E-004
2	0	0	1	0	1,123071655471112E+005	1,4626458E+000	1,4620619E+000	-1,196806837853051E-001	1,000000000000000E+000	-6,5137468E-002	40	-1,7498057E-004
2	0	0	1	0	1,123738051313271E+005	1,4426539E+000	1,4420712E+000	-1,213525266081832E-001	1,000000000000000E+000	-7,3216371E-002	40	-1,7499899E-004
2	0	0	1	0	1,124404447155410E+005	1,4226621E+000	1,4220670E+000	-1,162148939613933E-001	1,000000000000000E+000	-8,1167974E-002	40	-1,6526537E-004
2	0	0	1	0	1,125070840998007E+005	1,4026701E+000	1,4020811E+000	-1,072748075175866E-001	1,000000000000000E+000	-8,8628083E-002	40	-1,5040798E-004
2	0	0	1	0	1,125737235840585E+005	1,3826782E+000	1,3820556E+000	-9,799984176887133E-002	1,000000000000000E+000	-9,5467113E-002	40	-1,3544124E-004
2	0	0	1	0	1,126403629682707E+005	1,3626865E+000	1,3620951E+000	-8,987804022569335E-002	1,000000000000000E+000	-1,0172277E-001	40	-1,2242244E-004
2	0	0	1	0	1,127070025524925E+005	1,3426946E+000	1,3421260E+000	-8,294826859908633E-002	1,000000000000000E+000	-1,0747869E-001	40	-1,1132703E-004
2	0	0	1	0	1,127736421367546E+005	1,3227028E+000	1,3221064E+000	-7,707514800480419E-002	1,000000000000000E+000	-1,1280892E-001	40	-1,0190154E-004
2	0	0	1	0	1,128402815210028E+005	1,3027109E+000	1,3021224E+000	-7,191411338658105E-002	1,000000000000000E+000	-1,1777333E-001	40	-9,3640978E-005
2	0	0	1	0	1,129069211052132E+005	1,2827191E+000	1,2821058E+000	-6,751728926108846E-002	1,000000000000000E+000	-1,2242009E-001	40	-8,6564309E-005
2	0	0	1	0	1,129735603894431E+005	1,2627273E+000	1,2621443E+000	-6,363967918839941E-002	1,000000000000000E+000	-1,2679093E-001	40	-8,0322461E-005
2	0	0	1	0	1,130401999737064E+005	1,2427354E+000	1,2421176E+000	-6,031934398599792E-002	1,000000000000000E+000	-1,3092417E-001	40	-7,4923722E-005
2	0	0	1	0	1,131068395579467E+005	1,2227436E+000	1,2221367E+000	-5,747152352634566E-002	1,000000000000000E+000	-1,3485156E-001	40	-7,0238057E-005
2	0	0	1	0	1,131734789421577E+005	1,2027516E+000	1,2021292E+000	-5,506297694946805E-002	1,000000000000000E+000	-1,3860348E-001	40	-6,6192813E-005
2	0	0	1	0	1,132401183263954E+005	1,1827600E+000	1,1821779E+000	-5,304071119333109E-002	1,000000000000000E+000	-1,4220867E-001	40	-6,2703555E-005
2	0	0	1	0	1,133067578106585E+005	1,1627681E+000	1,1621521E+000	-5,141747924761497E-002	1,000000000000000E+000	-1,4569284E-001	40	-5,9754930E-005
2	0	0	1	0	1,133733973948905E+005	1,1427761E+000	1,1421614E+000	-5,016192612287940E-002	1,000000000000000E+000	-1,4907975E-001	40	-5,7293015E-005
2	0	0	1	0	1,134400367791015E+005	1,1227843E+000	1,1221604E+000	-4,923504352442487E-002	1,000000000000000E+000	-1,5239340E-001	40	-5,5249617E-005
2	0	0	1	0	1,135066763633480E+005	1,1027924E+000	1,1021608E+000	-4,864126676458680E-002	1,000000000000000E+000	-1,5565625E-001	40	-5,3610496E-005
2	0	0	1	0	1,135734824475710E+005	1,0827508E+000	1,0821815E+000	-4,826672635345131E-002	1,000000000000000E+000	-1,5890011E-001	40	-5,2233358E-005
2	0	0	1	0	1,136402884317533E+005	1,0627089E+000	1,0621433E+000	-4,840476052815054E-002	1,000000000000000E+000	-1,6213302E-001	41	-5,1412793E-005
2	0	0	1	0	1,137069278159644E+005	1,0427171E+000	1,0421461E+000	-4,880289135040206E-002	1,000000000000000E+000	-1,6537493E-001	41	-5,0859740E-005
2	0	0	1	0	1,137735674002222E+005	1,0227252E+000	1,0221649E+000	-4,955078689493253E-002	1,000000000000000E+000	-1,6865543E-001	41	-5,0649076E-005
2	0	0	1	0	1,138402069844836E+005	1,0027333E+000	1,0021819E+000	-5,059793827428427E-002	1,000000000000000E+000	-1,7199558E-001	41	-5,0708339E-005
2	0	0	1	0	1,139011828700483E+005	1,0155281E+000	1,0149388E+000	-2,797671279731323E-002	1,000000000000000E+000	-1,7436311E-001	41	-2,8394652E-005
2	0	0	1	0	1,139678224542602E+005	1,0355200E+000	1,0349178E+000	-1,618234302333854E-002	1,000000000000000E+000	-1,7578784E-001	41	-1,6747395E-005
2	0	0	1	0	1,140344618385044E+005	1,0555117E+000	1,0549139E+000	-9,285772471680331E-003	1,000000000000000E+000	-1,7661449E-001	41	-9,7956899E-006
2	0	0	1	0	1,141011018227660E+005	1,0755036E+000	1,0749445E+000	-4,588482078830530E-003	1,000000000000000E+000	-1,7706345E-001	42	-4,9323635E-006
2	0	0	1	0	1,141677412069909E+005	1,0954955E+000	1,0949050E+000	-1,299477968351035E-003	1,000000000000000E+000	-1,7724997E-001	42	-1,4228050E-006
2	1	0	1	0	1,142343806912026E+005	1,1154872E+000	1,1148747E+000	1,227389407567774E-003	1,000000000000000E+000	-1,7724577E-001	42	1,3683854E-006
2	1	0	1	0	1,143010206754569E+005	1,1354792E+000	1,1348355E+000	3,146750025463843E-003	1,000000000000000E+000	-1,7709307E-001	42	3,5710436E-006
2	1	0	1	0	1,143676600597189E+005	1,1554711E+000	1,1548188E+000	4,758738422535260E-003	1,000000000000000E+000	-1,7682332E-001	42	5,4954803E-006
2	1	0	1	0	1,144342996439347E+005	1,1754630E+000	1,1748220E+000	6,080144340887023E-003	1,000000000000000E+000	-1,7645685E-001	42	7,1430873E-006
2	1	0	1	0	1,145009393281484E+005	1,1954547E+000	1,1947986E+000	7,183955408810921E-003	1,000000000000000E+000	-1,7601022E-001	42	8,5833799E-006
2	1	0	1	0	1,145675789124084E+005	1,2154465E+000	1,2147827E+000	8,142796162132135E-003	1,000000000000000E+000	-1,7549434E-001	42	9,8917280E-006
2	1	0	1	0	1,146342184966672E+005	1,2354385E+000	1,2347456E+000	9,008944801346785E-003	1,000000000000000E+000	-1,7491758E-001	42	1,1123755E-005
2	1	0	1	0	1,147008582808785E+005	1,2554302E+000	1,2547462E+000	9,778169677615023E-003	1,000000000000000E+000	-1,7428619E-001	42	1,2269121E-005
2	1	0	1	0	1,147674976650970E+005	1,2754221E+000	1,2748144E+000	1,054621164398298E-002	1,000000000000000E+000	-1,7360345E-001	41	1,3444462E-005
2	1	0	1	0	1,148341372493601E+005	1,2954140E+000	1,2947968E+000	1,121176554025607E-002	1,000000000000000E+000	-1,7287475E-001	41	1,4516959E-005
2	1	0	1	0	1,149007771336115E+005	1,3154057E+000	1,3147663E+000	1,185158560842682E-002	1,000000000000000E+000	-1,7210229E-001	41	1,5582065E-005
2	1	0	1	0	1,149674165178232E+005	1,3353977E+000	1,3347541E+000	1,247038566113554E-002	1,000000000000000E+000	-1,7128700E-001	41	1,6644899E-005
2	1	0	1	0	1,150340561020504E+005	1,3553896E+000	1,3547474E+000	1,312791385563349E-002	1,000000000000000E+000	-1,7042986E-001	41	1,7785007E-005
2	1	0	1	0	1,151006958863121E+005	1,3753814E+000	1,3747572E+000	1,374451816333822E-002	1,000000000000000E+000	-1,6953029E-001	41	1,8895375E-005
2	1	0	1	0	1,151673353705537E+005	1,3953732E+000	1,3947407E+000	1,439493268199618E-002	1,000000000000000E+000	-1,6858812E-001	41	2,0077199E-005
2	1	0	1	0	1,152339749547653E+005	1,4153651E+000	1,4147420E+000	1,506060520702646E-002	1,000000000000000E+000	-1,6760217E-001	41	2,1306871E-005
2	1	0	1	0	1,153006147390024E+005	1,4353567E+000	1,4347278E+000	1,578412225524113E-002	1,000000000000000E+000	-1,6657017E-001	41	2,2645920E-005
2	1	0	1	0	1,153672541232652E+005	1,4553486E+000	1,4547178E+000	1,655256016285062E-002	1,000000000000000E+000	-1,6548799E-001	41	2,4079303E-005
2	1	0	1	0	1,154338937074980E+005	1,4753405E+000	1,4746879E+000	1,737297473958710E-002	1,000000000000000E+000	-1,6435356E-001	41	2,5619716E-005
2	1	0	1	0	1,155005336917087E+005	1,4953324E+000	1,4946996E+000	1,826376492530926E-002	1,000000000000000E+000	-1,6316240E-001	41	2,7298842E-005
2	1	0	1	0	1,155671731759552E+005	1,5153241E+000	1,5146719E+000	1,921951994857790E-002	1,000000000000000E+000	-1,6190998E-001	41	2,9111266E-005
2	1	0	1	0	1,156338125602175E+005	1,5353160E+000	1,5346737E+000	2,047772744262377E-002	1,000000000000000E+000	-1,6058537E-001	41	3,1426629E-005
2	1	0	1	0	1,157004523444418E+005	1,5553079E+000	1,5546529E+000	2,252153576711180E-002	1,000000000000000E+000	-1,5915342E-001	41	3,5013170E-005
2	1	0	1	0	1,157670919286523E+005	1,5752997E+000	1,5746603E+000	2,637906471472445E-002	1,000000000000000E+000	-1,5754060E-001	41	4,1538067E-005
2	1	0	1	0	1,158337315129063E+005	1,5952917E+000	1,5946288E+000	4,258577329320956E-002	1,000000000000000E+000	-1,5533884E-001	41	6,7908499E-005
2	1	0	1	0	1,159003711971689E+005	1,6152834E+000	1,6145883E+000	6,869042569531836E-002	1,000000000000000E+000	-1,5163250E-001	41	1,1090675E-004
2	1	0	1	0	1,159670107813855E+005	1,6352752E+000	1,6345845E+000	9,304384225717327E-002	1,000000000000000E+000	-1,4621335E-001	41	1,5208803E-004
2	1	0	1	0	1,160336501656000E+005	1,6552670E+000	1,6546597E+000	1,121789762417125E-001	1,000000000000000E+000	-1,3933581E-001	40	1,8561803E-004
2	1	0	1	0	1,161002901498592E+005	1,6752590E+000	1,6746230E+000	1,251653701055542E-001	1,000000000000000E+000	-1,3138470E-001	40	2,0960481E-004
2	1	0	1	0	1,161669297341159E+005	1,6952507E+000	1,6946452E+000	1,316575378790354E-001	1,000000000000000E+000	-1,2278426E-001	40	2,2311282E-004
2	1	0	1	0	1,162335692183279E+005	1,7152425E+000	1,7146262E+000	1,312364929859221E-001	1,000000000000000E+000	-1,1398364E-001	40	2,2502153E-004
2	1	0	1	0	1,163002092025488E+005	1,7352344E+000	1,7346102E+000	1,250485001852117E-001	1,000000000000000E+000	-1,0541324E-001	40	2,1691040E-004
2	1	0	1	0	1,163668485868117E+005	1,7552265E+000	1,7546072E+000	1,155074132178850E-001	1,000000000000000E+000	-9,7383976E-002	40	2,0267014E-004
2	1	0	1	0	1,164334879710609E+005	1,7752181E+000	1,7745918E+000	1,054329378788572E-001	1,000000000000000E+000	-9,0019681E-002	40	1,8710042E-004
2	1	0	1	0	1,165001278552713E+005	1,7952101E+000	1,7946118E+000	9,592814570755637E-002	1,000000000000000E+000	-8,3309874E-002	40	1,7215378E-004
2	1	0	1	0	1,165667674395008E+005	1,8152020E+000	1,8146161E+000	8,709730687567596E-002	1,000000000000000E+000	-7,7210963E-002	40	1,5804818E-004
2	1	0	1	0	1,166334068237636E+005	1,8351936E+000	1,8346063E+000	7,889055966855052E-002	1,000000000000000E+000	-7,1679287E-002	40	1,4473312E-004
2	1	0	1	0	1,167000468080051E+005	1,8551855E+000	1,8545642E+000	7,101686375923105E-002	1,000000000000000E+000	-6,6683635E-002	40	1,3170534E-004
2	1	0	1	0	1,167666861922151E+005	1,8751774E+000	1,8746108E+000	6,383519480395683E-002	1,000000000000000E+000	-6,2189680E-002	40	1,1966615E-004
2	1	0	1	0	1,168333257764517E+005	1,8951691E+000	1,8945743E+000	5,725348080519460E-002	1,000000000000000E+000	-5,8154982E-002	40	1,0847097E-004
2	1	0	1	0	1,168999656607150E+005	1,9151610E+000	1,9145640E+000	5,143457817939256E-002	1,000000000000000E+000	-5,4534193E-002	40	9,8474789E-005
2	1	0	1	0	1,169666050449489E+005	1,9351530E+000	1,9345256E+000	4,646185553446380E-002	1,000000000000000E+000	-5,1277284E-002	41	8,9881651E-005
2	1	0	1	0	1,170332446291605E+005	1,9551449E+000	1,9545075E+000	4,187315744100617E-002	1,000000000000000E+000	-4,8332900E-002	41	8,1841397E-005
2	1	0	1	0	1,170998844134056E+005	1,9751368E+000	1,9744974E+000	3,791585451832413E-002	1,000000000000000E+000	-4,5673367E-002	41	7,4864758E-005
2	1	0	1	0	1,171665238976673E+005	1,9951286E+000	1,9945318E+000	3,437067508650210E-002	1,000000000000000E+000	-4,3264214E-002	41	6,8553403E-005
2	1	0	1	0	1,172331636818912E+005	2,0151200E+000	2,0145023E+000	3,123429203125935E-002	1,000000000000000E+000	-4,1075636E-002	41	6,2921550E-005
2	1	0	1	0	1,172998040661028E+005	2,0351121E+000	2,0345292E+000	2,852436221982357E-002	1,000000000000000E+000	-3,9082184E-002	41	5,8033649E-005
2	1	0	1	0	1,173664432503579E+005	2,0551038E+000	2,0544851E+000	2,605367559219157E-002	1,000000000000000E+000	-3,7261717E-002	41	5,3526888E-005
2	1	0	1	0	1,174330828346186E+005	2,0750957E+000	2,0744939E+000	2,388464439118745E-002	1,000000000000000E+000	-3,5594977E-002	41	4,9548547E-005
2	1	0	1	0	1,174997227188342E+005	2,0950875E+000	2,0944853E+000	2,192173633788136E-002	1,000000000000000E+000	-3,4065466E-002	41	4,5914756E-005
2	1	0	1	0	1,175663623030491E+005	2,1150792E+000	2,1144917E+000	2,019604826881716E-002	1,000000000000000E+000	-3,2658447E-002	41	4,2704378E-005
2	1	0	1	0	1,176330014873102E+005	2,1350715E+000	2,1344631E+000	1,865761312448308E-002	1,000000000000000E+000	-3,1360608E-002	41	3,9823986E-005
2	1	0	1	0	1,176996414715676E+005	2,1550634E+000	2,1544836E+000	1,731961609699743E-002	1,000000000000000E+000	-3,0158920E-002	41	3,7314829E-005
2	1	0	1	0	1,177662810557784E+005	2,1750550E+000	2,1744378E+000	1,611030113775128E-002	1,000000000000000E+000	-2,9042115E-002	41	3,5030847E-005
2	1	0	1	0	1,178329205399986E+005	2,1950467E+000	2,1944654E+000	1,509613335593840E-002	1,000000000000000E+000	-2,7999103E-002	41	3,3127941E-005
2	1	0	1	0	1,178995605242613E+005	2,2150388E+000	2,2144361E+000	1,418841959396566E-002	1,000000000000000E+000	-2,7019834E-002	41	3,1419349E-005
2	1	0	1	0	1,179662001085104E+005	2,2350304E+000	2,2344589E+000	1,341234376544820E-002	1,000000000000000E+000	-2,6096547E-002	41	2,9969331E-005
2	1	0	1	0	1,180328392927223E+005	2,2550223E+000	2,2543995E+000	1,270857616247653E-002	1,000000000000000E+000	-2,5222354E-002	41	2,8650209E-005
2	1	0	1	0	1,180994792769519E+005	2,2750144E+000	2,2744195E+000	1,209610587480861E-002	1,000000000000000E+000	-2,4391370E-002	41	2,7511620E-005
2	1	0	1	0	1,181661187612138E+005	2,2950058E+000	2,2943890E+000	1,156544730162506E-002	1,000000000000000E+000	-2,3598839E-002	41	2,6535636E-005
2	1	0	1	0	1,182327583454536E+005	2,3149979E+000	2,3144279E+000	1,111851963239238E-002	1,000000000000000E+000	-2,2839243E-002	41	2,5733012E-005
2	1	0	1	0	1,182993979296647E+005	2,3349898E+000	2,3344176E+000	1,072873551783352E-002	1,000000000000000E+000	-2,2107515E-002	41	2,5045349E-005
2	1	0	1	0	1,183660375139040E+005	2,3549817E+000	2,3543894E+000	1,039635855100192E-002	1,000000000000000E+000	-2,1399491E-002	41	2,4477076E-005
2	1	0	1	0	1,184326770981662E+005	2,3749735E+000	2,3743935E+000	1,013520425730874E-002	1,000000000000000E+000	-2,0711103E-002	41	2,4064962E-005
2	1	0	1	0	1,184993169823978E+005	2,3949654E+000	2,3943737E+000	9,908015055264396E-003	1,000000000000000E+000	-2,0039007E-002	41	2,3723491E-005
2	1	0	1	0	1,185659565666085E+005	2,4149570E+000	2,4143653E+000	9,737800627750259E-003	1,000000000000000E+000	-1,9380165E-002	41	2,3510607E-005
2	1	0	1	0	1,186325961508562E+005	2,4349489E+000	2,4343638E+000	9,597018092386000E-003	1,000000000000000E+000	-1,8731788E-002	41	2,3362634E-005
2	1	0	1	0	1,186992361351192E+005	2,4549408E+000	2,4543550E+000	9,502611110484329E-003	1,000000000000000E+000	-1,8090721E-002	41	2,3322782E-005
2	1	0	1	0	1,187658753193422E+005	2,4749327E+000	2,4743319E+000	9,448419468047281E-003	1,000000000000000E+000	-1,7455162E-002	41	2,3378525E-005
2	1	0	1	0	1,188325148035521E+005	2,4949243E+000	2,4943595E+000	9,375259122985272E-003	1,000000000000000E+000	-1,6824406E-002	41	2,3385266E-005
2	1	0	1	0	1,188991547878067E+005	2,5149164E+000	2,5143628E+000	9,257320573999361E-003	1,000000000000000E+000	-1,6199993E-002	41	2,3276263E-005
2	1	0	1	0	1,189657939720689E+005	2,5349083E+000	2,5343282E+000	9,118591640123616E-003	1,000000000000000E+000	-1,5583375E-002	41	2,3109504E-005
2	1	0	1	0	1,190324335562857E+005	2,5548999E+000	2,5543337E+000	8,997248718438794E-003	1,000000000000000E+000	-1,4975897E-002	41	2,2981976E-005
2	1	0	1	0	1,190990734405005E+005	2,5748920E+000	2,5743287E+000	8,847231321823440E-003	1,000000000000000E+000	-1,4378096E-002	41	2,2775681E-005
2	1	0	1	0	1,191657130247601E+005	2,5948837E+000	2,5943112E+000	8,725543523193038E-003	1,000000000000000E+000	-1,3788864E-002	41	2,2636776E-005
2	1	0	1	0	1,192323526090165E+005	2,6148756E+000	2,6143308E+000	8,675030453845822E-003	1,000000000000000E+000	-1,3205788E-002	41	2,2679398E-005
2	1	0	1	0	1,192989925932282E+005	2,6348674E+000	2,6343117E+000	8,606333953874751E-003	1,000000000000000E+000	-1,2626951E-002	41	2,2671766E-005
2	1	0	1	0	1,193656317774506E+005	2,6548595E+000	2,6543083E+000	8,602933130510186E-003	1,000000000000000E+000	-1,2049173E-002	41	2,2834836E-005
2	1	0	1	0	1,194322713617126E+005	2,6748514E+000	2,6742897E+000	8,646448003477650E-003	1,000000000000000E+000	-1,1470425E-002	41	2,3123106E-005
2	1	0	1	0	1,194989112459596E+005	2,6948428E+000	2,6942954E+000	8,700324289096652E-003	1,000000000000000E+000	-1,0888679E-002	41	2,3441244E-005
2	1	0	1	1	1,195612191312044E+005	2,6864464E+000	2,6858478E+000	4,386306310470472E-003	2,000000000000000E+000	-1,0492347E-002	42	1,1780951E-005
2	1	0	1	1	1,196278587154205E+005	2,6664548E+000	2,6658633E+000	2,631191308449937E-003	2,000000000000000E+000	-1,0267845E-002	42	7,0143965E-006
2	1	0	1	1	1,196944982996810E+005	2,6464627E+000	2,6458919E+000	1,557845401207174E-003	2,000000000000000E+000	-1,0135072E-002	42	4,1218905E-006
2	1	0	1	1	1,197611374839358E+005	2,6264708E+000	2,6259179E+000	7,980710033331315E-004	2,000000000000000E+000	-1,0062517E-002	42	2,0956688E-006
2	1	0	1	1	1,198277766681481E+005	2,6064792E+000	2,6058764E+000	2,395240998562752E-004	2,000000000000000E+000	-1,0033193E-002	43	6,2417018E-007
2	0	0	1	1	1,198950825522151E+005	2,5862870E+000	2,5857463E+000	-2,155493298142688E-004	2,000000000000000E+000	-1,0035984E-002	43	-5,5735586E-007
2	0	0	1	1	1,199617221364772E+005	2,5662954E+000	2,5657921E+000	-5,255760123458993E-004	2,000000000000000E+000	-1,0063971E-002	43	-1,3485188E-006
2	0	0	1	1	1,200283613207216E+005	2,5463035E+000	2,5458498E+000	-8,212661662772864E-004	2,000000000000000E+000	-1,0112409E-002	43	-2,0908203E-006
2	0	0	1	1	1,200950005049329E+005	2,5263119E+000	2,5257390E+000	-1,039672767833231E-003	2,000000000000000E+000	-1,0178741E-002	42	-2,6259420E-006
2	0	0	1	1	1,201616399891677E+005	2,5063198E+000	2,5057797E+000	-1,255952182228023E-003	2,000000000000000E+000	-1,0259638E-002	42	-3,1471395E-006
2	0	0	1	1	1,202282791734303E+005	2,4863281E+000	2,4857550E+000	-1,434570464888582E-003	2,000000000000000E+000	-1,0353757E-002	42	-3,5659907E-006
2	0	0	1	1	1,202949187576654E+005	2,4663363E+000	2,4657652E+000	-1,609918432166756E-003	2,000000000000000E+000	-1,0459451E-002	42	-3,9696811E-006
2	0	0	1	1	1,203615583418757E+005	2,4463441E+000	2,4458323E+000	-1,750986491914769E-003	2,000000000000000E+000	-1,0575528E-002	42	-4,2826191E-006
2	0	0	1	1	1,204281975261196E+005	2,4263523E+000	2,4258327E+000	-1,907385601294189E-003	2,000000000000000E+000	-1,0701624E-002	42	-4,6269984E-006
2	0	0	1	1	1,204948370103826E+005	2,4063606E+000	2,4058392E+000	-2,042022264477680E-003	2,000000000000000E+000	-1,0836903E-002	42	-4,9127771E-006
2	0	0	1	1	1,205614761946101E+005	2,3863688E+000	2,3858538E+000	-2,158527308593717E-003	2,000000000000000E+000	-1,0981197E-002	42	-5,1499305E-006
2	0	0	1	1	1,206281153788201E+005	2,3663769E+000	2,3658388E+000	-2,293718054801486E-003	2,000000000000000E+000	-1,1133851E-002	42	-5,4265670E-006
2	0	0	1	1	1,206947549630709E+005	2,3463850E+000	2,3458595E+000	-2,439296959819925E-003	2,000000000000000E+000	-1,1294949E-002	42	-5,7222478E-006
2	0	0	1	1	1,207613941473346E+005	2,3263934E+000	2,3258300E+000	-2,567270012194228E-003	2,000000000000000E+000	-1,1465398E-002	42	-5,9710337E-006
2	0	0	1	1	1,208280332315541E+005	2,3064015E+000	2,3059101E+000	-2,699780719424522E-003	2,000000000000000E+000	-1,1645125E-002	42	-6,2254517E-006
2	0	0	1	1	1,208946728157670E+005	2,2864096E+000	2,2858710E+000	-2,872533867438796E-003	2,000000000000000E+000	-1,1835123E-002	42	-6,5662421E-006
2	0	0	1	1	1,209613124000242E+005	2,2664177E+000	2,2658889E+000	-3,053854114934432E-003	2,000000000000000E+000	-1,2036151E-002	42	-6,9196944E-006
2	0	0	1	1	1,210279515842823E+005	2,2464259E+000	2,2459071E+000	-3,231677014217836E-003	2,000000000000000E+000	-1,2249079E-002	42	-7,2580460E-006
2	0	0	1	1	1,210945911684961E+005	2,2264340E+000	2,2259123E+000	-3,443116658764622E-003	2,000000000000000E+000	-1,2475185E-002	42	-7,6640754E-006
2	0	0	1	1	1,211612307527147E+005	2,2064421E+000	2,2059321E+000	-3,672623224395169E-003	2,000000000000000E+000	-1,2715812E-002	42	-8,1015578E-006
2	0	0	1	1	1,212278694369779E+005	2,1864502E+000	2,1859326E+000	-3,925282493832191E-003	2,000000000000000E+000	-1,2972887E-002	42	-8,5804031E-006
2	0	0	1	1	1,212945090212297E+005	2,1664584E+000	2,1659343E+000	-4,199681924033277E-003	2,000000000000000E+000	-1,3247938E-002	42	-9,0962349E-006
2	0	0	1	1	1,213611486054401E+005	2,1464663E+000	2,1459343E+000	-4,534597132578901E-003	2,000000000000000E+000	-1,3542897E-002	42	-9,7309476E-006
2	0	0	1	1	1,214277873896664E+005	2,1264751E+000	2,1259487E+000	-4,882637780518680E-003	2,000000000000000E+000	-1,3859617E-002	42	-1,0380238E-005
2	0	0	1	1	1,214944269739294E+005	2,1064830E+000	2,1059804E+000	-5,244596104489976E-003	2,000000000000000E+000	-1,4201007E-002	42	-1,1045016E-005
2	0	0	1	1	1,215610664581740E+005	2,0864913E+000	2,0859756E+000	-5,662410723864864E-003	2,000000000000000E+000	-1,4568932E-002	42	-1,1811650E-005
2	0	0	1	1	1,216277056423852E+005	2,0664990E+000	2,0659933E+000	-6,133815995915184E-003	2,000000000000000E+000	-1,4966078E-002	42	-1,2672423E-005
2	0	0	1	1	1,216943452266195E+005	2,0465074E+000	2,0459805E+000	-6,625151423261019E-003	2,000000000000000E+000	-1,5395173E-002	42	-1,3554930E-005
2	0	0	1	1	1,217609848108817E+005	2,0265155E+000	2,0260329E+000	-7,175086511265701E-003	2,000000000000000E+000	-1,5858889E-002	42	-1,4536961E-005
2	0	0	1	1	1,218276239951168E+005	2,0065236E+000	2,0060544E+000	-7,749482296261656E-003	2,000000000000000E+000	-1,6360220E-002	42	-1,5545884E-005
2	0	0	1	1	1,218942633793280E+005	1,9865320E+000	1,9860231E+000	-8,424474129386877E-003	2,000000000000000E+000	-1,6902739E-002	42	-1,6731199E-005
2	0	0	1	1	1,219609028635719E+005	1,9665402E+000	1,9660609E+000	-9,089307979883235E-003	2,000000000000000E+000	-1,7489672E-002	42	-1,7870132E-005
2	0	0	1	1	1,220275424478343E+005	1,9465482E+000	1,9460551E+000	-9,835255207610930E-003	2,000000000000000E+000	-1,8124154E-002	42	-1,9139949E-005
2	0	0	1	1	1,220941818320600E+005	1,9265565E+000	1,9259828E+000	-1,063820948621164E-002	2,000000000000000E+000	-1,8811567E-002	41	-2,0489009E-005
2	0	0	1	1	1,221608214162715E+005	1,9065647E+000	1,9059786E+000	-1,148282097252952E-002	2,000000000000000E+000	-1,9552752E-002	41	-2,1886011E-005
2	0	0	1	1	1,222274607005245E+005	1,8865727E+000	1,8859936E+000	-1,234306557043494E-002	2,000000000000000E+000	-2,0350773E-002	41	-2,3278943E-005
2	0	0	1	1	1,222941002847870E+005	1,8665810E+000	1,8660269E+000	-1,327072189264704E-002	2,000000000000000E+000	-2,1208741E-002	41	-2,4763523E-005
2	0	0	1	1	1,223607398690037E+005	1,8465891E+000	1,8460197E+000	-1,424810223137205E-002	2,000000000000000E+000	-2,2130189E-002	41	-2,6302278E-005
2	0	0	1	1	1,224273792532163E+005	1,8265971E+000	1,8259954E+000	-1,528526365016264E-002	2,000000000000000E+000	-2,3118645E-002	41	-2,7910823E-005
2	0	0	1	1	1,224940186374763E+005	1,8066053E+000	1,8060249E+000	-1,638080495008698E-002	2,000000000000000E+000	-2,4177974E-002	41	-2,9584142E-005
2	0	0	1	1	1,225606582217356E+005	1,7866137E+000	1,7860236E+000	-1,753683989561056E-002	2,000000000000000E+000	-2,5311453E-002	41	-3,1321211E-005
2	0	0	1	1	1,226272977059488E+005	1,7666216E+000	1,7660706E+000	-1,875421999042845E-002	2,000000000000000E+000	-2,6524367E-002	41	-3,3121276E-005
2	0	0	1	1	1,226939370901657E+005	1,7466300E+000	1,7460531E+000	-2,004965587976152E-002	2,000000000000000E+000	-2,7821431E-002	41	-3,5007764E-005
2	0	0	1	1	1,227605766744274E+005	1,7266382E+000	1,7260617E+000	-2,148005108166828E-002	2,000000000000000E+000	-2,9208928E-002	41	-3,7075893E-005
2	0	0	1	1	1,228272160586799E+005	1,7066461E+000	1,7060715E+000	-2,303296642114749E-002	2,000000000000000E+000	-3,0695410E-002	41	-3,9295886E-005
2	0	0	1	1	1,228938556428917E+005	1,6866543E+000	1,6861032E+000	-2,477152854076857E-002	2,000000000000000E+000	-3,2291431E-002	41	-4,1767355E-005
2	0	0	1	1	1,229604951271198E+005	1,6666625E+000	1,6660556E+000	-2,686287712645474E-002	2,000000000000000E+000	-3,4014400E-002	41	-4,4755045E-005
2	0	0	1	1	1,230271347113813E+005	1,6466706E+000	1,6460979E+000	-2,931816819513039E-002	2,000000000000000E+000	-3,5886731E-002	41	-4,8260576E-005
2	0	0	1	1	1,230937742956235E+005	1,6266787E+000	1,6261002E+000	-3,244700954755714E-002	2,000000000000000E+000	-3,7944101E-002	41	-5,2762087E-005
2	0	0	1	1	1,231604136798349E+005	1,6066869E+000	1,6061323E+000	-3,646187911596821E-002	2,000000000000000E+000	-4,0238202E-002	41	-5,8562600E-005
2	0	0	1	1	1,232270530640711E+005	1,5866952E+000	1,5861267E+000	-4,170969743775499E-002	2,000000000000000E+000	-4,2840134E-002	41	-6,6156863E-005
2	0	0	1	1	1,232936926483340E+005	1,5667033E+000	1,5661560E+000	-4,865468118146410E-002	2,000000000000000E+000	-4,5843776E-002	41	-7,6200820E-005
2	0	0	1	1	1,233603321325672E+005	1,5467114E+000	1,5461618E+000	-5,851524637179034E-002	2,000000000000000E+000	-4,9397442E-002	41	-9,0474037E-005
2	0	0	1	1	1,234269717167781E+005	1,5267196E+000	1,5262268E+000	-7,356464907564442E-002	2,000000000000000E+000	-5,3772483E-002	41	-1,1227634E-004
2	0	0	1	1	1,234936111010230E+005	1,5067278E+000	1,5062388E+000	-9,201134632861707E-002	2,000000000000000E+000	-5,9292451E-002	41	-1,3859106E-004
2	0	0	1	1	1,235602504852859E+005	1,4867358E+000	1,4861532E+000	-1,085854136345610E-001	2,000000000000000E+000	-6,6004552E-002	40	-1,6137457E-004
2	0	0	1	1	1,236268899695116E+005	1,4667441E+000	1,4661452E+000	-1,194809034026565E-001	2,000000000000000E+000	-7,3644102E-002	40	-1,7517635E-004
2	0	0	1	1	1,236935295537220E+005	1,4467521E+000	1,4461555E+000	-1,230753703808358E-001	2,000000000000000E+000	-8,1772447E-002	40	-1,7798613E-004
2	0	0	1	1	1,237601689379748E+005	1,4267603E+000	1,4261794E+000	-1,193250561461379E-001	2,000000000000000E+000	-8,9889862E-002	40	-1,7017894E-004
2	0	0	1	1	1,238268085222375E+005	1,4067684E+000	1,4062017E+000	-1,107412218503525E-001	2,000000000000000E+000	-9,7575597E-002	40	-1,5572450E-004
2	0	0	1	1	1,238934479064550E+005	1,3867766E+000	1,3861632E+000	-1,010017044373297E-001	2,000000000000000E+000	-1,0463335E-001	40	-1,4000485E-004
2	0	0	1	1	1,239600874906691E+005	1,3667849E+000	1,3661917E+000	-9,220178575262072E-002	2,000000000000000E+000	-1,1106815E-001	40	-1,2596532E-004
2	0	0	1	1	1,240267269749280E+005	1,3467931E+000	1,3461597E+000	-8,465221782605248E-002	2,000000000000000E+000	-1,1695851E-001	40	-1,1395540E-004
2	0	0	1	1	1,240933663591854E+005	1,3268012E+000	1,3262168E+000	-7,813721263331586E-002	2,000000000000000E+000	-1,2238245E-001	40	-1,0362689E-004
2	0	0	1	1	1,241600057433974E+005	1,3068094E+000	1,3061975E+000	-7,259665210705069E-002	2,000000000000000E+000	-1,2740485E-001	40	-9,4825569E-005
2	0	0	1	1	1,242266453276172E+005	1,2868174E+000	1,2862220E+000	-6,777246320129696E-002	2,000000000000000E+000	-1,3208210E-001	40	-8,7170432E-005
2	0	0	1	1	1,242932849118807E+005	1,2668256E+000	1,2662169E+000	-6,361199900182864E-002	2,000000000000000E+000	-1,3646138E-001	40	-8,0546590E-005
2	0	0	1	1	1,243599241961318E+005	1,2468337E+000	1,2462320E+000	-5,999089670079638E-002	2,000000000000000E+000	-1,4058198E-001	40	-7,4762575E-005
2	0	0	1	1	1,244265637803425E+005	1,2268418E+000	1,2261944E+000	-5,698120631086659E-002	2,000000000000000E+000	-1,4448123E-001	40	-6,9870031E-005
2	0	0	1	1	1,244932031645692E+005	1,2068502E+000	1,2062337E+000	-5,432398634056651E-002	2,000000000000000E+000	-1,4819172E-001	40	-6,5527427E-005
2	0	0	1	1	1,245598427488323E+005	1,1868582E+000	1,1862383E+000	-5,212713253890000E-002	2,000000000000000E+000	-1,5174143E-001	40	-6,1835199E-005
2	0	0	1	1	1,246264823330750E+005	1,1668664E+000	1,1662397E+000	-5,034496459566129E-002	2,000000000000000E+000	-1,5515774E-001	40	-5,8714297E-005
2	0	0	1	1	1,246931216172865E+005	1,1468747E+000	1,1462611E+000	-4,888863069784932E-002	2,000000000000000E+000	-1,5846708E-001	40	-5,6039135E-005
2	0	0	1	1	1,247600944014449E+005	1,1267828E+000	1,1262147E+000	-4,770119613119905E-002	2,000000000000000E+000	-1,6170360E-001	41	-5,3721789E-005
2	0	0	1	1	1,248267339857064E+005	1,1067909E+000	1,1062238E+000	-4,696172122419816E-002	2,000000000000000E+000	-1,6486049E-001	41	-5,1950174E-005
2	0	0	1	1	1,248933733699379E+005	1,0867990E+000	1,0862328E+000	-4,657562559641104E-002	2,000000000000000E+000	-1,6798039E-001	41	-5,0591971E-005
2	0	0	1	1	1,249600127541490E+005	1,0668072E+000	1,0662709E+000	-4,650856389617331E-002	2,000000000000000E+000	-1,7108537E-001	41	-4,9590730E-005
2	0	0	1	1	1,250266522383965E+005	1,0468154E+000	1,0462227E+000	-4,679339052205875E-002	2,000000000000000E+000	-1,7419763E-001	41	-4,8956306E-005
2	0	0	1	1	1,250932918226596E+005	1,0268234E+000	1,0262465E+000	-4,734728879425575E-002	2,000000000000000E+000	-1,7733751E-001	41	-4,8589991E-005
2	0	0	1	1	1,251599312068830E+005	1,0068315E+000	1,0062536E+000	-4,825425761213920E-002	2,000000000000000E+000	-1,8052578E-001	41	-4,8556019E-005
2	0	0	1	1	1,252212404923640E+005	1,0115297E+000	1,0109551E+000	-2,952778345116805E-002	2,000000000000000E+000	-1,8306015E-001	41	-2,9851262E-005
2	0	0	1	1	1,252878800766000E+005	1,0315216E+000	1,0309073E+000	-1,600921475438527E-002	2,000000000000000E+000	-1,8451671E-001	41	-1,6504016E-005
2	0	0	1	1	1,253545196608626E+005	1,0515134E+000	1,0508771E+000	-8,571068788081299E-003	2,000000000000000E+000	-1,8531060E-001	41	-9,0071399E-006
2	0	0	1	1	1,254211594450967E+005	1,0715053E+000	1,0709200E+000	-3,680344303671992E-003	2,000000000000000E+000	-1,8570343E-001	42	-3,9413544E-006
2	0	0	1	1	1,254877989293071E+005	1,0914972E+000	1,0909314E+000	-2,844260622457762E-004	2,000000000000000E+000	-1,8582563E-001	43	-3,1028932E-007
2	1	0	1	1	1,255544383135518E+005	1,1114889E+000	1,1108900E+000	2,203584816357212E-003	2,000000000000000E+000	-1,8575525E-001	42	2,4479405E-006
2	1	0	1	1	1,256210782978146E+005	1,1314808E+000	1,1308378E+000	4,111241499282749E-003	2,000000000000000E+000	-1,8553804E-001	42	4,6491473E-006
2	1	0	1	1	1,256877178820402E+005	1,1514728E+000	1,1507905E+000	5,617113614970415E-003	2,000000000000000E+000	-1,8520729E-001	42	6,4641208E-006
2	1	0	1	1	1,257543572662508E+005	1,1714643E+000	1,1708195E+000	6,889128795594779E-003	2,000000000000000E+000	-1,8478437E-001	42	8,0659265E-006
2	1	0	1	1	1,258209972505029E+005	1,1914563E+000	1,1907954E+000	7,926177226671920E-003	2,000000000000000E+000	-1,8428525E-001	42	9,4384559E-006
2	1	0	1	1	1,258876365347663E+005	1,2114482E+000	1,2107971E+000	8,811959110490718E-003	2,000000000000000E+000	-1,8372244E-001	42	1,0669494E-005
2	1	0	1	1	1,259542761189844E+005	1,2314399E+000	1,2307839E+000	9,606218003116080E-003	2,000000000000000E+000	-1,8310483E-001	42	1,1823179E-005
2	1	0	1	1	1,260209161031982E+005	1,2514319E+000	1,2508094E+000	1,030563025203819E-002	2,000000000000000E+000	-1,8243590E-001	41	1,2890379E-005
2	1	0	1	1	1,260875554874567E+005	1,2714238E+000	1,2708015E+000	1,095302753461949E-002	2,000000000000000E+000	-1,8172251E-001	41	1,3919124E-005
2	1	0	1	1	1,261541948717143E+005	1,2914156E+000	1,2907997E+000	1,154511158128672E-002	2,000000000000000E+000	-1,8096784E-001	41	1,4902427E-005
2	1	0	1	1	1,262208347559269E+005	1,3114074E+000	1,3107849E+000	1,215388123016597E-002	2,000000000000000E+000	-1,8017355E-001	41	1,5931124E-005
2	1	0	1	1	1,262874743401455E+005	1,3313993E+000	1,3307647E+000	1,272061547229950E-002	2,000000000000000E+000	-1,7934035E-001	41	1,6928145E-005
2	1	0	1	1	1,263541137244089E+005	1,3513910E+000	1,3507465E+000	1,329230727674163E-002	2,000000000000000E+000	-1,7846842E-001	41	1,7954537E-005
2	1	0	1	1	1,264207537086597E+005	1,3713830E+000	1,3707657E+000	1,388705104376961E-002	2,000000000000000E+000	-1,7755823E-001	41	1,9035893E-005
2	1	0	1	1	1,264873930928709E+005	1,3913748E+000	1,3907239E+000	1,447641638720371E-002	2,000000000000000E+000	-1,7660856E-001	41	2,0132698E-005
2	1	0	1	1	1,265540325770979E+005	1,4113666E+000	1,4107245E+000	1,510930501884949E-002	2,000000000000000E+000	-1,7561769E-001	41	2,1315067E-005
2	1	0	1	1	1,266206725613607E+005	1,4313585E+000	1,4307082E+000	1,580146691597219E-002	2,000000000000000E+000	-1,7458303E-001	41	2,2607288E-005
2	1	0	1	1	1,266873119456040E+005	1,4513503E+000	1,4507333E+000	1,652849887014818E-002	2,000000000000000E+000	-1,7350134E-001	41	2,3978444E-005
2	1	0	1	1	1,267539515298145E+005	1,4713422E+000	1,4707159E+000	1,733077094817115E-002	2,000000000000000E+000	-1,7236948E-001	41	2,5488640E-005
2	1	0	1	1	1,268205912140494E+005	1,4913341E+000	1,4907240E+000	1,815066851522755E-002	2,000000000000000E+000	-1,7118376E-001	41	2,7057637E-005
2	1	0	1	1	1,268872307983118E+005	1,5113260E+000	1,5106933E+000	1,907167782284976E-002	2,000000000000000E+000	-1,6993986E-001	41	2,8811457E-005
2	1	0	1	1	1,269538703825469E+005	1,5313178E+000	1,5306572E+000	2,023223743514027E-002	2,000000000000000E+000	-1,6862808E-001	41	3,0968618E-005
2	1	0	1	1	1,270205101667587E+005	1,5513093E+000	1,5506641E+000	2,205295622722758E-002	2,000000000000000E+000	-1,6722059E-001	41	3,4196728E-005
2	1	0	1	1	1,270871495510032E+005	1,5713013E+000	1,5706244E+000	2,517367784715185E-002	2,000000000000000E+000	-1,6565518E-001	41	3,9538390E-005
2	1	0	1	1	1,271537891352644E+005	1,5912932E+000	1,5906268E+000	3,747035664392651E-002	2,000000000000000E+000	-1,6366236E-001	41	5,9601356E-005
2	1	0	1	1	1,272204290194892E+005	1,6112849E+000	1,6106284E+000	6,242334500728977E-002	2,000000000000000E+000	-1,6035086E-001	41	1,0054081E-004
2	1	0	1	1	1,272870684037009E+005	1,6312770E+000	1,6305743E+000	8,714111536806657E-002	2,000000000000000E+000	-1,5534256E-001	41	1,4209007E-004
2	1	0	1	1	1,273537079879553E+005	1,6512688E+000	1,6506699E+000	1,075690937117764E-001	2,000000000000000E+000	-1,4882024E-001	40	1,7756107E-004
2	1	0	1	1	1,274203477722176E+005	1,6712605E+000	1,6706402E+000	1,221810314372704E-001	2,000000000000000E+000	-1,4112726E-001	40	2,0412054E-004
2	1	0	1	1	1,274869874564335E+005	1,6912525E+000	1,6906364E+000	1,307628128646663E-001	2,000000000000000E+000	-1,3265918E-001	40	2,2107238E-004
2	1	0	1	1	1,275536268406472E+005	1,7112445E+000	1,7106124E+000	1,327448215264120E-001	2,000000000000000E+000	-1,2383556E-001	40	2,2707494E-004
2	1	0	1	1	1,276202668249075E+005	1,7312361E+000	1,7306199E+000	1,285207560922213E-001	2,000000000000000E+000	-1,1509364E-001	40	2,2242058E-004
2	1	0	1	1	1,276869064091659E+005	1,7512280E+000	1,7506080E+000	1,200442491541758E-001	2,000000000000000E+000	-1,0679029E-001	40	2,1015042E-004
2	1	0	1	1	1,277535457933773E+005	1,7712196E+000	1,7705966E+000	1,099023523941546E-001	2,000000000000000E+000	-9,9123128E-002	40	1,9459274E-004
2	1	0	1	1	1,278201854775958E+005	1,7912116E+000	1,7905916E+000	9,993029777564200E-002	2,000000000000000E+000	-9,2130706E-002	40	1,7893435E-004
2	1	0	1	1	1,278868250618582E+005	1,8112034E+000	1,8105898E+000	9,053934951019427E-002	2,000000000000000E+000	-8,5783973E-002	40	1,6392962E-004
2	1	0	1	1	1,279534646461103E+005	1,8311951E+000	1,8306040E+000	8,165629020902698E-002	2,000000000000000E+000	-8,0046892E-002	40	1,4948033E-004
2	1	0	1	1	1,280201046303213E+005	1,8511873E+000	1,8505701E+000	7,336620455602327E-002	2,000000000000000E+000	-7,4881181E-002	40	1,3576930E-004
2	1	0	1	1	1,280867440145495E+005	1,8711791E+000	1,8705819E+000	6,582674993296500E-002	2,000000000000000E+000	-7,0244461E-002	40	1,2313432E-004
2	1	0	1	1	1,281533832988114E+005	1,8911710E+000	1,8905499E+000	5,900148306999150E-002	2,000000000000000E+000	-6,6085726E-002	40	1,1154525E-004
2	1	0	1	1	1,282200232830525E+005	1,9111629E+000	1,9105800E+000	5,299190346897087E-002	2,000000000000000E+000	-6,2354859E-002	40	1,0124527E-004
2	1	0	1	1	1,282869958671848E+005	1,9312545E+000	1,9306085E+000	4,771598858280607E-002	2,000000000000000E+000	-5,8985826E-002	41	9,2120892E-005
2	1	0	1	1	1,283536354514223E+005	1,9512464E+000	1,9506214E+000	4,303697179519062E-002	2,000000000000000E+000	-5,5960827E-002	41	8,3948835E-005
2	1	0	1	1	1,284202754356854E+005	1,9712383E+000	1,9706080E+000	3,889812988021291E-002	2,000000000000000E+000	-5,3230315E-002	41	7,6652963E-005
2	1	0	1	1	1,284869149199180E+005	1,9912300E+000	1,9906217E+000	3,525012981473397E-002	2,000000000000000E+000	-5,0758641E-002	41	7,0169670E-005
2	1	0	1	1	1,285535547041287E+005	2,0112221E+000	2,0105903E+000	3,200772850090383E-002	2,000000000000000E+000	-4,8515614E-002	41	6,4354426E-005
2	1	0	1	1	1,286201946883741E+005	2,0312138E+000	2,0306067E+000	2,915881833347334E-002	2,000000000000000E+000	-4,6475656E-002	41	5,9210091E-005
2	1	0	1	1	1,286868342726361E+005	2,0512054E+000	2,0505888E+000	2,663323714420907E-002	2,000000000000000E+000	-4,4614222E-002	41	5,4613818E-005
2	1	0	1	1	1,287534738568603E+005	2,0711970E+000	2,0705905E+000	2,435563584277933E-002	2,000000000000000E+000	-4,2912189E-002	41	5,0430550E-005
2	1	0	1	1	1,288201137410724E+005	2,0911891E+000	2,0905802E+000	2,237243229952085E-002	2,000000000000000E+000	-4,1352168E-002	41	4,6771365E-005
2	1	0	1	1	1,288867529253282E+005	2,1111813E+000	2,1105833E+000	2,056191986690509E-002	2,000000000000000E+000	-3,9918922E-002	41	4,3397646E-005
2	1	0	1	1	1,289533925095885E+005	2,1311729E+000	2,1305637E+000	1,899381329631769E-002	2,000000000000000E+000	-3,8597908E-002	41	4,0467530E-005
2	1	0	1	1	1,290200324938035E+005	2,1511648E+000	2,1505618E+000	1,758070904082076E-002	2,000000000000000E+000	-3,7375912E-002	41	3,7808401E-005
2	1	0	1	1	1,290866720780190E+005	2,1711566E+000	2,1705635E+000	1,634825031339866E-002	2,000000000000000E+000	-3,6241747E-002	41	3,5484914E-005
2	1	0	1	1	1,291533115622799E+005	2,1911485E+000	2,1905682E+000	1,529070292591787E-002	2,000000000000000E+000	-3,5184644E-002	41	3,3495329E-005
2	1	0	1	1	1,292199515465364E+005	2,2111404E+000	2,2105496E+000	1,431634056233633E-002	2,000000000000000E+000	-3,4194905E-002	41	3,1646981E-005
2	1	0	1	1	1,292865907307467E+005	2,2311318E+000	2,2305741E+000	1,349111079628439E-002	2,000000000000000E+000	-3,3264488E-002	41	3,0092922E-005
2	1	0	1	1	1,293532303149686E+005	2,2511237E+000	2,2505126E+000	1,275523546446888E-002	2,000000000000000E+000	-3,2385945E-002	41	2,8705817E-005
2	1	0	1	1	1,294198701992317E+005	2,2711158E+000	2,2705038E+000	1,212131362114882E-002	2,000000000000000E+000	-3,1553026E-002	41	2,7521488E-005
2	1	0	1	1	1,294865093834808E+005	2,2911079E+000	2,2904985E+000	1,155826120922335E-002	2,000000000000000E+000	-3,0760236E-002	41	2,6474179E-005
2	1	0	1	1	1,295531489676916E+005	2,3110993E+000	2,3105257E+000	1,108783611260647E-002	2,000000000000000E+000	-3,0002221E-002	41	2,5618730E-005
2	1	0	1	1	1,296197889519211E+005	2,3310914E+000	2,3304737E+000	1,068806717573725E-002	2,000000000000000E+000	-2,9273115E-002	41	2,4908259E-005
2	1	0	1	1	1,296864285361827E+005	2,3510833E+000	2,3504925E+000	1,031655136408283E-002	2,000000000000000E+000	-2,8568763E-002	41	2,4248977E-005
2	1	0	1	1	1,297530681204230E+005	2,3710752E+000	2,3704631E+000	1,005742670631196E-002	2,000000000000000E+000	-2,7885348E-002	41	2,3840759E-005
2	1	0	1	1	1,298197080046344E+005	2,3910670E+000	2,3904591E+000	9,812632673417220E-003	2,000000000000000E+000	-2,7218793E-002	41	2,3456696E-005
2	1	0	1	1	1,298863475888735E+005	2,4110589E+000	2,4104505E+000	9,641656427193473E-003	2,000000000000000E+000	-2,6565693E-002	41	2,3240735E-005
2	1	0	1	1	1,299529867731361E+005	2,4310503E+000	2,4304428E+000	9,535085173305868E-003	2,000000000000000E+000	-2,5922598E-002	41	2,3174480E-005
2	1	0	1	1	1,300196267573667E+005	2,4510424E+000	2,4504426E+000	9,446746921794397E-003	2,000000000000000E+000	-2,5286729E-002	41	2,3148710E-005
2	1	0	1	1	1,300862662415777E+005	2,4710343E+000	2,4704430E+000	9,357129126220096E-003	2,000000000000000E+000	-2,4656113E-002	41	2,3116254E-005
2	1	0	1	1	1,301529058258256E+005	2,4910262E+000	2,4903972E+000	9,274544076651889E-003	2,000000000000000E+000	-2,4030738E-002	41	2,3097298E-005
2	1	0	1	1	1,302195454100885E+005	2,5110180E+000	2,5104392E+000	9,181645776904258E-003	2,000000000000000E+000	-2,3411185E-002	41	2,3049963E-005
2	1	0	1	1	1,302861849943104E+005	2,5310099E+000	2,5304091E+000	9,040984434333210E-003	2,000000000000000E+000	-2,2799628E-002	41	2,2877390E-005
2	1	0	1	1	1,303528245785211E+005	2,5510015E+000	2,5503919E+000	8,905832017662985E-003	2,000000000000000E+000	-2,2196939E-002	41	2,2713362E-005
2	1	0	1	1	1,304194644627776E+005	2,5709934E+000	2,5703838E+000	8,777015052855108E-003	2,000000000000000E+000	-2,1603389E-002	41	2,2560298E-005
2	1	0	1	1	1,304861040470393E+005	2,5909855E+000	2,5903873E+000	8,652285757435062E-003	2,000000000000000E+000	-2,1018462E-002	41	2,2412771E-005
2	1	0	1	1	1,305527436312552E+005	2,6109772E+000	2,6103711E+000	8,595565075549594E-003	2,000000000000000E+000	-2,0439154E-002	41	2,2437614E-005
2	1	0	1	1	1,306193832154697E+005	2,6309688E+000	2,6303980E+000	8,576599225356418E-003	2,000000000000000E+000	-1,9862685E-002	41	2,2559871E-005
2	1	0	1	1	1,306860227997293E+005	2,6509609E+000	2,6503701E+000	8,591898408969734E-003	2,000000000000000E+000	-1,9286508E-002	41	2,2771710E-005
2	1	0	1	1	1,307526622839853E+005	2,6709526E+000	2,6703739E+000	8,627294692419185E-003	2,000000000000000E+000	-1,8708415E-002	41	2,3038103E-005
2	1	0	1	1	1,308193018681973E+005	2,6909447E+000	2,6903682E+000	8,714852035444517E-003	2,000000000000000E+000	-1,8125694E-002	41	2,3446160E-005
2	1	0	1	0	1,308812793535197E+005	2,7095368E+000	2,7089365E+000	8,854812926917460E-003	2,000000000000000E+000	-1,7576691E-002	41	2,3987126E-005
2	1	0	1	0	1,309479189377767E+005	2,7295287E+000	2,7289281E+000	9,044197362120714E-003	2,000000000000000E+000	-1,6975490E-002	41	2,4680965E-005
2	1	0	0	0	1,309884177281752E+005	2,7417748E+000	2,7411652E+000	9,494423265813984E-003	2,000000000000000E+000	-1,6602650E-002	41	2,6025782E-005