File: Dati/201104_LTO-CNT/CV_LTO_Al_grafite_01_1mVs_03_CV_C03.mpt
EC-Lab ASCII FILE
Nb header lines : 57

Cyclic Voltammetry

Run on channel : 3 (SN 6807)
User :
Electrode connection : standard
Ewe ctrl range : min = 0,00 V, max = 5,00 V
Ewe,I filtering : 50 kHz
Safety Limits :
	Do not start on E overload
Channel : Grounded
Acquisition started on : 11/04/2020 18:19:46
Saved on :
	File : CV_LTO_Al_grafite_01_1mVs_03_CV_C03.mpr
	Directory : C:\Users\labsuperfici\Desktop\Biologic\Users\Prisca Viviani\201104\
	Host : 10.78.33.0
Device : VSP-300 (SN 0638)
Address : USB
EC-Lab for windows v11.31 (software)
Internet server v11.30 (firmware)
Command interpretor v11.31 (firmware)
Electrode material :
Initial state :
Electrolyte :
Comments :
Cable : standard
Reference electrode : SCE Saturated Calomel Electrode (0,241 V)
Electrode surface area : 0,001 cm²
Characteristic mass : 0,001 g
Equivalent Weight : 0,000 g/eq.
Density : 0,000 g/cm3
Cycle Definition : Charge/Discharge alternance
Ei (V)              0,000
vs.                 Eoc
dE/dt               0,200
dE/dt unit          mV/s
E1 (V)              1,000
vs.                 Ref
Step percent        50
N                   10
E range min (V)     0,000
E range max (V)     5,000
I Range             Auto
I Range min         Unset
I Range max         Unset
I Range init        Unset
Bandwidth           8
E2 (V)              2,700
vs.                 Ref
nc cycles           1
Reverse Scan        1
Ef (V)              0,000
vs.                 Eoc

mode	ox/red	error	control changes	counter inc.	time/s	control/V	Ewe/V	<I>/mA	cycle number	(Q-Qo)/C	I Range	P/W
2	1	0	1	0	7,362548889693129E+004	2,7417748E+000	2,7412071E+000	4,110829904675484E-003	1,000000000000000E+000	0,0000000E+000	42	1,1268637E-005
2	1	0	1	0	7,372319937380380E+004	2,7222316E+000	2,7216761E+000	1,639086679338819E-003	1,000000000000000E+000	2,1465508E-004	42	4,4610629E-006
2	1	0	1	0	7,382315775015019E+004	2,7022400E+000	2,7017074E+000	9,389049596147843E-004	1,000000000000000E+000	3,3567479E-004	42	2,5366464E-006
2	1	0	1	0	7,392311672649538E+004	2,6822479E+000	2,6816342E+000	4,473001299436057E-004	1,000000000000000E+000	3,9819154E-004	43	1,1994953E-006
2	1	0	1	0	7,402307560284180E+004	2,6622567E+000	2,6616859E+000	1,006106800653921E-004	1,000000000000000E+000	4,2039540E-004	43	2,6779404E-007
2	0	0	1	0	7,412353407908278E+004	2,6421645E+000	2,6416411E+000	-1,502989025060763E-004	1,000000000000000E+000	4,1263097E-004	43	-3,9703576E-007
2	0	0	1	0	7,422349305544852E+004	2,6221728E+000	2,6216736E+000	-3,594618127830333E-004	1,000000000000000E+000	3,8165518E-004	43	-9,4239152E-007
2	0	0	1	0	7,432345193181536E+004	2,6021810E+000	2,6017277E+000	-5,222431130097772E-004	1,000000000000000E+000	3,3230311E-004	43	-1,3587344E-006
2	0	0	1	0	7,442341030818294E+004	2,5821891E+000	2,5817492E+000	-6,767557444393984E-004	1,000000000000000E+000	2,6698146E-004	43	-1,7472136E-006
2	0	0	1	0	7,452336918454245E+004	2,5621972E+000	2,5617633E+000	-8,054910445416293E-004	1,000000000000000E+000	1,8793342E-004	43	-2,0634775E-006
2	0	0	1	0	7,462332816088956E+004	2,5422053E+000	2,5416899E+000	-9,138091801007657E-004	1,000000000000000E+000	9,5711730E-005	42	-2,3226196E-006
2	0	0	1	0	7,472328713723482E+004	2,5222135E+000	2,5216913E+000	-1,032456223421352E-003	1,000000000000000E+000	-7,5351904E-006	42	-2,6035359E-006
2	0	0	1	0	7,482324611358065E+004	2,5022216E+000	2,5017197E+000	-1,142965753028709E-003	1,000000000000000E+000	-1,2217044E-004	42	-2,8593799E-006
2	0	0	1	0	7,492320508992602E+004	2,4822297E+000	2,4817135E+000	-1,241883280371571E-003	1,000000000000000E+000	-2,4757758E-004	42	-3,0819986E-006
2	0	0	1	0	7,502316346628038E+004	2,4622381E+000	2,4617345E+000	-1,338382051344941E-003	1,000000000000000E+000	-3,8263793E-004	42	-3,2947414E-006
2	0	0	1	0	7,512312234264519E+004	2,4422460E+000	2,4417293E+000	-1,427757133929963E-003	1,000000000000000E+000	-5,2689371E-004	42	-3,4861964E-006
2	0	0	1	0	7,522308121901331E+004	2,4222543E+000	2,4217341E+000	-1,512970735368300E-003	1,000000000000000E+000	-6,8031403E-004	42	-3,6640129E-006
2	0	0	1	0	7,532303959538031E+004	2,4022622E+000	2,4017222E+000	-1,607158820034033E-003	1,000000000000000E+000	-8,4252498E-004	42	-3,8599492E-006
2	0	0	1	0	7,542299857174279E+004	2,3822708E+000	2,3817608E+000	-1,693071337493540E-003	1,000000000000000E+000	-1,0132923E-003	42	-4,0324908E-006
2	0	0	1	0	7,552295754809259E+004	2,3622787E+000	2,3617458E+000	-1,774481829786253E-003	1,000000000000000E+000	-1,1929491E-003	42	-4,1908752E-006
2	0	0	1	0	7,562291652443772E+004	2,3422871E+000	2,3417833E+000	-1,850853264061918E-003	1,000000000000000E+000	-1,3813301E-003	42	-4,3342970E-006
2	0	0	1	0	7,572287550078321E+004	2,3222947E+000	2,3217759E+000	-1,957767029570831E-003	1,000000000000000E+000	-1,5787667E-003	42	-4,5454963E-006
2	0	0	1	0	7,582283437712898E+004	2,3023031E+000	2,3017771E+000	-2,055497477570029E-003	1,000000000000000E+000	-1,7855645E-003	42	-4,7312969E-006
2	0	0	1	0	7,592279335348005E+004	2,2823112E+000	2,2817736E+000	-2,156645965676029E-003	1,000000000000000E+000	-2,0019356E-003	42	-4,9209780E-006
2	0	0	1	0	7,602275162984431E+004	2,2623193E+000	2,2618189E+000	-2,251595969564918E-003	1,000000000000000E+000	-2,2275841E-003	42	-5,0927024E-006
2	0	0	1	0	7,612271060621078E+004	2,2423277E+000	2,2417998E+000	-2,358021000719270E-003	1,000000000000000E+000	-2,4642206E-003	42	-5,2862110E-006
2	0	0	1	0	7,622266998257732E+004	2,2223358E+000	2,2218418E+000	-2,482455706485297E-003	1,000000000000000E+000	-2,7128239E-003	42	-5,5156238E-006
2	0	0	1	0	7,632262795894407E+004	2,2023439E+000	2,2018085E+000	-2,632343481196030E-003	1,000000000000000E+000	-2,9751454E-003	42	-5,7959160E-006
2	0	0	1	0	7,642258733529609E+004	2,1823521E+000	2,1818542E+000	-2,792804824614033E-003	1,000000000000000E+000	-3,2523214E-003	42	-6,0934931E-006
2	0	0	1	0	7,652254591163975E+004	2,1623604E+000	2,1618426E+000	-2,976413508341873E-003	1,000000000000000E+000	-3,5467616E-003	42	-6,4345377E-006
2	0	0	1	0	7,662250518798479E+004	2,1423683E+000	2,1418657E+000	-3,176154973931589E-003	1,000000000000000E+000	-3,8599006E-003	42	-6,8028976E-006
2	0	0	1	0	7,672246366433124E+004	2,1223764E+000	2,1218634E+000	-3,401193297387086E-003	1,000000000000000E+000	-4,1946741E-003	42	-7,2168673E-006
2	0	0	1	0	7,682242304068059E+004	2,1023848E+000	2,1018937E+000	-3,644235435154402E-003	1,000000000000000E+000	-4,5527839E-003	42	-7,6597953E-006
2	0	0	1	0	7,692238161704224E+004	2,0823927E+000	2,0819075E+000	-3,923220353360873E-003	1,000000000000000E+000	-4,9371044E-003	42	-8,1677817E-006
2	0	0	1	0	7,702234099340811E+004	2,0624008E+000	2,0618818E+000	-4,240500336175707E-003	1,000000000000000E+000	-5,3508445E-003	42	-8,7434100E-006
2	0	0	1	0	7,712229896977590E+004	2,0424092E+000	2,0419028E+000	-4,574099081822852E-003	1,000000000000000E+000	-5,7969741E-003	42	-9,3398658E-006
2	0	0	1	0	7,722225834614260E+004	2,0224171E+000	2,0219061E+000	-4,942821542464448E-003	1,000000000000000E+000	-6,2783035E-003	42	-9,9939216E-006
2	0	0	1	0	7,732221692249842E+004	2,0024254E+000	2,0019469E+000	-5,348148799730168E-003	1,000000000000000E+000	-6,7987358E-003	42	-1,0706710E-005
2	0	0	1	0	7,742217619884317E+004	1,9824337E+000	1,9819373E+000	-5,790452585339945E-003	1,000000000000000E+000	-7,3608081E-003	42	-1,1476314E-005
2	0	0	1	0	7,752213497518771E+004	1,9624419E+000	1,9619532E+000	-6,272647879476352E-003	1,000000000000000E+000	-7,9686102E-003	42	-1,2306641E-005
2	0	0	1	0	7,762209435153339E+004	1,9424499E+000	1,9419760E+000	-6,753889303808922E-003	1,000000000000000E+000	-8,6244177E-003	42	-1,3115890E-005
2	0	0	1	0	7,772205352788069E+004	1,9224583E+000	1,9219822E+000	-7,276368490191115E-003	1,000000000000000E+000	-9,3310252E-003	42	-1,3985051E-005
2	0	0	1	0	7,782201260424010E+004	1,9024664E+000	1,9020027E+000	-7,828885385595868E-003	1,000000000000000E+000	-1,0091241E-002	42	-1,4890561E-005
2	0	0	1	0	7,792197178060701E+004	1,8824744E+000	1,8820412E+000	-8,394808910222901E-003	1,000000000000000E+000	-1,0907184E-002	42	-1,5799376E-005
2	0	0	1	0	7,802193085697258E+004	1,8624829E+000	1,8620315E+000	-9,005006189412634E-003	1,000000000000000E+000	-1,1782521E-002	42	-1,6767604E-005
2	0	0	1	0	7,812188993333903E+004	1,8424908E+000	1,8420445E+000	-9,660114496657275E-003	1,000000000000000E+000	-1,2721156E-002	42	-1,7794360E-005
2	0	0	1	0	7,822184920969931E+004	1,8224990E+000	1,8219610E+000	-1,036068529779097E-002	1,000000000000000E+000	-1,3727660E-002	41	-1,8876764E-005
2	0	0	1	0	7,832180808604555E+004	1,8025072E+000	1,8019608E+000	-1,105920584418686E-002	1,000000000000000E+000	-1,4802920E-002	41	-1,9928255E-005
2	0	0	1	0	7,842176746238978E+004	1,7825154E+000	1,7819539E+000	-1,182352121475114E-002	1,000000000000000E+000	-1,5951738E-002	41	-2,1068970E-005
2	0	0	1	0	7,852172633873494E+004	1,7625234E+000	1,7619740E+000	-1,266314030078353E-002	1,000000000000000E+000	-1,7181216E-002	41	-2,2312124E-005
2	0	0	1	0	7,862168571508012E+004	1,7425317E+000	1,7419919E+000	-1,357611557892298E-002	1,000000000000000E+000	-1,8498302E-002	41	-2,3649483E-005
2	0	0	1	0	7,872164489143807E+004	1,7225398E+000	1,7220482E+000	-1,453672391213512E-002	1,000000000000000E+000	-1,9908533E-002	41	-2,5032939E-005
2	0	0	1	0	7,882160386780463E+004	1,7025479E+000	1,7020282E+000	-1,560588285573167E-002	1,000000000000000E+000	-2,1420315E-002	41	-2,6561653E-005
2	0	0	1	0	7,892156264416952E+004	1,6825562E+000	1,6820406E+000	-1,677233375546816E-002	1,000000000000000E+000	-2,3043586E-002	41	-2,8211745E-005
2	0	0	1	0	7,902152232053597E+004	1,6625642E+000	1,6619887E+000	-1,822731023689128E-002	1,000000000000000E+000	-2,4796361E-002	41	-3,0293584E-005
2	0	0	1	0	7,912148119689897E+004	1,6425724E+000	1,6420475E+000	-1,989695272065822E-002	1,000000000000000E+000	-2,6703615E-002	41	-3,2671742E-005
2	0	0	1	0	7,922144057324762E+004	1,6225806E+000	1,6220356E+000	-2,209808289541107E-002	1,000000000000000E+000	-2,8804583E-002	41	-3,5843877E-005
2	0	0	1	0	7,932139974959241E+004	1,6025887E+000	1,6020455E+000	-2,499002347435586E-002	1,000000000000000E+000	-3,1157447E-002	41	-4,0035156E-005
2	0	0	1	0	7,942135882593651E+004	1,5825969E+000	1,5820444E+000	-2,883188820902516E-002	1,000000000000000E+000	-3,3843819E-002	41	-4,5613328E-005
2	0	0	1	0	7,952131790228141E+004	1,5626049E+000	1,5620433E+000	-3,446371437976506E-002	1,000000000000000E+000	-3,6993150E-002	41	-5,3833814E-005
2	0	0	1	0	7,962127687863586E+004	1,5426130E+000	1,5421067E+000	-4,360713527581328E-002	1,000000000000000E+000	-4,0859416E-002	41	-6,7246860E-005
2	0	0	1	0	7,972123605500197E+004	1,5226213E+000	1,5221403E+000	-5,810359535133119E-002	1,000000000000000E+000	-4,5921095E-002	41	-8,8441819E-005
2	0	0	1	0	7,982119543136688E+004	1,5026293E+000	1,5021484E+000	-7,186171693047183E-002	1,000000000000000E+000	-5,2460581E-002	41	-1,0794697E-004
2	0	0	1	0	7,992115430773306E+004	1,4826375E+000	1,4821898E+000	-8,009458305720848E-002	1,000000000000000E+000	-6,0116231E-002	41	-1,1871537E-004
2	0	0	1	0	8,002111338409875E+004	1,4626458E+000	1,4621578E+000	-8,139696632252236E-002	1,000000000000000E+000	-6,8250343E-002	41	-1,1901521E-004
2	0	0	1	0	8,012107256045030E+004	1,4426538E+000	1,4421898E+000	-7,675357246359271E-002	1,000000000000000E+000	-7,6200657E-002	41	-1,1069322E-004
2	0	0	1	0	8,022103183679469E+004	1,4226621E+000	1,4221660E+000	-6,948559116341468E-002	1,000000000000000E+000	-8,3516754E-002	41	-9,8820048E-005
2	0	0	1	0	8,032099061313912E+004	1,4026704E+000	1,4021652E+000	-6,283572537486326E-002	1,000000000000000E+000	-9,0125218E-002	41	-8,8106062E-005
2	0	0	1	0	8,042094998948323E+004	1,3826784E+000	1,3821460E+000	-5,729831733140239E-002	1,000000000000000E+000	-9,6125260E-002	41	-7,9194637E-005
2	0	0	1	0	8,052090886583552E+004	1,3626866E+000	1,3621765E+000	-5,290300297847716E-002	1,000000000000000E+000	-1,0163096E-001	41	-7,2063231E-005
2	0	0	1	0	8,062086824219988E+004	1,3426946E+000	1,3421657E+000	-4,916255967854466E-002	1,000000000000000E+000	-1,0673197E-001	41	-6,5984299E-005
2	0	0	1	0	8,072082741856459E+004	1,3227029E+000	1,3221846E+000	-4,602337528111167E-002	1,000000000000000E+000	-1,1149109E-001	41	-6,0851395E-005
2	0	0	1	0	8,082078649493051E+004	1,3027110E+000	1,3021947E+000	-4,336393567961078E-002	1,000000000000000E+000	-1,1596134E-001	41	-5,6468289E-005
2	0	0	1	0	8,092074557129713E+004	1,2827193E+000	1,2821957E+000	-4,107664388381049E-002	1,000000000000000E+000	-1,2018441E-001	41	-5,2668296E-005
2	0	0	1	0	8,102070454765193E+004	1,2627274E+000	1,2621827E+000	-3,919192153327911E-002	1,000000000000000E+000	-1,2419870E-001	41	-4,9467366E-005
2	0	0	1	0	8,112066372399672E+004	1,2427354E+000	1,2421875E+000	-3,761281515213338E-002	1,000000000000000E+000	-1,2803924E-001	41	-4,6722169E-005
2	0	0	1	0	8,122062310034118E+004	1,2227436E+000	1,2222311E+000	-3,621842756483112E-002	1,000000000000000E+000	-1,3173442E-001	41	-4,4267290E-005
2	0	0	1	0	8,132058197668521E+004	1,2027518E+000	1,2022079E+000	-3,513120196177605E-002	1,000000000000000E+000	-1,3530466E-001	41	-4,2235009E-005
2	0	0	1	0	8,142054105303483E+004	1,1827599E+000	1,1822057E+000	-3,428139847947403E-002	1,000000000000000E+000	-1,3877758E-001	41	-4,0527662E-005
2	0	0	1	0	8,152050022939715E+004	1,1627679E+000	1,1622128E+000	-3,369835290036438E-002	1,000000000000000E+000	-1,4217772E-001	41	-3,9164657E-005
2	0	0	1	0	8,162045950576232E+004	1,1427761E+000	1,1422281E+000	-3,338696055823227E-002	1,000000000000000E+000	-1,4553547E-001	41	-3,8135524E-005
2	0	0	1	0	8,172041828212864E+004	1,1227844E+000	1,1222260E+000	-3,334700038430516E-002	1,000000000000000E+000	-1,4887398E-001	41	-3,7422869E-005
2	0	0	1	0	8,182037765849452E+004	1,1027925E+000	1,1022538E+000	-3,357755091252440E-002	1,000000000000000E+000	-1,5222119E-001	41	-3,7010985E-005
2	0	0	1	0	8,192033653485315E+004	1,0828007E+000	1,0822704E+000	-3,402947419917968E-002	1,000000000000000E+000	-1,5560508E-001	41	-3,6829093E-005
2	0	0	1	0	8,202029591119906E+004	1,0628089E+000	1,0622644E+000	-3,469378226381714E-002	1,000000000000000E+000	-1,5904528E-001	41	-3,6853970E-005
2	0	0	1	0	8,212025508754351E+004	1,0428170E+000	1,0422612E+000	-3,555449518681053E-002	1,000000000000000E+000	-1,6256070E-001	41	-3,7057071E-005
2	0	0	1	0	8,222021416388871E+004	1,0228251E+000	1,0222563E+000	-3,661400838627367E-002	1,000000000000000E+000	-1,6617173E-001	41	-3,7428897E-005
2	0	0	1	0	8,232017324023414E+004	1,0028332E+000	1,0022825E+000	-3,799302546055075E-002	1,000000000000000E+000	-1,6990462E-001	41	-3,8079743E-005
2	0	0	1	0	8,241213681850000E+004	1,0155281E+000	1,0149734E+000	-2,257013645010481E-002	1,000000000000000E+000	-1,7265239E-001	41	-2,2908089E-005
2	0	0	1	0	8,251209619486658E+004	1,0355200E+000	1,0349276E+000	-1,477222475815787E-002	1,000000000000000E+000	-1,7447217E-001	41	-1,5288184E-005
2	0	0	1	0	8,261205517123250E+004	1,0555118E+000	1,0549648E+000	-1,003176480502141E-002	1,000000000000000E+000	-1,7569001E-001	41	-1,0583159E-005
2	0	0	1	0	8,271201484758657E+004	1,0755037E+000	1,0749289E+000	-6,741551061641329E-003	1,000000000000000E+000	-1,7651318E-001	41	-7,2466878E-006
2	0	0	1	0	8,281197392393090E+004	1,0954955E+000	1,0949904E+000	-4,299303592184174E-003	1,000000000000000E+000	-1,7705283E-001	42	-4,7076960E-006
2	0	0	1	0	8,291193370027724E+004	1,1154873E+000	1,1149654E+000	-2,426666930372832E-003	1,000000000000000E+000	-1,7737898E-001	42	-2,7056496E-006
2	0	0	1	0	8,301189307662309E+004	1,1354792E+000	1,1349363E+000	-8,947250230241094E-004	1,000000000000000E+000	-1,7753769E-001	42	-1,0154560E-006
2	1	0	1	0	8,311185255296971E+004	1,1554710E+000	1,1548834E+000	3,522120857856609E-004	1,000000000000000E+000	-1,7755881E-001	43	4,0676389E-007
2	1	0	1	0	8,321181192932982E+004	1,1754630E+000	1,1748888E+000	1,430114270048405E-003	1,000000000000000E+000	-1,7746374E-001	42	1,6802253E-006
2	1	0	1	0	8,331177130569611E+004	1,1954548E+000	1,1948568E+000	2,379621069965365E-003	1,000000000000000E+000	-1,7726707E-001	42	2,8433062E-006
2	1	0	1	0	8,341173058206285E+004	1,2154466E+000	1,2148280E+000	3,217957771879186E-003	1,000000000000000E+000	-1,7698124E-001	42	3,9092652E-006
2	1	0	1	0	8,351169035842991E+004	1,2354385E+000	1,2348030E+000	3,983595125256201E-003	1,000000000000000E+000	-1,7661478E-001	42	4,9189553E-006
2	1	0	1	0	8,361164943478815E+004	1,2554303E+000	1,2547771E+000	4,675089065599047E-003	1,000000000000000E+000	-1,7617565E-001	42	5,8661944E-006
2	1	0	1	0	8,371160891113267E+004	1,2754222E+000	1,2747918E+000	5,354767864773916E-003	1,000000000000000E+000	-1,7566794E-001	42	6,8262143E-006
2	1	0	1	0	8,381156828747783E+004	1,2954141E+000	1,2947694E+000	5,945759053405095E-003	1,000000000000000E+000	-1,7509760E-001	42	7,6983870E-006
2	1	0	1	0	8,391152796382341E+004	1,3154057E+000	1,3147683E+000	6,523492721064623E-003	1,000000000000000E+000	-1,7446789E-001	42	8,5768816E-006
2	1	0	1	0	8,401148704016884E+004	1,3353976E+000	1,3347619E+000	7,083329256321741E-003	1,000000000000000E+000	-1,7378256E-001	42	9,4545576E-006
2	1	0	1	0	8,411144671652711E+004	1,3553894E+000	1,3547219E+000	7,588112742722888E-003	1,000000000000000E+000	-1,7304379E-001	42	1,0279782E-005
2	1	0	1	0	8,421140579289221E+004	1,3753812E+000	1,3747708E+000	8,105909609045517E-003	1,000000000000000E+000	-1,7225356E-001	42	1,1143768E-005
2	1	0	1	0	8,431136556925869E+004	1,3953732E+000	1,3947194E+000	8,577574948525409E-003	1,000000000000000E+000	-1,7141403E-001	42	1,1963310E-005
2	1	0	1	0	8,441132494562608E+004	1,4153650E+000	1,4147152E+000	9,094863717842072E-003	1,000000000000000E+000	-1,7052490E-001	42	1,2866642E-005
2	1	0	1	0	8,451128442198783E+004	1,4353570E+000	1,4346944E+000	9,628241509341745E-003	1,000000000000000E+000	-1,6958371E-001	42	1,3813585E-005
2	1	0	1	0	8,461124339833518E+004	1,4553488E+000	1,4547772E+000	1,018622967104460E-002	1,000000000000000E+000	-1,6858757E-001	41	1,4818695E-005
2	1	0	1	0	8,471120307467922E+004	1,4753406E+000	1,4747487E+000	1,075116716312044E-002	1,000000000000000E+000	-1,6753636E-001	41	1,5855270E-005
2	1	0	1	0	8,481116245102428E+004	1,4953325E+000	1,4947616E+000	1,137599511459145E-002	1,000000000000000E+000	-1,6642544E-001	41	1,7004400E-005
2	1	0	1	0	8,491112222736957E+004	1,5153242E+000	1,5147327E+000	1,204894458865083E-002	1,000000000000000E+000	-1,6525038E-001	41	1,8250930E-005
2	1	0	1	0	8,501108130372455E+004	1,5353162E+000	1,5347366E+000	1,290578770510651E-002	1,000000000000000E+000	-1,6400139E-001	41	1,9806985E-005
2	1	0	1	0	8,511104078008991E+004	1,5553080E+000	1,5547019E+000	1,434775770636204E-002	1,000000000000000E+000	-1,6263892E-001	41	2,2306487E-005
2	1	0	1	0	8,521100015645553E+004	1,5752997E+000	1,5746963E+000	1,729985630894865E-002	1,000000000000000E+000	-1,6108194E-001	41	2,7242020E-005
2	1	0	1	0	8,531095983282232E+004	1,5952916E+000	1,5946816E+000	3,072836103160181E-002	1,000000000000000E+000	-1,5878594E-001	41	4,9001952E-005
2	1	0	1	0	8,541091880918620E+004	1,6152834E+000	1,6146582E+000	4,955120717141884E-002	1,000000000000000E+000	-1,5476492E-001	41	8,0008263E-005
2	1	0	1	0	8,551087858553650E+004	1,6352754E+000	1,6346352E+000	6,569695310394452E-002	1,000000000000000E+000	-1,4896058E-001	41	1,0739055E-004
2	1	0	1	0	8,561083766188112E+004	1,6552672E+000	1,6546210E+000	7,662263565081412E-002	1,000000000000000E+000	-1,4179571E-001	41	1,2678142E-004
2	1	0	1	0	8,571079743822530E+004	1,6752590E+000	1,6746097E+000	8,248898227127299E-002	1,000000000000000E+000	-1,3380617E-001	41	1,3813685E-004
2	1	0	1	0	8,581075681457075E+004	1,6952509E+000	1,6946070E+000	8,338464676412449E-002	1,000000000000000E+000	-1,2546575E-001	41	1,4130420E-004
2	1	0	1	0	8,591071649092296E+004	1,7152427E+000	1,7146068E+000	7,956364939810912E-002	1,000000000000000E+000	-1,1728695E-001	41	1,3642038E-004
2	1	0	1	0	8,601067576728668E+004	1,7352346E+000	1,7346071E+000	7,326753691695242E-002	1,000000000000000E+000	-1,0963653E-001	41	1,2709039E-004
2	1	0	1	0	8,611063524365262E+004	1,7552264E+000	1,7546210E+000	6,692146617963568E-002	1,000000000000000E+000	-1,0262854E-001	41	1,1742181E-004
2	1	0	1	0	8,621059432001930E+004	1,7752182E+000	1,7745686E+000	6,122534789989037E-002	1,000000000000000E+000	-9,6224748E-002	41	1,0864858E-004
2	1	0	1	0	8,631055409638502E+004	1,7952100E+000	1,7945849E+000	5,603908363122322E-002	1,000000000000000E+000	-9,0365916E-002	41	1,0056689E-004
2	1	0	1	0	8,641051347273798E+004	1,8152019E+000	1,8145719E+000	5,122512934002019E-002	1,000000000000000E+000	-8,5003845E-002	41	9,2951675E-005
2	1	0	1	0	8,651047294908273E+004	1,8351940E+000	1,8345866E+000	4,671791205975731E-002	1,000000000000000E+000	-8,0105677E-002	41	8,5708059E-005
2	1	0	1	0	8,661043222542689E+004	1,8551855E+000	1,8545903E+000	4,259348275387603E-002	1,000000000000000E+000	-7,5644799E-002	41	7,8993457E-005
2	1	0	1	0	8,671039160177228E+004	1,8751776E+000	1,8745630E+000	3,882010777226419E-002	1,000000000000000E+000	-7,1576022E-002	41	7,2770737E-005
2	1	0	1	0	8,681035097812198E+004	1,8951695E+000	1,8945524E+000	3,540442414914446E-002	1,000000000000000E+000	-6,7863636E-002	41	6,7075533E-005
2	1	0	1	0	8,691031075448345E+004	1,9151611E+000	1,9145714E+000	3,236136695582514E-002	1,000000000000000E+000	-6,4476825E-002	41	6,1958148E-005
2	1	0	1	0	8,701026983084949E+004	1,9351529E+000	1,9345416E+000	2,953542918560448E-002	1,000000000000000E+000	-6,1380807E-002	41	5,7137517E-005
2	1	0	1	0	8,711022960721562E+004	1,9551449E+000	1,9545612E+000	2,699003769458905E-002	1,000000000000000E+000	-5,8554478E-002	41	5,2753683E-005
2	1	0	1	0	8,721018858358159E+004	1,9751369E+000	1,9745528E+000	2,480579001303733E-002	1,000000000000000E+000	-5,5966832E-002	41	4,8980342E-005
2	1	0	1	0	8,731014825993971E+004	1,9951288E+000	1,9945531E+000	2,273557174895346E-002	1,000000000000000E+000	-5,3586241E-002	41	4,5347304E-005
2	1	0	1	0	8,741010793628450E+004	2,0151205E+000	2,0145271E+000	2,093961755341739E-002	1,000000000000000E+000	-5,1399127E-002	41	4,2183427E-005
2	1	0	1	0	8,751006831262843E+004	2,0351119E+000	2,0345600E+000	1,937655224961343E-002	1,000000000000000E+000	-4,9379282E-002	41	3,9422757E-005
2	1	0	1	0	8,761002708897321E+004	2,0551038E+000	2,0545404E+000	1,792127047513412E-002	1,000000000000000E+000	-4,7510713E-002	41	3,6819973E-005
2	1	0	1	0	8,770998686532094E+004	2,0750957E+000	2,0745165E+000	1,657969664522421E-002	1,000000000000000E+000	-4,5782614E-002	41	3,4394856E-005
2	1	0	1	0	8,780994624168065E+004	2,0950875E+000	2,0944951E+000	1,530304771655711E-002	1,000000000000000E+000	-4,4184692E-002	41	3,2052158E-005
2	1	0	1	0	8,790990591804625E+004	2,1150796E+000	2,1145167E+000	1,416291823005816E-002	1,000000000000000E+000	-4,2706799E-002	41	2,9947727E-005
2	1	0	1	0	8,800986459441227E+004	2,1350713E+000	2,1344862E+000	1,309717346176897E-002	1,000000000000000E+000	-4,1340087E-002	41	2,7955735E-005
2	1	0	1	0	8,810982437077770E+004	2,1550634E+000	2,1545136E+000	1,211619803327813E-002	1,000000000000000E+000	-4,0075779E-002	41	2,6104513E-005
2	1	0	1	0	8,820978374713869E+004	2,1750550E+000	2,1744888E+000	1,125897747683944E-002	1,000000000000000E+000	-3,8903233E-002	41	2,4482521E-005
2	1	0	1	0	8,830974352348654E+004	2,1950469E+000	2,1944816E+000	1,050260449217316E-002	1,000000000000000E+000	-3,7811294E-002	41	2,3047773E-005
2	1	0	1	0	8,840970289982998E+004	2,2150388E+000	2,2144644E+000	9,876111908561858E-003	1,000000000000000E+000	-3,6787808E-002	41	2,1870299E-005
2	1	0	1	0	8,850966257617448E+004	2,2350304E+000	2,2344847E+000	9,358943159056776E-003	1,000000000000000E+000	-3,5821613E-002	41	2,0912415E-005
2	1	0	1	0	8,860962135251914E+004	2,2550223E+000	2,2544415E+000	8,889268370361567E-003	1,000000000000000E+000	-3,4905225E-002	41	2,0040336E-005
2	1	0	1	0	8,870958102887659E+004	2,2750142E+000	2,2744677E+000	8,459241872160475E-003	1,000000000000000E+000	-3,4033634E-002	41	1,9240273E-005
2	1	0	1	0	8,880954040524398E+004	2,2950058E+000	2,2944264E+000	8,096357942741841E-003	1,000000000000000E+000	-3,3200756E-002	41	1,8576498E-005
2	1	0	1	0	8,890950018160956E+004	2,3149979E+000	2,3144393E+000	7,801818550967468E-003	1,000000000000000E+000	-3,2401048E-002	41	1,8056835E-005
2	1	0	1	0	8,900945895797457E+004	2,3349898E+000	2,3344066E+000	7,561374475301617E-003	1,000000000000000E+000	-3,1627234E-002	41	1,7651322E-005
2	1	0	1	0	8,910941873433697E+004	2,3549817E+000	2,3544195E+000	7,330147439341315E-003	1,000000000000000E+000	-3,0877361E-002	41	1,7258242E-005
2	1	0	1	0	8,920937801068788E+004	2,3749735E+000	2,3744051E+000	7,156142539468412E-003	1,000000000000000E+000	-3,0147078E-002	41	1,6991582E-005
2	1	0	1	0	8,930933768703230E+004	2,3949654E+000	2,3944495E+000	6,999030530149095E-003	1,000000000000000E+000	-2,9433914E-002	41	1,6758824E-005
2	1	0	1	0	8,940929706337652E+004	2,4149573E+000	2,4144154E+000	6,881392972024877E-003	1,000000000000000E+000	-2,8734760E-002	41	1,6614540E-005
2	1	0	1	0	8,950925683972082E+004	2,4349489E+000	2,4344382E+000	6,787912023049535E-003	1,000000000000000E+000	-2,8046323E-002	41	1,6524753E-005
2	1	0	1	0	8,960921621607291E+004	2,4549408E+000	2,4543910E+000	6,731446215139464E-003	1,000000000000000E+000	-2,7365280E-002	41	1,6521601E-005
2	1	0	1	0	8,970917539244005E+004	2,4749327E+000	2,4743807E+000	6,683997435759863E-003	1,000000000000000E+000	-2,6688619E-002	41	1,6538754E-005
2	1	0	1	0	8,980913466880680E+004	2,4949245E+000	2,4944015E+000	6,629798914263248E-003	1,000000000000000E+000	-2,6017373E-002	41	1,6537380E-005
2	1	0	1	0	8,990909444517171E+004	2,5149164E+000	2,5143833E+000	6,559857821436449E-003	1,000000000000000E+000	-2,5352711E-002	41	1,6493997E-005
2	1	0	1	0	9,000905312153569E+004	2,5349081E+000	2,5343609E+000	6,477673383326665E-003	1,000000000000000E+000	-2,4696076E-002	41	1,6416761E-005
2	1	0	1	0	9,010901289788773E+004	2,5548999E+000	2,5543261E+000	6,391650939175850E-003	1,000000000000000E+000	-2,4048703E-002	41	1,6326361E-005
2	1	0	1	0	9,020897227423359E+004	2,5748918E+000	2,5743384E+000	6,331275538807690E-003	1,000000000000000E+000	-2,3407748E-002	41	1,6298845E-005
2	1	0	1	0	9,030893205057876E+004	2,5948837E+000	2,5943160E+000	6,251486294195072E-003	1,000000000000000E+000	-2,2774555E-002	41	1,6218331E-005
2	1	0	1	0	9,040889142692334E+004	2,6148758E+000	2,6143532E+000	6,208155227746967E-003	1,000000000000000E+000	-2,2146214E-002	41	1,6230309E-005
2	1	0	1	0	9,050885110327203E+004	2,6348677E+000	2,6343293E+000	6,200301875767429E-003	1,000000000000000E+000	-2,1520559E-002	41	1,6333637E-005
2	1	0	1	0	9,060880977963610E+004	2,6548591E+000	2,6543245E+000	6,214972965940632E-003	1,000000000000000E+000	-2,0894129E-002	41	1,6496555E-005
2	1	0	1	0	9,070876955600316E+004	2,6748512E+000	2,6742940E+000	6,243868093152929E-003	1,000000000000000E+000	-2,0265898E-002	41	1,6697939E-005
2	1	0	1	0	9,080872893236903E+004	2,6948428E+000	2,6943240E+000	6,308743066616468E-003	1,000000000000000E+000	-1,9633217E-002	41	1,6997798E-005
2	1	0	1	1	9,090219051026995E+004	2,6864464E+000	2,6858675E+000	3,287138628553959E-003	2,000000000000000E+000	-1,9195398E-002	42	8,8288189E-006
2	1	0	1	1	9,100214988661441E+004	2,6664546E+000	2,6659014E+000	2,003521142930485E-003	2,000000000000000E+000	-1,8943045E-002	42	5,3411900E-006
2	1	0	1	1	9,110210926295936E+004	2,6464627E+000	2,6459146E+000	1,231901371014693E-003	2,000000000000000E+000	-1,8790027E-002	42	3,2595058E-006
2	1	0	1	1	9,120206803930528E+004	2,6264710E+000	2,6259317E+000	6,945429821819775E-004	2,000000000000000E+000	-1,8701117E-002	42	1,8238225E-006
2	1	0	1	1	9,130202651565475E+004	2,6064792E+000	2,6058924E+000	3,035789675279658E-004	2,000000000000000E+000	-1,8657306E-002	43	7,9109412E-007
2	1	0	1	1	9,140198579201580E+004	2,5864873E+000	2,5859535E+000	2,146704842465795E-005	2,000000000000000E+000	-1,8646918E-002	44	5,5512789E-008
2	0	0	1	1	9,150194436838181E+004	2,5664954E+000	2,5659881E+000	-2,146268232598822E-004	2,000000000000000E+000	-1,8662672E-002	43	-5,5072985E-007
2	0	0	1	1	9,160190374474856E+004	2,5465038E+000	2,5460024E+000	-4,114486239588616E-004	2,000000000000000E+000	-1,8698841E-002	43	-1,0475492E-006
2	0	0	1	1	9,170186232111650E+004	2,5265114E+000	2,5260201E+000	-6,007978559648235E-004	2,000000000000000E+000	-1,8753646E-002	43	-1,5176274E-006
2	0	0	1	1	9,180182169747248E+004	2,5065196E+000	2,5060318E+000	-7,619215110233790E-004	2,000000000000000E+000	-1,8825468E-002	43	-1,9093995E-006
2	0	0	1	1	9,190177967381687E+004	2,4865279E+000	2,4859817E+000	-8,811626553267352E-004	2,000000000000000E+000	-1,8912733E-002	42	-2,1905541E-006
2	0	0	1	1	9,200173895016150E+004	2,4665363E+000	2,4659827E+000	-1,005494949509415E-003	2,000000000000000E+000	-1,9012891E-002	42	-2,4795331E-006
2	0	0	1	1	9,210169752650824E+004	2,4465442E+000	2,4459984E+000	-1,114727007250640E-003	2,000000000000000E+000	-1,9124780E-002	42	-2,7266206E-006
2	0	0	1	1	9,220165620285517E+004	2,4265528E+000	2,4260263E+000	-1,232598318186136E-003	2,000000000000000E+000	-1,9247428E-002	42	-2,9903160E-006
2	0	0	1	1	9,230161477921391E+004	2,4065607E+000	2,4060085E+000	-1,310765197377699E-003	2,000000000000000E+000	-1,9380283E-002	42	-3,1537122E-006
2	0	0	1	1	9,240157415557979E+004	2,3865685E+000	2,3860393E+000	-1,412446228971687E-003	2,000000000000000E+000	-1,9522801E-002	42	-3,3701522E-006
2	0	0	1	1	9,250153273194702E+004	2,3665767E+000	2,3660598E+000	-1,519263367075119E-003	2,000000000000000E+000	-1,9674929E-002	42	-3,5946680E-006
2	0	0	1	1	9,260149210831360E+004	2,3465850E+000	2,3460641E+000	-1,600284522350007E-003	2,000000000000000E+000	-1,9836888E-002	42	-3,7543700E-006
2	0	0	1	1	9,270145068467385E+004	2,3265929E+000	2,3260374E+000	-1,717787723760699E-003	2,000000000000000E+000	-2,0008871E-002	42	-3,9956385E-006
2	0	0	1	1	9,280140936101996E+004	2,3066013E+000	2,3060708E+000	-1,807900611988361E-003	2,000000000000000E+000	-2,0190928E-002	42	-4,1691469E-006
2	0	0	1	1	9,290136783736409E+004	2,2866096E+000	2,2860472E+000	-1,914674956284779E-003	2,000000000000000E+000	-2,0383796E-002	42	-4,3770374E-006
2	0	0	1	1	9,300132721370953E+004	2,2666175E+000	2,2660866E+000	-2,041079504385125E-003	2,000000000000000E+000	-2,0587729E-002	42	-4,6252630E-006
2	0	0	1	1	9,310128579005529E+004	2,2466257E+000	2,2460697E+000	-2,171874672980752E-003	2,000000000000000E+000	-2,0804115E-002	42	-4,8781817E-006
2	0	0	1	1	9,320124456641264E+004	2,2266340E+000	2,2261026E+000	-2,311946789575619E-003	2,000000000000000E+000	-2,1033611E-002	42	-5,1466309E-006
2	0	0	1	1	9,330120314277860E+004	2,2066422E+000	2,2061160E+000	-2,469497127116339E-003	2,000000000000000E+000	-2,1277780E-002	42	-5,4479970E-006
2	0	0	1	1	9,340116251914424E+004	2,1866503E+000	2,1861246E+000	-2,644992677341024E-003	2,000000000000000E+000	-2,1539323E-002	42	-5,7822836E-006
2	0	0	1	1	9,350112099551177E+004	2,1666582E+000	2,1661236E+000	-2,839408070670062E-003	2,000000000000000E+000	-2,1819385E-002	42	-6,1505089E-006
2	0	0	1	1	9,360108037187485E+004	2,1466663E+000	2,1461475E+000	-3,064295067403503E-003	2,000000000000000E+000	-2,2120595E-002	42	-6,5764293E-006
2	0	0	1	1	9,370103884822273E+004	2,1266747E+000	2,1261466E+000	-3,321762241541296E-003	2,000000000000000E+000	-2,2445250E-002	42	-7,0625533E-006
2	0	0	1	1	9,380099762456678E+004	2,1066828E+000	2,1061673E+000	-3,575783327513828E-003	2,000000000000000E+000	-2,2795690E-002	42	-7,5311978E-006
2	0	0	1	1	9,390095620091259E+004	2,0866911E+000	2,0861638E+000	-3,874498984236197E-003	2,000000000000000E+000	-2,3173714E-002	42	-8,0828395E-006
2	0	0	1	1	9,400091557725810E+004	2,0666990E+000	2,0661857E+000	-4,171490111837886E-003	2,000000000000000E+000	-2,3582393E-002	42	-8,6190730E-006
2	0	0	1	1	9,410087415361119E+004	2,0467074E+000	2,0461819E+000	-4,539973763176150E-003	2,000000000000000E+000	-2,4024397E-002	42	-9,2896125E-006
2	0	0	1	1	9,420083292997675E+004	2,0267155E+000	2,0262318E+000	-4,910202700789663E-003	2,000000000000000E+000	-2,4502162E-002	42	-9,9492090E-006
2	0	0	1	1	9,430079140634229E+004	2,0067236E+000	2,0061979E+000	-5,300510588601079E-003	2,000000000000000E+000	-2,5017716E-002	42	-1,0633873E-005
2	0	0	1	1	9,440075098270900E+004	1,9867319E+000	1,9862161E+000	-5,724312939075507E-003	2,000000000000000E+000	-2,5574803E-002	42	-1,1369722E-005
2	0	0	1	1	9,450071015907405E+004	1,9667400E+000	1,9662517E+000	-6,193722797066051E-003	2,000000000000000E+000	-2,6177047E-002	42	-1,2178418E-005
2	0	0	1	1	9,460066953542503E+004	1,9467484E+000	1,9462512E+000	-6,706097358188667E-003	2,000000000000000E+000	-2,6827864E-002	42	-1,3051750E-005
2	0	0	1	1	9,470062841177033E+004	1,9267565E+000	1,9262707E+000	-7,227650892168837E-003	2,000000000000000E+000	-2,7530890E-002	42	-1,3922412E-005
2	0	0	1	1	9,480058748811472E+004	1,9067647E+000	1,9062649E+000	-7,822076017282256E-003	2,000000000000000E+000	-2,8290464E-002	42	-1,4910949E-005
2	0	0	1	1	9,490054666445972E+004	1,8867726E+000	1,8863109E+000	-8,423180414981843E-003	2,000000000000000E+000	-2,9108541E-002	42	-1,5888738E-005
2	0	0	1	1	9,500050594081101E+004	1,8667809E+000	1,8662939E+000	-9,058742839545386E-003	2,000000000000000E+000	-2,9987440E-002	42	-1,6906277E-005
2	0	0	1	1	9,510046501717507E+004	1,8467889E+000	1,8463700E+000	-9,693711747547462E-003	2,000000000000000E+000	-3,0930221E-002	42	-1,7898179E-005
2	0	0	1	1	9,520042409354006E+004	1,8267972E+000	1,8262191E+000	-1,044352278554829E-002	2,000000000000000E+000	-3,1944346E-002	41	-1,9072160E-005
2	0	0	1	1	9,530038296990594E+004	1,8068054E+000	1,8062580E+000	-1,115022752186051E-002	2,000000000000000E+000	-3,3029348E-002	41	-2,0140187E-005
2	0	0	1	1	9,540034234627290E+004	1,7868136E+000	1,7862413E+000	-1,195894954409302E-002	2,000000000000000E+000	-3,4191050E-002	41	-2,1361569E-005
2	0	0	1	1	9,550030152262747E+004	1,7668216E+000	1,7662660E+000	-1,281620388155529E-002	2,000000000000000E+000	-3,5434887E-002	41	-2,2636825E-005
2	0	0	1	1	9,560026059897244E+004	1,7468299E+000	1,7462451E+000	-1,371389607861730E-002	2,000000000000000E+000	-3,6766656E-002	41	-2,3947825E-005
2	0	0	1	1	9,570021967531723E+004	1,7268380E+000	1,7262666E+000	-1,474552279289604E-002	2,000000000000000E+000	-3,8195875E-002	41	-2,5454703E-005
2	0	0	1	1	9,580017865166080E+004	1,7068461E+000	1,7062855E+000	-1,587290196895136E-002	2,000000000000000E+000	-3,9730877E-002	41	-2,7083703E-005
2	0	0	1	1	9,590013782800990E+004	1,6868544E+000	1,6863197E+000	-1,716326963214146E-002	2,000000000000000E+000	-4,1387200E-002	41	-2,8942759E-005
2	0	0	1	1	9,600009720437229E+004	1,6668625E+000	1,6662917E+000	-1,866289584681670E-002	2,000000000000000E+000	-4,3181963E-002	41	-3,1097828E-005
2	0	0	1	1	9,610005638073757E+004	1,6468705E+000	1,6463102E+000	-2,046935254912593E-002	2,000000000000000E+000	-4,5139804E-002	41	-3,3698903E-005
2	0	0	1	1	9,620001575710331E+004	1,6268786E+000	1,6262993E+000	-2,275651589166050E-002	2,000000000000000E+000	-4,7301427E-002	41	-3,7008904E-005
2	0	0	1	1	9,629997463346994E+004	1,6068870E+000	1,6063367E+000	-2,581805039038659E-002	2,000000000000000E+000	-4,9730025E-002	41	-4,1472482E-005
2	0	0	1	1	9,639993360982928E+004	1,5868950E+000	1,5863377E+000	-3,027787819468304E-002	2,000000000000000E+000	-5,2526675E-002	41	-4,8030939E-005
2	0	0	1	1	9,649989268617518E+004	1,5669032E+000	1,5663539E+000	-3,620008109857087E-002	2,000000000000000E+000	-5,5836655E-002	41	-5,6702138E-005
2	0	0	1	1	9,659985206251970E+004	1,5469115E+000	1,5463594E+000	-4,570303582337987E-002	2,000000000000000E+000	-5,9894726E-002	41	-7,0673319E-005
2	0	0	1	1	9,669981093886297E+004	1,5269196E+000	1,5264226E+000	-6,139043475545369E-002	2,000000000000000E+000	-6,5208927E-002	41	-9,3707749E-005
2	0	0	1	1	9,679977031520917E+004	1,5069276E+000	1,5064166E+000	-7,840378758352151E-002	2,000000000000000E+000	-7,2229117E-002	41	-1,1810876E-004
2	0	0	1	1	9,689972919156984E+004	1,4869359E+000	1,4864537E+000	-9,005516229292376E-002	2,000000000000000E+000	-8,0714308E-002	41	-1,3386282E-004
2	0	0	1	1	9,699968856793537E+004	1,4669440E+000	1,4664662E+000	-9,348397804352504E-002	2,000000000000000E+000	-8,9969479E-002	41	-1,3709109E-004
2	0	0	1	1	9,709964764430112E+004	1,4469521E+000	1,4464531E+000	-8,875171029616613E-002	2,000000000000000E+000	-9,9137343E-002	41	-1,2837519E-004
2	0	0	1	1	9,719960662066657E+004	1,4269605E+000	1,4264394E+000	-7,972828078026817E-002	2,000000000000000E+000	-1,0757581E-001	41	-1,1372756E-004
2	0	0	1	1	9,729956579702813E+004	1,4069685E+000	1,4064512E+000	-7,106285793010780E-002	2,000000000000000E+000	-1,1510527E-001	41	-9,9946446E-005
2	0	0	1	1	9,739952487337717E+004	1,3869766E+000	1,3864552E+000	-6,394221760753482E-002	2,000000000000000E+000	-1,2184656E-001	41	-8,8653018E-005
2	0	0	1	1	9,749948404972150E+004	1,3669847E+000	1,3664314E+000	-5,808127035852317E-002	2,000000000000000E+000	-1,2794265E-001	41	-7,9364072E-005
2	0	0	1	1	9,759944342606550E+004	1,3469929E+000	1,3464381E+000	-5,318252029629442E-002	2,000000000000000E+000	-1,3350208E-001	41	-7,1606970E-005
2	0	0	1	1	9,769940230241045E+004	1,3270011E+000	1,3264761E+000	-4,894887315233354E-002	2,000000000000000E+000	-1,3860662E-001	41	-6,4929511E-005
2	0	0	1	1	9,779936127876688E+004	1,3070093E+000	1,3064662E+000	-4,539902866207313E-002	2,000000000000000E+000	-1,4332420E-001	41	-5,9312297E-005
2	0	0	1	1	9,789932035513312E+004	1,2870173E+000	1,2864997E+000	-4,236082414811954E-002	2,000000000000000E+000	-1,4771189E-001	41	-5,4497188E-005
2	0	0	1	1	9,799927973149880E+004	1,2670256E+000	1,2664273E+000	-3,987580203464527E-002	2,000000000000000E+000	-1,5182318E-001	41	-5,0499802E-005
2	0	0	1	1	9,809923860786459E+004	1,2470337E+000	1,2464639E+000	-3,774932152626320E-002	2,000000000000000E+000	-1,5570544E-001	41	-4,7053167E-005
2	0	0	1	1	9,819919798422745E+004	1,2270418E+000	1,2264751E+000	-3,603703553927426E-002	2,000000000000000E+000	-1,5939617E-001	41	-4,4198528E-005
2	0	0	1	1	9,829915686057886E+004	1,2070501E+000	1,2064860E+000	-3,468096192125164E-002	2,000000000000000E+000	-1,6293329E-001	41	-4,1842093E-005
2	0	0	1	1	9,839911623692396E+004	1,1870583E+000	1,1864709E+000	-3,364921443199453E-002	2,000000000000000E+000	-1,6635214E-001	41	-3,9923812E-005
2	0	0	1	1	9,849907531326800E+004	1,1670663E+000	1,1664871E+000	-3,291789512912763E-002	2,000000000000000E+000	-1,6968250E-001	41	-3,8398299E-005
2	0	0	1	1	9,859903438961320E+004	1,1470745E+000	1,1464888E+000	-3,247309131443060E-002	2,000000000000000E+000	-1,7295574E-001	41	-3,7230035E-005
2	0	0	1	1	9,869899316596496E+004	1,1270826E+000	1,1264997E+000	-3,237224083600515E-002	2,000000000000000E+000	-1,7620237E-001	41	-3,6467318E-005
2	0	0	1	1	9,879895254232956E+004	1,1070907E+000	1,1065130E+000	-3,256172474833718E-002	2,000000000000000E+000	-1,7945172E-001	41	-3,6029971E-005
2	0	0	1	1	9,889891171869636E+004	1,0870990E+000	1,0865149E+000	-3,303494040626742E-002	2,000000000000000E+000	-1,8273421E-001	41	-3,5892957E-005
2	0	0	1	1	9,899887109506223E+004	1,0671071E+000	1,0665470E+000	-3,379382704055223E-002	2,000000000000000E+000	-1,8607855E-001	41	-3,6042708E-005
2	0	0	1	1	9,909882997142710E+004	1,0471152E+000	1,0465196E+000	-3,482674550302589E-002	2,000000000000000E+000	-1,8951261E-001	41	-3,6446872E-005
2	0	0	1	1	9,919878894778041E+004	1,0271233E+000	1,0265349E+000	-3,610735116794028E-002	2,000000000000000E+000	-1,9306189E-001	41	-3,7065456E-005
2	0	0	1	1	9,929874812412611E+004	1,0071316E+000	1,0065506E+000	-3,762019216663237E-002	2,000000000000000E+000	-1,9675104E-001	41	-3,7866626E-005
2	0	0	1	1	9,939221100199557E+004	1,0115297E+000	1,0109330E+000	-2,293959035494356E-002	2,000000000000000E+000	-1,9976072E-001	41	-2,3190390E-005
2	0	0	1	1	9,949217027834582E+004	1,0315216E+000	1,0309092E+000	-1,360499022309523E-002	2,000000000000000E+000	-2,0152098E-001	41	-1,4025510E-005
2	0	0	1	1	9,959212965470902E+004	1,0515133E+000	1,0508809E+000	-8,379569652290503E-003	2,000000000000000E+000	-2,0259093E-001	41	-8,8059296E-006
2	0	0	1	1	9,969208903107559E+004	1,0715053E+000	1,0709629E+000	-4,823901195604326E-003	2,000000000000000E+000	-2,0323406E-001	42	-5,1662191E-006
2	0	0	1	1	9,979204840744287E+004	1,0914972E+000	1,0909340E+000	-2,352528608194612E-003	2,000000000000000E+000	-2,0358092E-001	42	-2,5664535E-006
2	0	0	1	1	9,989200788380866E+004	1,1114891E+000	1,1109416E+000	-4,165903118907815E-004	2,000000000000000E+000	-2,0371021E-001	43	-4,6280752E-007
2	1	0	1	1	9,999196726016141E+004	1,1314808E+000	1,1309104E+000	1,080436667654946E-003	2,000000000000000E+000	-2,0367268E-001	42	1,2218770E-006
2	1	0	1	1	1,000919270365057E+005	1,1514727E+000	1,1508458E+000	2,271915516103496E-003	2,000000000000000E+000	-2,0349845E-001	42	2,6146245E-006
2	1	0	1	1	1,001918860128517E+005	1,1714644E+000	1,1708311E+000	3,301879401823029E-003	2,000000000000000E+000	-2,0321204E-001	42	3,8659432E-006
2	1	0	1	1	1,002918456891972E+005	1,1914564E+000	1,1908299E+000	4,183727258629647E-003	2,000000000000000E+000	-2,0282975E-001	42	4,9821074E-006
2	1	0	1	1	1,003918047655452E+005	1,2114482E+000	1,2107981E+000	4,983515345721709E-003	2,000000000000000E+000	-2,0236458E-001	42	6,0340312E-006
2	1	0	1	1	1,004917645419055E+005	1,2314401E+000	1,2307903E+000	5,677976776664442E-003	2,000000000000000E+000	-2,0182531E-001	42	6,9883986E-006
2	1	0	1	1	1,005917239182713E+005	1,2514318E+000	1,2507591E+000	6,320060390851159E-003	2,000000000000000E+000	-2,0121865E-001	42	7,9048732E-006
2	1	0	1	1	1,006916833946393E+005	1,2714237E+000	1,2707738E+000	6,919693665115501E-003	2,000000000000000E+000	-2,0055096E-001	42	8,7933649E-006
2	1	0	1	1	1,007916424710061E+005	1,2914156E+000	1,2907931E+000	7,488471594996160E-003	2,000000000000000E+000	-1,9982505E-001	42	9,6660669E-006
2	1	0	1	1	1,008916021473634E+005	1,3114073E+000	1,3107694E+000	8,012413831091955E-003	2,000000000000000E+000	-1,9904518E-001	42	1,0502427E-005
2	1	0	1	1	1,009915614237079E+005	1,3313993E+000	1,3307236E+000	8,506895753099528E-003	2,000000000000000E+000	-1,9821377E-001	42	1,1320328E-005
2	1	0	1	1	1,010915209000523E+005	1,3513911E+000	1,3506985E+000	8,980185656118619E-003	2,000000000000000E+000	-1,9733253E-001	42	1,2129523E-005
2	1	0	1	1	1,011914802763979E+005	1,3713831E+000	1,3707165E+000	9,488238602123139E-003	2,000000000000000E+000	-1,9640267E-001	42	1,3005685E-005
2	1	0	1	1	1,012914397527450E+005	1,3913748E+000	1,3907964E+000	1,000394859548323E-002	2,000000000000000E+000	-1,9542418E-001	41	1,3913456E-005
2	1	0	1	1	1,013913991291031E+005	1,4113666E+000	1,4107467E+000	1,044263146316486E-002	2,000000000000000E+000	-1,9439684E-001	41	1,4731908E-005
2	1	0	1	1	1,014913588054684E+005	1,4313586E+000	1,4307351E+000	1,096254361461038E-002	2,000000000000000E+000	-1,9332020E-001	41	1,5684496E-005
2	1	0	1	1	1,015913177818351E+005	1,4513503E+000	1,4507281E+000	1,150100005332860E-002	2,000000000000000E+000	-1,9219135E-001	41	1,6684824E-005
2	1	0	1	1	1,016912775582017E+005	1,4713422E+000	1,4707099E+000	1,206248741009774E-002	2,000000000000000E+000	-1,9100800E-001	41	1,7740420E-005
2	1	0	1	1	1,017912366345627E+005	1,4913341E+000	1,4907516E+000	1,267837209467604E-002	2,000000000000000E+000	-1,8976572E-001	41	1,8900304E-005
2	1	0	1	1	1,018911964109099E+005	1,5113260E+000	1,5106831E+000	1,331419055588337E-002	2,000000000000000E+000	-1,8846145E-001	41	2,0113523E-005
2	1	0	1	1	1,019911557872535E+005	1,5313177E+000	1,5306822E+000	1,419770789059660E-002	2,000000000000000E+000	-1,8708174E-001	41	2,1732179E-005
2	1	0	1	1	1,020911152635987E+005	1,5513096E+000	1,5506840E+000	1,572496274581377E-002	2,000000000000000E+000	-1,8558674E-001	41	2,4384448E-005
2	1	0	1	1	1,021910742399450E+005	1,5713013E+000	1,5706505E+000	1,871957480041081E-002	2,000000000000000E+000	-1,8388835E-001	41	2,9401908E-005
2	1	0	1	1	1,022910339163006E+005	1,5912933E+000	1,5906148E+000	3,469398164973869E-002	2,000000000000000E+000	-1,8136610E-001	41	5,5184759E-005
2	1	0	1	1	1,023909932926662E+005	1,6112851E+000	1,6105990E+000	5,872917640572917E-002	2,000000000000000E+000	-1,7668445E-001	41	9,4589159E-005
2	1	0	1	1	1,024909527690317E+005	1,6312770E+000	1,6305795E+000	7,941803435865213E-002	2,000000000000000E+000	-1,6972414E-001	41	1,2949742E-004
2	1	0	1	1	1,025909121453979E+005	1,6512690E+000	1,6505585E+000	9,332582476197193E-002	2,000000000000000E+000	-1,6102253E-001	41	1,5403974E-004
2	1	0	1	1	1,026908716217617E+005	1,6712606E+000	1,6705462E+000	9,962885284946132E-002	2,000000000000000E+000	-1,5130684E-001	41	1,6643461E-004
2	1	0	1	1	1,027908311981116E+005	1,6912525E+000	1,6905495E+000	9,813417637719557E-002	2,000000000000000E+000	-1,4135370E-001	41	1,6590068E-004
2	1	0	1	1	1,028907906744559E+005	1,7112445E+000	1,7105483E+000	9,070427602193687E-002	2,000000000000000E+000	-1,3187371E-001	41	1,5515405E-004
2	1	0	1	1	1,029907499508001E+005	1,7312362E+000	1,7305710E+000	8,131024243561187E-002	2,000000000000000E+000	-1,2326877E-001	41	1,4071315E-004
2	1	0	1	1	1,030907097271455E+005	1,7512280E+000	1,7505457E+000	7,263343064939373E-002	2,000000000000000E+000	-1,1557945E-001	41	1,2714815E-004
2	1	0	1	1	1,031906688034979E+005	1,7712200E+000	1,7705628E+000	6,494785904359895E-002	2,000000000000000E+000	-1,0870614E-001	41	1,1499426E-004
2	1	0	1	1	1,032906282798629E+005	1,7912116E+000	1,7905473E+000	5,807339369796344E-002	2,000000000000000E+000	-1,0255682E-001	41	1,0398315E-004
2	1	0	1	1	1,033905876562289E+005	1,8112036E+000	1,8105637E+000	5,190680149346077E-002	2,000000000000000E+000	-9,7059250E-002	41	9,3980569E-005
2	1	0	1	1	1,034905473325941E+005	1,8311954E+000	1,8305801E+000	4,635149292988244E-002	2,000000000000000E+000	-9,2149623E-002	41	8,4850122E-005
2	1	0	1	1	1,035905066089600E+005	1,8511873E+000	1,8505636E+000	4,141681728083679E-002	2,000000000000000E+000	-8,7764129E-002	41	7,6644457E-005
2	1	0	1	1	1,036904660853134E+005	1,8711791E+000	1,8705629E+000	3,696495198937033E-002	2,000000000000000E+000	-8,3847307E-002	41	6,9145266E-005
2	1	0	1	1	1,037904251616579E+005	1,8911711E+000	1,8905514E+000	3,310982069676355E-002	2,000000000000000E+000	-8,0345705E-002	41	6,2595820E-005
2	1	0	1	1	1,038903849380023E+005	1,9111627E+000	1,9105510E+000	2,980178820339074E-002	2,000000000000000E+000	-7,7198811E-002	41	5,6937835E-005
2	1	0	1	1	1,039903443143471E+005	1,9311547E+000	1,9305382E+000	2,696456652087453E-002	2,000000000000000E+000	-7,4359074E-002	41	5,2056126E-005
2	1	0	1	1	1,040903037906965E+005	1,9511467E+000	1,9505543E+000	2,462719764013399E-002	2,000000000000000E+000	-7,1783476E-002	41	4,8036683E-005
2	1	0	1	1	1,041902630670599E+005	1,9711382E+000	1,9705452E+000	2,253738239446128E-002	2,000000000000000E+000	-6,9412820E-002	41	4,4410932E-005
2	1	0	1	1	1,042902224434260E+005	1,9911304E+000	1,9905823E+000	2,053052113720738E-002	2,000000000000000E+000	-6,7256361E-002	41	4,0867693E-005
2	1	0	1	1	1,043901821197912E+005	2,0111217E+000	2,0105500E+000	1,877221586243361E-002	2,000000000000000E+000	-6,5287136E-002	41	3,7742480E-005
2	1	0	1	1	1,044901424961577E+005	2,0311136E+000	2,0305486E+000	1,717256253079885E-002	2,000000000000000E+000	-6,3483022E-002	41	3,4869721E-005
2	1	0	1	1	1,045901012725145E+005	2,0511055E+000	2,0505366E+000	1,579508050462330E-002	2,000000000000000E+000	-6,1830126E-002	41	3,2388391E-005
2	1	0	1	1	1,046900610488588E+005	2,0710976E+000	2,0705230E+000	1,453560861055583E-002	2,000000000000000E+000	-6,0309429E-002	41	3,0096313E-005
2	1	0	1	1	1,047900203252032E+005	2,0910892E+000	2,0905149E+000	1,395249912007673E-002	2,000000000000000E+000	-5,8904577E-002	41	2,9167908E-005
2	1	0	1	1	1,048899800015478E+005	2,1110809E+000	2,1105216E+000	1,250642575227037E-002	2,000000000000000E+000	-5,7587259E-002	41	2,6395081E-005
2	1	0	1	1	1,049899393778952E+005	2,1310730E+000	2,1305003E+000	1,159274055734733E-002	2,000000000000000E+000	-5,6378011E-002	41	2,4698338E-005
2	1	0	1	1	1,050898991542563E+005	2,1510649E+000	2,1505055E+000	1,080135285346789E-002	2,000000000000000E+000	-5,5253953E-002	41	2,3228369E-005
2	1	0	1	1	1,051898585306228E+005	2,1710565E+000	2,1704950E+000	1,015864470568198E-002	2,000000000000000E+000	-5,4201175E-002	41	2,2049288E-005
2	1	0	1	1	1,052898177069880E+005	2,1910484E+000	2,1904964E+000	9,576186176215418E-003	2,000000000000000E+000	-5,3210899E-002	41	2,0976602E-005
2	1	0	1	1	1,053897770833541E+005	2,2110403E+000	2,2104523E+000	9,098810351157477E-003	2,000000000000000E+000	-5,2271422E-002	41	2,0112486E-005
2	1	0	1	1	1,054897367597141E+005	2,2310321E+000	2,2304811E+000	8,680949956478484E-003	2,000000000000000E+000	-5,1377211E-002	41	1,9362695E-005
2	1	0	1	1	1,055896954360605E+005	2,2510240E+000	2,2504425E+000	8,297724470375731E-003	2,000000000000000E+000	-5,0522588E-002	41	1,8673552E-005
2	1	0	1	1	1,056896552124051E+005	2,2710161E+000	2,2704334E+000	7,950925088283434E-003	2,000000000000000E+000	-4,9704645E-002	41	1,8052046E-005
2	1	0	1	1	1,057896145887498E+005	2,2910078E+000	2,2904465E+000	7,660007987260891E-003	2,000000000000000E+000	-4,8918977E-002	41	1,7544839E-005
2	1	0	1	1	1,058895743650938E+005	2,3109994E+000	2,3104360E+000	7,402337272094078E-003	2,000000000000000E+000	-4,8160974E-002	41	1,7102626E-005
2	1	0	1	1	1,059895337414527E+005	2,3309915E+000	2,3304024E+000	7,187050316369339E-003	2,000000000000000E+000	-4,7425888E-002	41	1,6748720E-005
2	1	0	1	1	1,060894934178195E+005	2,3509831E+000	2,3504224E+000	6,999778373306648E-003	2,000000000000000E+000	-4,6710897E-002	41	1,6452435E-005
2	1	0	1	1	1,061894526941848E+005	2,3709753E+000	2,3703721E+000	6,841979068862795E-003	2,000000000000000E+000	-4,6013363E-002	41	1,6218037E-005
2	1	0	1	1	1,062894118705506E+005	2,3909669E+000	2,3903928E+000	6,747665170933406E-003	2,000000000000000E+000	-4,5328867E-002	41	1,6129570E-005
2	1	0	1	1	1,063893712469118E+005	2,4109585E+000	2,4103980E+000	6,623973447675971E-003	2,000000000000000E+000	-4,4655386E-002	41	1,5966412E-005
2	1	0	1	1	1,064893310232617E+005	2,4309506E+000	2,4303951E+000	6,558441519481342E-003	2,000000000000000E+000	-4,3990728E-002	41	1,5939604E-005
2	1	0	1	1	1,065892897996076E+005	2,4509425E+000	2,4503622E+000	6,533503390241252E-003	2,000000000000000E+000	-4,3330938E-002	41	1,6009450E-005
2	1	0	1	1	1,066892495759517E+005	2,4709342E+000	2,4703879E+000	6,489880059174877E-003	2,000000000000000E+000	-4,2673815E-002	41	1,6032522E-005
2	1	0	1	1	1,067892088522960E+005	2,4909263E+000	2,4903433E+000	6,453863140250829E-003	2,000000000000000E+000	-4,2020362E-002	41	1,6072336E-005
2	1	0	1	1	1,068891685286488E+005	2,5109181E+000	2,5103428E+000	6,401787699195277E-003	2,000000000000000E+000	-4,1371871E-002	41	1,6070682E-005
2	1	0	1	1	1,069891279050163E+005	2,5309098E+000	2,5303068E+000	6,314917270338241E-003	2,000000000000000E+000	-4,0730264E-002	41	1,5978678E-005
2	1	0	1	1	1,070890876813822E+005	2,5509019E+000	2,5503180E+000	6,223349036188916E-003	2,000000000000000E+000	-4,0097047E-002	41	1,5871519E-005
2	1	0	1	1	1,071890464577481E+005	2,5708933E+000	2,5703189E+000	6,156087369370143E-003	2,000000000000000E+000	-3,9472707E-002	41	1,5823109E-005
2	1	0	1	1	1,072890062341113E+005	2,5908854E+000	2,5902934E+000	6,095660205649708E-003	2,000000000000000E+000	-3,8854871E-002	41	1,5789548E-005
2	1	0	1	1	1,073889655104622E+005	2,6108773E+000	2,6102824E+000	6,074327493921311E-003	2,000000000000000E+000	-3,8240317E-002	41	1,5855710E-005
2	1	0	1	1	1,074889251868085E+005	2,6308692E+000	2,6303115E+000	6,093936780578041E-003	2,000000000000000E+000	-3,7625797E-002	41	1,6028953E-005
2	1	0	1	1	1,075888839631537E+005	2,6508608E+000	2,6502800E+000	6,121489885930920E-003	2,000000000000000E+000	-3,7009161E-002	41	1,6223663E-005
2	1	0	1	1	1,076888437394974E+005	2,6708527E+000	2,6703150E+000	6,179142373850928E-003	2,000000000000000E+000	-3,6388107E-002	41	1,6500257E-005
2	1	0	1	1	1,077888031158476E+005	2,6908445E+000	2,6902921E+000	6,269569424905579E-003	2,000000000000000E+000	-3,5760790E-002	41	1,6866974E-005
2	1	0	1	0	1,078822692937595E+005	2,7095370E+000	2,7089827E+000	6,363799957902538E-003	2,000000000000000E+000	-3,5165649E-002	41	1,7239425E-005
2	1	0	1	0	1,079822286701268E+005	2,7295287E+000	2,7289746E+000	6,520998072239409E-003	2,000000000000000E+000	-3,4516685E-002	41	1,7795637E-005
2	1	0	0	0	1,080429767557423E+005	2,7417748E+000	2,7411919E+000	6,895597480858363E-003	2,000000000000000E+000	-3,4113195E-002	41	1,8902156E-005