File: Dati/210311/CV_LTO_MX_10 layer_grafite nuova_0.1_1mVs_10_CV_C03.mpt
EC-Lab ASCII FILE
Nb header lines : 57

Cyclic Voltammetry

Run on channel : 3 (SN 6807)
User :
Electrode connection : standard
Ewe ctrl range : min = 0,00 V, max = 5,00 V
Ewe,I filtering : 50 kHz
Safety Limits :
	Do not start on E overload
Channel : Grounded
Acquisition started on : 03/11/2021 17:24:33
Saved on :
	File : CV_LTO_MX_10 layer_grafite nuova_0.1_1mVs_10_CV_C03.mpr
	Directory : C:\Users\labsuperfici\Desktop\Biologic\Users\Prisca Viviani\210311\
	Host : 169.254.114.127
Device : VSP-300 (SN 0638)
Address : USB
EC-Lab for windows v11.31 (software)
Internet server v11.30 (firmware)
Command interpretor v11.31 (firmware)
Electrode material :
Initial state :
Electrolyte :
Comments :
Cable : standard
Reference electrode : SCE Saturated Calomel Electrode (0,241 V)
Electrode surface area : 0,001 cm²
Characteristic mass : 0,001 g
Equivalent Weight : 0,000 g/eq.
Density : 0,000 g/cm3
Cycle Definition : Charge/Discharge alternance
Ei (V)              0,000
vs.                 Eoc
dE/dt               1,000
dE/dt unit          mV/s
E1 (V)              1,000
vs.                 Ref
Step percent        50
N                   10
E range min (V)     0,000
E range max (V)     5,000
I Range             Auto
I Range min         Unset
I Range max         Unset
I Range init        Unset
Bandwidth           8
E2 (V)              3,000
vs.                 Ref
nc cycles           0
Reverse Scan        1
Ef (V)              0,000
vs.                 Eoc

mode	ox/red	error	control changes	counter inc.	time/s	control/V	Ewe/V	<I>/mA	cycle number	(Q-Qo)/C	I Range	P/W
2	0	0	1	0	1,131612477450725E+005	1,7222385E+000	1,7217463E+000	-3,943878039717674E-002	1,000000000000000E+000	0,0000000E+000	41	-6,7903573E-005
2	0	0	1	0	1,131727931423208E+005	1,7106928E+000	1,7101325E+000	-3,763280631903720E-002	1,000000000000000E+000	-4,2506310E-004	41	-6,4357082E-005
2	0	0	1	0	1,131847884394791E+005	1,6986971E+000	1,6981893E+000	-3,964650284447996E-002	1,000000000000000E+000	-8,8941935E-004	41	-6,7327266E-005
2	0	0	1	0	1,131967836366636E+005	1,6867019E+000	1,6861843E+000	-4,167299926763146E-002	1,000000000000000E+000	-1,3779198E-003	41	-7,0268354E-005
2	0	0	1	0	1,132087789338408E+005	1,6747069E+000	1,6741871E+000	-4,368347378661996E-002	1,000000000000000E+000	-1,8906365E-003	41	-7,3134310E-005
2	0	0	1	0	1,132207741309805E+005	1,6627117E+000	1,6621722E+000	-4,572327420514372E-002	1,000000000000000E+000	-2,4275768E-003	41	-7,5999953E-005
2	0	0	1	0	1,132327693281216E+005	1,6507165E+000	1,6501906E+000	-4,784716721697529E-002	1,000000000000000E+000	-2,9894465E-003	41	-7,8956946E-005
2	0	0	1	0	1,132447644253058E+005	1,6387216E+000	1,6382017E+000	-5,010176153296647E-002	1,000000000000000E+000	-3,5775930E-003	41	-8,2076789E-005
2	0	0	1	0	1,132567596224900E+005	1,6267264E+000	1,6262057E+000	-5,248605922297983E-002	1,000000000000000E+000	-4,1936194E-003	41	-8,5353131E-005
2	0	0	1	0	1,132687548196407E+005	1,6147312E+000	1,6142182E+000	-5,505385829346654E-002	1,000000000000000E+000	-4,8392657E-003	41	-8,8868939E-005
2	0	0	1	0	1,132807501167804E+005	1,6027356E+000	1,6022431E+000	-5,776638277702695E-002	1,000000000000000E+000	-5,5166557E-003	41	-9,2555783E-005
2	0	0	1	0	1,132927453139471E+005	1,5907406E+000	1,5901936E+000	-6,069009598447384E-002	1,000000000000000E+000	-6,2278332E-003	41	-9,6509008E-005
2	0	0	1	0	1,133047405111326E+005	1,5787454E+000	1,5782318E+000	-6,379482186086968E-002	1,000000000000000E+000	-6,9750235E-003	41	-1,0068302E-004
2	0	0	1	0	1,133167357083000E+005	1,5667499E+000	1,5662522E+000	-6,708333724470961E-002	1,000000000000000E+000	-7,7607003E-003	41	-1,0506943E-004
2	0	0	1	0	1,133287309054409E+005	1,5547550E+000	1,5542570E+000	-7,059320489379739E-002	1,000000000000000E+000	-8,5870884E-003	41	-1,0971999E-004
2	0	0	1	0	1,133407261025893E+005	1,5427597E+000	1,5422595E+000	-7,432393903471302E-002	1,000000000000000E+000	-9,4570108E-003	41	-1,1462680E-004
2	0	0	1	0	1,133527212997735E+005	1,5307646E+000	1,5302557E+000	-7,832285406956663E-002	1,000000000000000E+000	-1,0373194E-002	41	-1,1985399E-004
2	0	0	1	0	1,133647163969590E+005	1,5187694E+000	1,5182918E+000	-8,253143322586132E-002	1,000000000000000E+000	-1,1338615E-002	41	-1,2530680E-004
2	0	0	1	0	1,133767115941001E+005	1,5067743E+000	1,5062932E+000	-8,701166181780295E-002	1,000000000000000E+000	-1,2356134E-002	41	-1,3106507E-004
2	0	0	1	0	1,133887067912407E+005	1,4947790E+000	1,4943002E+000	-9,174543430127025E-002	1,000000000000000E+000	-1,3428960E-002	41	-1,3709522E-004
2	0	0	1	0	1,134007019884160E+005	1,4827838E+000	1,4823221E+000	-9,668309478316917E-002	1,000000000000000E+000	-1,4559765E-002	41	-1,4331548E-004
2	0	0	1	0	1,134126971856002E+005	1,4707886E+000	1,4703287E+000	-1,018488167793314E-001	1,000000000000000E+000	-1,5751237E-002	41	-1,4975124E-004
2	0	0	1	0	1,134246923827603E+005	1,4587935E+000	1,4582380E+000	-1,073379097727081E-001	1,000000000000000E+000	-1,7007297E-002	40	-1,5652421E-004
2	0	0	1	0	1,134366876799001E+005	1,4467981E+000	1,4462219E+000	-1,128498289551789E-001	1,000000000000000E+000	-1,8328825E-002	40	-1,6320590E-004
2	0	0	1	0	1,134486828770568E+005	1,4348028E+000	1,4342121E+000	-1,185021570821521E-001	1,000000000000000E+000	-1,9717364E-002	40	-1,6995723E-004
2	0	0	1	0	1,134606780742422E+005	1,4228077E+000	1,4222059E+000	-1,240932886918333E-001	1,000000000000000E+000	-2,1173304E-002	40	-1,7648621E-004
2	0	0	1	0	1,134726732714190E+005	1,4108124E+000	1,4102366E+000	-1,296439427959859E-001	1,000000000000000E+000	-2,2696065E-002	40	-1,8282863E-004
2	0	0	1	0	1,134846684685592E+005	1,3988173E+000	1,3982369E+000	-1,350606821301592E-001	1,000000000000000E+000	-2,4284953E-002	40	-1,8884683E-004
2	0	0	1	0	1,134966636656995E+005	1,3868221E+000	1,3862576E+000	-1,402898103094889E-001	1,000000000000000E+000	-2,5937421E-002	40	-1,9447782E-004
2	0	0	1	0	1,135086588628828E+005	1,3748268E+000	1,3742528E+000	-1,452859552388626E-001	1,000000000000000E+000	-2,7651452E-002	40	-1,9965963E-004
2	0	0	1	0	1,135206540600678E+005	1,3628317E+000	1,3622748E+000	-1,500463282506659E-001	1,000000000000000E+000	-2,9424088E-002	40	-2,0440432E-004
2	0	0	1	0	1,135326492572180E+005	1,3508364E+000	1,3502796E+000	-1,545732503788491E-001	1,000000000000000E+000	-3,1252243E-002	40	-2,0871710E-004
2	0	0	1	0	1,135446444543581E+005	1,3388413E+000	1,3382542E+000	-1,587840965062686E-001	1,000000000000000E+000	-3,3132911E-002	40	-2,1249348E-004
2	0	0	1	0	1,135566396515240E+005	1,3268461E+000	1,3262961E+000	-1,627204635618549E-001	1,000000000000000E+000	-3,5062335E-002	40	-2,1581551E-004
2	0	0	1	0	1,135686347487080E+005	1,3148509E+000	1,3142710E+000	-1,663552952525571E-001	1,000000000000000E+000	-3,7037302E-002	40	-2,1863593E-004
2	0	0	1	0	1,135806299458779E+005	1,3028558E+000	1,3022840E+000	-1,697624107827487E-001	1,000000000000000E+000	-3,9054334E-002	40	-2,2107887E-004
2	0	0	1	0	1,135926252430177E+005	1,2908603E+000	1,2903137E+000	-1,728818440067283E-001	1,000000000000000E+000	-4,1110501E-002	40	-2,2307181E-004
2	0	0	1	0	1,136046204401650E+005	1,2788652E+000	1,2783051E+000	-1,757167789212692E-001	1,000000000000000E+000	-4,3202594E-002	40	-2,2461965E-004
2	0	0	1	0	1,136166156373506E+005	1,2668700E+000	1,2662996E+000	-1,784580676008185E-001	1,000000000000000E+000	-4,5328140E-002	40	-2,2598138E-004
2	0	0	1	0	1,136286108345347E+005	1,2548749E+000	1,2542665E+000	-1,809154433812470E-001	1,000000000000000E+000	-4,7484495E-002	40	-2,2691618E-004
2	0	0	1	0	1,136406060316777E+005	1,2428796E+000	1,2422751E+000	-1,830511685909980E-001	1,000000000000000E+000	-4,9668640E-002	40	-2,2739991E-004
2	0	0	1	0	1,136526012288178E+005	1,2308846E+000	1,2303135E+000	-1,849559923219530E-001	1,000000000000000E+000	-5,1877048E-002	40	-2,2755386E-004
2	0	0	1	0	1,136645964259915E+005	1,2188892E+000	1,2183102E+000	-1,864686236283757E-001	1,000000000000000E+000	-5,4105993E-002	40	-2,2717663E-004
2	0	0	1	0	1,136765916231771E+005	1,2068940E+000	1,2063186E+000	-1,875130667473587E-001	1,000000000000000E+000	-5,6350015E-002	40	-2,2620050E-004
2	0	0	1	0	1,136885868203375E+005	1,1948990E+000	1,1943430E+000	-1,880715346200332E-001	1,000000000000000E+000	-5,8603995E-002	40	-2,2462191E-004
2	0	0	1	0	1,137005820174781E+005	1,1829036E+000	1,1823547E+000	-1,883254658902910E-001	1,000000000000000E+000	-6,0862649E-002	40	-2,2266750E-004
2	0	0	1	0	1,137125772146340E+005	1,1709085E+000	1,1703639E+000	-1,882475006142572E-001	1,000000000000000E+000	-6,3122064E-002	40	-2,2031808E-004
2	0	0	1	0	1,137245724118184E+005	1,1589133E+000	1,1583337E+000	-1,880342707986262E-001	1,000000000000000E+000	-6,5380067E-002	40	-2,1780643E-004
2	0	0	1	0	1,137365676089984E+005	1,1469182E+000	1,1463567E+000	-1,877253892499060E-001	1,000000000000000E+000	-6,7634754E-002	40	-2,1520026E-004
2	0	0	1	0	1,137485628061381E+005	1,1349229E+000	1,1343671E+000	-1,873278476598623E-001	1,000000000000000E+000	-6,9884963E-002	40	-2,1249855E-004
2	0	0	1	0	1,137605580032784E+005	1,1229277E+000	1,1223452E+000	-1,869108255798806E-001	1,000000000000000E+000	-7,2130173E-002	40	-2,0977847E-004
2	0	0	1	0	1,137725532004613E+005	1,1109324E+000	1,1103829E+000	-1,864374153968102E-001	1,000000000000000E+000	-7,4370012E-002	40	-2,0701691E-004
2	0	0	1	0	1,137845483976458E+005	1,0989373E+000	1,0983868E+000	-1,858393000019332E-001	1,000000000000000E+000	-7,6603636E-002	40	-2,0412343E-004
2	0	0	1	0	1,137965435947981E+005	1,0869420E+000	1,0863620E+000	-1,852850469152854E-001	1,000000000000000E+000	-7,8830332E-002	40	-2,0128663E-004
2	0	0	1	0	1,138085387919381E+005	1,0749469E+000	1,0743750E+000	-1,847370739337244E-001	1,000000000000000E+000	-8,1050389E-002	40	-1,9847690E-004
2	0	0	1	0	1,138205339891016E+005	1,0629517E+000	1,0623833E+000	-1,841199170981058E-001	1,000000000000000E+000	-8,3263263E-002	40	-1,9560593E-004
2	0	0	1	0	1,138325291862874E+005	1,0509564E+000	1,0504128E+000	-1,835623822710336E-001	1,000000000000000E+000	-8,5469142E-002	40	-1,9281627E-004
2	0	0	1	0	1,138445243834574E+005	1,0389612E+000	1,0384116E+000	-1,830201117876722E-001	1,000000000000000E+000	-8,7668583E-002	40	-1,9005021E-004
2	0	0	1	0	1,138565195805975E+005	1,0269660E+000	1,0263852E+000	-1,825370486057044E-001	1,000000000000000E+000	-8,9861430E-002	40	-1,8735332E-004
2	0	0	1	0	1,138685147777442E+005	1,0149708E+000	1,0144023E+000	-1,820846497708893E-001	1,000000000000000E+000	-9,2049070E-002	40	-1,8470708E-004
2	0	0	1	0	1,138805099749281E+005	1,0029756E+000	1,0023917E+000	-1,816084890309098E-001	1,000000000000000E+000	-9,4231121E-002	40	-1,8204284E-004
2	0	0	1	0	1,138910065724655E+005	1,0075738E+000	1,0069898E+000	-1,672271349636095E-001	1,000000000000000E+000	-9,6072361E-002	40	-1,6839603E-004
2	0	0	1	0	1,139030017696144E+005	1,0195690E+000	1,0190227E+000	-1,540122620678012E-001	1,000000000000000E+000	-9,7994432E-002	40	-1,5694200E-004
2	0	0	1	0	1,139149969667548E+005	1,0315642E+000	1,0309801E+000	-1,434859244709599E-001	1,000000000000000E+000	-9,9776179E-002	40	-1,4793113E-004
2	0	0	1	0	1,139269921639219E+005	1,0435596E+000	1,0429685E+000	-1,342251721039536E-001	1,000000000000000E+000	-1,0143942E-001	40	-1,3999263E-004
2	0	0	1	0	1,139389873611066E+005	1,0555546E+000	1,0549998E+000	-1,261561930840720E-001	1,000000000000000E+000	-1,0299927E-001	40	-1,3309476E-004
2	0	0	1	0	1,139509825582746E+005	1,0675498E+000	1,0670058E+000	-1,188261890858077E-001	1,000000000000000E+000	-1,0446720E-001	40	-1,2678823E-004
2	0	0	1	0	1,139629777554139E+005	1,0795451E+000	1,0789552E+000	-1,122198217694717E-001	1,000000000000000E+000	-1,0585152E-001	40	-1,2108016E-004
2	0	0	1	0	1,139749729525635E+005	1,0915403E+000	1,0909766E+000	-1,061807240782278E-001	1,000000000000000E+000	-1,0715998E-001	40	-1,1584069E-004
2	0	0	1	0	1,139869681497482E+005	1,1035354E+000	1,1029600E+000	-1,005962833483656E-001	1,000000000000000E+000	-1,0839878E-001	40	-1,1095368E-004
2	0	0	1	0	1,139989633469321E+005	1,1155306E+000	1,1149796E+000	-9,542033251706117E-002	1,000000000000000E+000	-1,0957322E-001	40	-1,0639173E-004
2	0	0	1	0	1,140109585440743E+005	1,1275258E+000	1,1269675E+000	-9,058328307535124E-002	1,000000000000000E+000	-1,1068776E-001	40	-1,0208442E-004
2	0	0	1	0	1,140229537412138E+005	1,1395211E+000	1,1389233E+000	-8,602663133047038E-002	1,000000000000000E+000	-1,1174593E-001	40	-9,7977732E-005
2	0	0	1	0	1,140349489383898E+005	1,1515162E+000	1,1509231E+000	-8,175569777535396E-002	1,000000000000000E+000	-1,1275125E-001	40	-9,4094525E-005
2	0	0	1	0	1,140469441355744E+005	1,1635115E+000	1,1629322E+000	-7,768545106990232E-002	1,000000000000000E+000	-1,1370657E-001	40	-9,0342910E-005
2	0	0	1	0	1,140589393327334E+005	1,1755066E+000	1,1749526E+000	-7,385751845723365E-002	1,000000000000000E+000	-1,1461429E-001	40	-8,6779088E-005
2	0	0	1	0	1,140709345298738E+005	1,1875018E+000	1,1869304E+000	-7,019215210924334E-002	1,000000000000000E+000	-1,1547719E-001	40	-8,3313200E-005
2	0	0	1	0	1,140829297270309E+005	1,1994970E+000	1,1989139E+000	-6,670974276055441E-002	1,000000000000000E+000	-1,1629741E-001	40	-7,9979240E-005
2	0	0	1	0	1,140949249242158E+005	1,2114922E+000	1,2109218E+000	-6,335479572924663E-002	1,000000000000000E+000	-1,1707655E-001	40	-7,6717704E-005
2	0	0	1	0	1,141069201213933E+005	1,2234875E+000	1,2229161E+000	-6,015461133628341E-002	1,000000000000000E+000	-1,1781649E-001	40	-7,3564042E-005
2	0	0	1	0	1,141189153185328E+005	1,2354826E+000	1,2348819E+000	-5,708906106159140E-002	1,000000000000000E+000	-1,1851875E-001	40	-7,0498245E-005
2	0	0	1	0	1,141309105156739E+005	1,2474779E+000	1,2469232E+000	-5,410603615654985E-002	1,000000000000000E+000	-1,1918462E-001	40	-6,7466070E-005
2	0	0	1	0	1,141429057128571E+005	1,2594730E+000	1,2588921E+000	-5,121446380855253E-002	1,000000000000000E+000	-1,1981543E-001	40	-6,4473483E-005
2	0	0	1	0	1,141549009100413E+005	1,2714680E+000	1,2709025E+000	-4,839208782865995E-002	1,000000000000000E+000	-1,2041227E-001	40	-6,1501625E-005
2	0	0	1	0	1,141668961071931E+005	1,2834632E+000	1,2829150E+000	-4,563839677925891E-002	1,000000000000000E+000	-1,2097524E-001	41	-5,8550184E-005
2	0	0	1	0	1,141788913043328E+005	1,2954586E+000	1,2949253E+000	-4,299059772255454E-002	1,000000000000000E+000	-1,2150595E-001	41	-5,5669614E-005
2	0	0	1	0	1,141908866014988E+005	1,3074539E+000	1,3069080E+000	-4,040625160983125E-002	1,000000000000000E+000	-1,2200536E-001	41	-5,2807252E-005
2	0	0	1	0	1,142028817986840E+005	1,3194489E+000	1,3188869E+000	-3,787082678879095E-002	1,000000000000000E+000	-1,2247398E-001	41	-4,9947335E-005
2	0	0	1	0	1,142148769958522E+005	1,3314443E+000	1,3309129E+000	-3,537345833515126E-002	1,000000000000000E+000	-1,2291245E-001	41	-4,7078993E-005
2	0	0	1	0	1,142268721929933E+005	1,3434395E+000	1,3428839E+000	-3,290880520037642E-002	1,000000000000000E+000	-1,2332120E-001	41	-4,4192708E-005
2	0	0	1	0	1,142388674901407E+005	1,3554347E+000	1,3548566E+000	-3,048696151087260E-002	1,000000000000000E+000	-1,2370072E-001	41	-4,1305462E-005
2	0	0	1	0	1,142508626873256E+005	1,3674297E+000	1,3668859E+000	-2,807145682838419E-002	1,000000000000000E+000	-1,2405106E-001	41	-3,8370479E-005
2	0	0	1	0	1,142628578845112E+005	1,3794250E+000	1,3788707E+000	-2,566238586071956E-002	1,000000000000000E+000	-1,2437251E-001	41	-3,5385114E-005
2	0	0	1	0	1,142748530816529E+005	1,3914204E+000	1,3908354E+000	-2,325171109806379E-002	1,000000000000000E+000	-1,2466508E-001	41	-3,2339303E-005
2	0	0	1	0	1,142868482787935E+005	1,4034154E+000	1,4028646E+000	-2,081478997467318E-002	1,000000000000000E+000	-1,2492867E-001	41	-2,9200331E-005
2	0	0	1	0	1,142988434759678E+005	1,4154108E+000	1,4148577E+000	-1,836929158167760E-002	1,000000000000000E+000	-1,2516300E-001	41	-2,5989935E-005
2	0	0	1	0	1,143108386731520E+005	1,4274058E+000	1,4268382E+000	-1,590078845040493E-002	1,000000000000000E+000	-1,2536786E-001	41	-2,2687851E-005
2	0	0	1	0	1,143228337703135E+005	1,4394011E+000	1,4388270E+000	-1,336719824627976E-002	1,000000000000000E+000	-1,2554266E-001	41	-1,9233086E-005
2	0	0	1	0	1,143348289674530E+005	1,4513962E+000	1,4508418E+000	-1,078063478315144E-002	1,000000000000000E+000	-1,2568681E-001	41	-1,5640995E-005
2	0	0	1	0	1,143468242646095E+005	1,4633915E+000	1,4628420E+000	-8,135593689509002E-003	1,000000000000000E+000	-1,2579963E-001	41	-1,1901088E-005
2	0	0	1	0	1,143588194617946E+005	1,4753866E+000	1,4747949E+000	-5,408268635467339E-003	1,000000000000000E+000	-1,2588027E-001	41	-7,9760866E-006
2	0	0	1	0	1,143708146589720E+005	1,4873817E+000	1,4868470E+000	-2,583202465962657E-003	1,000000000000000E+000	-1,2592742E-001	42	-3,8408270E-006
2	1	0	1	0	1,143828098561130E+005	1,4993773E+000	1,4987831E+000	2,886543462833902E-004	1,000000000000000E+000	-1,2594044E-001	43	4,3263026E-007
2	1	0	1	0	1,143948050532526E+005	1,5113722E+000	1,5107347E+000	3,352029063390560E-003	1,000000000000000E+000	-1,2591790E-001	42	5,0640265E-006
2	1	0	1	0	1,144068002504352E+005	1,5233674E+000	1,5227051E+000	6,542955142564866E-003	1,000000000000000E+000	-1,2585801E-001	42	9,9629906E-006
2	1	0	1	0	1,144187954476203E+005	1,5353627E+000	1,5346807E+000	9,893449205772661E-003	1,000000000000000E+000	-1,2575896E-001	42	1,5183286E-005
2	1	0	1	0	1,144307906447719E+005	1,5473578E+000	1,5467709E+000	1,349238235104862E-002	1,000000000000000E+000	-1,2561762E-001	41	2,0869626E-005
2	1	0	1	0	1,144427858419123E+005	1,5593531E+000	1,5587550E+000	1,723344237448407E-002	1,000000000000000E+000	-1,2543273E-001	41	2,6862715E-005
2	1	0	1	0	1,144547810390764E+005	1,5713482E+000	1,5707563E+000	2,125236032988463E-002	1,000000000000000E+000	-1,2520140E-001	41	3,3382279E-005
2	1	0	1	0	1,144667762362608E+005	1,5833435E+000	1,5827506E+000	2,565324391828333E-002	1,000000000000000E+000	-1,2491968E-001	41	4,0602685E-005
2	1	0	1	0	1,144787714334314E+005	1,5953386E+000	1,5947399E+000	3,070252836131776E-002	1,000000000000000E+000	-1,2458166E-001	41	4,8962549E-005
2	1	0	1	0	1,144907666305709E+005	1,6073339E+000	1,6067353E+000	3,662778234635899E-002	1,000000000000000E+000	-1,2417805E-001	41	5,8851154E-005
2	1	0	1	0	1,145027619277176E+005	1,6193291E+000	1,6187314E+000	4,358223551452656E-002	1,000000000000000E+000	-1,2369709E-001	41	7,0547932E-005
2	1	0	1	0	1,145147571249027E+005	1,6313242E+000	1,6307005E+000	5,130065991608744E-002	1,000000000000000E+000	-1,2312788E-001	41	8,3656007E-005
2	1	0	1	0	1,145267523220866E+005	1,6433194E+000	1,6426884E+000	5,954359237626750E-002	1,000000000000000E+000	-1,2246267E-001	41	9,7811571E-005
2	1	0	1	0	1,145387475192309E+005	1,6553148E+000	1,6546557E+000	6,805520459865139E-002	1,000000000000000E+000	-1,2169671E-001	41	1,1260793E-004
2	1	0	1	0	1,145507428163704E+005	1,6673100E+000	1,6666448E+000	7,673304108155277E-002	1,000000000000000E+000	-1,2082747E-001	41	1,2788673E-004
2	1	0	1	0	1,145627379135438E+005	1,6793052E+000	1,6786665E+000	8,541340671606190E-002	1,000000000000000E+000	-1,1985431E-001	41	1,4338062E-004
2	1	0	1	0	1,145747331107289E+005	1,6913003E+000	1,6906137E+000	9,408565888083720E-002	1,000000000000000E+000	-1,1877686E-001	41	1,5906250E-004
2	1	0	1	0	1,145867283078902E+005	1,7032956E+000	1,7026447E+000	1,027139087556921E-001	1,000000000000000E+000	-1,1759558E-001	41	1,7488530E-004
2	1	0	1	0	1,145987236050307E+005	1,7152905E+000	1,7147009E+000	1,112297414009117E-001	1,000000000000000E+000	-1,1631151E-001	40	1,9072574E-004
2	1	0	1	0	1,146107188021855E+005	1,7272859E+000	1,7267102E+000	1,195919366508502E-001	1,000000000000000E+000	-1,1492606E-001	40	2,0650061E-004
2	1	0	1	0	1,146227139993701E+005	1,7392812E+000	1,7386843E+000	1,278030881813963E-001	1,000000000000000E+000	-1,1344127E-001	40	2,2220922E-004
2	1	0	1	0	1,146347091965507E+005	1,7512764E+000	1,7506919E+000	1,358065036043485E-001	1,000000000000000E+000	-1,1185898E-001	40	2,3775535E-004
2	1	0	1	0	1,146467043936900E+005	1,7632715E+000	1,7626523E+000	1,434972701002812E-001	1,000000000000000E+000	-1,1018249E-001	40	2,5293580E-004
2	1	0	1	0	1,146586995908311E+005	1,7752668E+000	1,7746781E+000	1,509166074131685E-001	1,000000000000000E+000	-1,0841540E-001	40	2,6782841E-004
2	1	0	1	0	1,146706947880122E+005	1,7872617E+000	1,7866540E+000	1,579382443408166E-001	1,000000000000000E+000	-1,0656164E-001	40	2,8218099E-004
2	1	0	1	0	1,146826899851970E+005	1,7992570E+000	1,7986966E+000	1,646190248947441E-001	1,000000000000000E+000	-1,0462573E-001	40	2,9609969E-004
2	1	0	1	0	1,146946851823507E+005	1,8112522E+000	1,8106757E+000	1,707191965461363E-001	1,000000000000000E+000	-1,0261319E-001	40	3,0911711E-004
2	1	0	1	0	1,147066803794904E+005	1,8232474E+000	1,8226489E+000	1,763387374336296E-001	1,000000000000000E+000	-1,0053041E-001	40	3,2140361E-004
2	1	0	1	0	1,147186755766538E+005	1,8352427E+000	1,8346686E+000	1,815410626899405E-001	1,000000000000000E+000	-9,8382585E-002	40	3,3306770E-004
2	1	0	1	0	1,147306707738390E+005	1,8472381E+000	1,8466340E+000	1,862209167169868E-001	1,000000000000000E+000	-9,6175924E-002	40	3,4388187E-004
2	1	0	1	0	1,147426659710095E+005	1,8592331E+000	1,8586549E+000	1,904265612122442E-001	1,000000000000000E+000	-9,3915671E-002	40	3,5393724E-004
2	1	0	1	0	1,147546612681504E+005	1,8712283E+000	1,8706528E+000	1,942015284853510E-001	1,000000000000000E+000	-9,1607623E-002	40	3,6328365E-004
2	1	0	1	0	1,147666564652956E+005	1,8832234E+000	1,8826421E+000	1,973989797930322E-001	1,000000000000000E+000	-8,9257576E-002	40	3,7163164E-004
2	1	0	1	0	1,147786516624806E+005	1,8952186E+000	1,8946323E+000	2,002624415475420E-001	1,000000000000000E+000	-8,6871251E-002	40	3,7942370E-004
2	1	0	1	0	1,147906467596658E+005	1,9072138E+000	1,9066495E+000	2,025790810287132E-001	1,000000000000000E+000	-8,4453724E-002	40	3,8624729E-004
2	1	0	1	0	1,148026420568097E+005	1,9192094E+000	1,9186271E+000	2,043934732910981E-001	1,000000000000000E+000	-8,2011491E-002	40	3,9215488E-004
2	1	0	1	0	1,148146373539504E+005	1,9312046E+000	1,9306241E+000	2,057539332412275E-001	1,000000000000000E+000	-7,9550281E-002	40	3,9723350E-004
2	1	0	1	0	1,148266325511223E+005	1,9431996E+000	1,9426010E+000	2,066228918959809E-001	1,000000000000000E+000	-7,7075720E-002	40	4,0138583E-004
2	1	0	1	0	1,148386277483068E+005	1,9551947E+000	1,9546257E+000	2,069516376166987E-001	1,000000000000000E+000	-7,4593745E-002	40	4,0451300E-004
2	1	0	1	0	1,148506229454705E+005	1,9671900E+000	1,9665982E+000	2,067257467250652E-001	1,000000000000000E+000	-7,2111487E-002	40	4,0654646E-004
2	1	0	1	0	1,148626181426100E+005	1,9791853E+000	1,9785875E+000	2,060212840373654E-001	1,000000000000000E+000	-6,9634475E-002	40	4,0763113E-004
2	1	0	1	0	1,148746133397643E+005	1,9911803E+000	1,9906222E+000	2,047855217161234E-001	1,000000000000000E+000	-6,7169420E-002	40	4,0765060E-004
2	1	0	1	0	1,148866085369490E+005	2,0031755E+000	2,0025887E+000	2,030381442029459E-001	1,000000000000000E+000	-6,4721584E-002	40	4,0660190E-004
2	1	0	1	0	1,148986037341296E+005	2,0151706E+000	2,0146081E+000	2,007774036708829E-001	1,000000000000000E+000	-6,2298380E-002	40	4,0448780E-004
2	1	0	1	0	1,149105989312704E+005	2,0271659E+000	2,0266340E+000	1,979913213416564E-001	1,000000000000000E+000	-5,9905346E-002	40	4,0125594E-004
2	1	0	1	0	1,149225942284098E+005	2,0391612E+000	2,0386138E+000	1,945988849308710E-001	1,000000000000000E+000	-5,7549573E-002	40	3,9671198E-004
2	1	0	1	0	1,149345893255905E+005	2,0511563E+000	2,0506134E+000	1,906724858048267E-001	1,000000000000000E+000	-5,5237595E-002	40	3,9099556E-004
2	1	0	1	0	1,149465846227752E+005	2,0631514E+000	2,0625637E+000	1,862957799944911E-001	1,000000000000000E+000	-5,2975442E-002	40	3,8424690E-004
2	1	0	1	0	1,149585798199289E+005	2,0751469E+000	2,0745983E+000	1,814936029734930E-001	1,000000000000000E+000	-5,0768524E-002	40	3,7652632E-004
2	1	0	1	0	1,149705750170692E+005	2,0871420E+000	2,0865872E+000	1,762168709104579E-001	1,000000000000000E+000	-4,8622210E-002	40	3,6769186E-004
2	1	0	1	0	1,149825702142311E+005	2,0991373E+000	2,0985684E+000	1,704677470587643E-001	1,000000000000000E+000	-4,6542201E-002	40	3,5773823E-004
2	1	0	1	0	1,149945654114154E+005	2,1111321E+000	2,1105781E+000	1,643560713494943E-001	1,000000000000000E+000	-4,4532735E-002	40	3,4688631E-004
2	1	0	1	0	1,150065606085885E+005	2,1231277E+000	2,1225526E+000	1,580751925820731E-001	1,000000000000000E+000	-4,2598594E-002	40	3,3552293E-004
2	1	0	1	0	1,150185558057278E+005	2,1351230E+000	2,1345451E+000	1,513654120123538E-001	1,000000000000000E+000	-4,0742379E-002	40	3,2309629E-004
2	1	0	1	0	1,150305510028722E+005	2,1471181E+000	2,1465733E+000	1,447880166323503E-001	1,000000000000000E+000	-3,8964827E-002	40	3,1079809E-004
2	1	0	1	0	1,150425462000570E+005	2,1591132E+000	2,1585391E+000	1,381851270044276E-001	1,000000000000000E+000	-3,7266977E-002	40	2,9827800E-004
2	1	0	1	0	1,150545414972412E+005	2,1711085E+000	2,1705289E+000	1,317056997005492E-001	1,000000000000000E+000	-3,5647940E-002	40	2,8587104E-004
2	1	0	1	0	1,150665365943878E+005	2,1831036E+000	2,1825471E+000	1,253256070238395E-001	1,000000000000000E+000	-3,4105778E-002	40	2,7352903E-004
2	1	0	1	0	1,150785318915276E+005	2,1950989E+000	2,1945395E+000	1,191951834226688E-001	1,000000000000000E+000	-3,2638643E-002	40	2,6157853E-004
2	1	0	1	0	1,150905271886983E+005	2,2070942E+000	2,2065537E+000	1,133878201439116E-001	1,000000000000000E+000	-3,1243438E-002	40	2,5019632E-004
2	1	0	1	0	1,151025222858835E+005	2,2190893E+000	2,2185233E+000	1,078564878657934E-001	1,000000000000000E+000	-2,9916158E-002	40	2,3928213E-004
2	1	0	1	0	1,151145174830472E+005	2,2310843E+000	2,2305570E+000	1,026822889601471E-001	1,000000000000000E+000	-2,8653227E-002	40	2,2903869E-004
2	1	0	1	0	1,151265126801876E+005	2,2430799E+000	2,2425327E+000	9,787380583041017E-002	1,000000000000000E+000	-2,7450321E-002	40	2,1948521E-004
2	1	0	1	0	1,151385077773401E+005	2,2550750E+000	2,2545145E+000	9,331870816277879E-002	1,000000000000000E+000	-2,6303161E-002	40	2,1038837E-004
2	1	0	1	0	1,151505030745249E+005	2,2670698E+000	2,2665293E+000	8,910615843522363E-002	1,000000000000000E+000	-2,5208702E-002	40	2,0196172E-004
2	1	0	1	0	1,151624981717076E+005	2,2790651E+000	2,2785342E+000	8,527995252964016E-002	1,000000000000000E+000	-2,4162432E-002	40	1,9431328E-004
2	1	0	1	0	1,151744934688471E+005	2,2910604E+000	2,2904983E+000	8,174065516546294E-002	1,000000000000000E+000	-2,3160357E-002	40	1,8722683E-004
2	1	0	1	0	1,151864887659880E+005	2,3030558E+000	2,3025291E+000	7,851731393133909E-002	1,000000000000000E+000	-2,2199143E-002	40	1,8078840E-004
2	1	0	1	0	1,151984838631670E+005	2,3150508E+000	2,3145158E+000	7,541253776860546E-002	1,000000000000000E+000	-2,1275815E-002	40	1,7454351E-004
2	1	0	1	0	1,152104792603515E+005	2,3270459E+000	2,3265057E+000	7,262952435687420E-002	1,000000000000000E+000	-2,0387284E-002	40	1,6897300E-004
2	1	0	1	0	1,152224745575080E+005	2,3390415E+000	2,3385022E+000	7,000713174909745E-002	1,000000000000000E+000	-1,9531328E-002	40	1,6371183E-004
2	1	0	1	0	1,152344696546476E+005	2,3510363E+000	2,3504789E+000	6,756371163574337E-002	1,000000000000000E+000	-1,8705741E-002	40	1,5880707E-004
2	1	0	1	0	1,152464649518088E+005	2,3630319E+000	2,3625121E+000	6,528284265508855E-002	1,000000000000000E+000	-1,7908417E-002	40	1,5423150E-004
2	1	0	1	0	1,152584600489940E+005	2,3750269E+000	2,3744643E+000	6,309238837318175E-002	1,000000000000000E+000	-1,7138025E-002	40	1,4981063E-004
2	1	0	1	0	1,152704553461671E+005	2,3870223E+000	2,3865085E+000	6,107811824145959E-002	1,000000000000000E+000	-1,6392671E-002	40	1,4576345E-004
2	1	0	1	0	1,152824504433081E+005	2,3990171E+000	2,3984902E+000	5,912021102294979E-002	1,000000000000000E+000	-1,5671261E-002	40	1,4179925E-004
2	1	0	1	0	1,152944457404502E+005	2,4110129E+000	2,4104600E+000	5,725987340309197E-002	1,000000000000000E+000	-1,4972965E-002	40	1,3802263E-004
2	1	0	1	0	1,153064408376347E+005	2,4230077E+000	2,4224949E+000	5,557371980129366E-002	1,000000000000000E+000	-1,4295605E-002	40	1,3462706E-004
2	1	0	1	0	1,153184361348203E+005	2,4350030E+000	2,4344907E+000	5,410499602286989E-002	1,000000000000000E+000	-1,3637397E-002	40	1,3171810E-004
2	1	0	1	0	1,153304312319672E+005	2,4469979E+000	2,4464619E+000	5,274205815181998E-002	1,000000000000000E+000	-1,2995936E-002	40	1,2903144E-004
2	1	0	1	0	1,153424265291074E+005	2,4589934E+000	2,4584794E+000	5,151407240170247E-002	1,000000000000000E+000	-1,2369982E-002	40	1,2664629E-004
2	1	0	1	0	1,153544216262769E+005	2,4709885E+000	2,4704475E+000	5,038345732794669E-002	1,000000000000000E+000	-1,1758377E-002	40	1,2446969E-004
2	1	0	1	0	1,153664169234615E+005	2,4829834E+000	2,4824553E+000	4,931588299286638E-002	1,000000000000000E+000	-1,1159743E-002	40	1,2242448E-004
2	1	0	1	0	1,153784121206274E+005	2,4949789E+000	2,4944599E+000	4,829549713331066E-002	1,000000000000000E+000	-1,0573510E-002	40	1,2047118E-004
2	1	0	1	0	1,153904073177669E+005	2,5069740E+000	2,5064018E+000	4,732337263652803E-002	1,000000000000000E+000	-9,9990470E-003	41	1,1861139E-004
2	1	0	1	0	1,154024025149185E+005	2,5189693E+000	2,5183911E+000	4,633742857970874E-002	1,000000000000000E+000	-9,4366288E-003	41	1,1669577E-004
2	1	0	1	0	1,154143978121034E+005	2,5309641E+000	2,5303888E+000	4,537625031025494E-002	1,000000000000000E+000	-8,8857617E-003	41	1,1481956E-004
2	1	0	1	0	1,154263931092862E+005	2,5429595E+000	2,5424094E+000	4,450001167608053E-002	1,000000000000000E+000	-8,3459336E-003	41	1,1313725E-004
2	1	0	1	0	1,154383882064272E+005	2,5549548E+000	2,5543969E+000	4,363356772862426E-002	1,000000000000000E+000	-7,8167804E-003	41	1,1145745E-004
2	1	0	1	0	1,154503835035670E+005	2,5669501E+000	2,5663855E+000	4,278571775456119E-002	1,000000000000000E+000	-7,2977422E-003	41	1,0980465E-004
2	1	0	1	0	1,154623786007445E+005	2,5789454E+000	2,5783958E+000	4,197830137120939E-002	1,000000000000000E+000	-6,7887120E-003	41	1,0823668E-004
2	1	0	1	0	1,154743739979295E+005	2,5909405E+000	2,5903807E+000	4,118759368893166E-002	1,000000000000000E+000	-6,2892865E-003	41	1,0669154E-004
2	1	0	1	0	1,154863689950858E+005	2,6029356E+000	2,6023879E+000	4,039462588512077E-002	1,000000000000000E+000	-5,7994523E-003	41	1,0512248E-004
2	1	0	1	0	1,154983643922263E+005	2,6149309E+000	2,6143937E+000	3,966194776154794E-002	1,000000000000000E+000	-5,3185294E-003	41	1,0369195E-004
2	1	0	1	0	1,155103593893859E+005	2,6269259E+000	2,6263690E+000	3,905883258569398E-002	1,000000000000000E+000	-4,8457710E-003	41	1,0258290E-004
2	1	0	1	0	1,155223547865707E+005	2,6389215E+000	2,6383822E+000	3,850321150408931E-002	1,000000000000000E+000	-4,3798639E-003	41	1,0158619E-004
2	1	0	1	0	1,155343498837461E+005	2,6509163E+000	2,6503780E+000	3,801771039138280E-002	1,000000000000000E+000	-3,9201141E-003	41	1,0076130E-004
2	1	0	1	0	1,155463451808854E+005	2,6629119E+000	2,6623669E+000	3,750181953296723E-002	1,000000000000000E+000	-3,4664404E-003	41	9,9843601E-005
2	1	0	1	0	1,155583402780278E+005	2,6749072E+000	2,6743867E+000	3,692479618952615E-002	1,000000000000000E+000	-3,0193401E-003	41	9,8751188E-005
2	1	0	1	0	1,155703355752123E+005	2,6869018E+000	2,6863389E+000	3,626156186070631E-002	1,000000000000000E+000	-2,5796518E-003	41	9,7410841E-005
2	1	0	1	0	1,155823306723968E+005	2,6988974E+000	2,6983685E+000	3,561640702980129E-002	1,000000000000000E+000	-2,1478310E-003	41	9,6106196E-005
2	1	0	1	0	1,155943258695456E+005	2,7108927E+000	2,7103293E+000	3,502588273642976E-002	1,000000000000000E+000	-1,7233710E-003	41	9,4931675E-005
2	1	0	1	0	1,156063212666851E+005	2,7228880E+000	2,7223320E+000	3,447891329101560E-002	1,000000000000000E+000	-1,3059196E-003	41	9,3863047E-005
2	1	0	1	0	1,156183163638534E+005	2,7348828E+000	2,7343607E+000	3,393147474588668E-002	1,000000000000000E+000	-8,9493819E-004	41	9,2780894E-005
2	1	0	1	0	1,156303116610383E+005	2,7468781E+000	2,7463310E+000	3,345760987483593E-002	1,000000000000000E+000	-4,9007824E-004	41	9,1885668E-005
2	1	0	1	0	1,156423067582045E+005	2,7588732E+000	2,7583201E+000	3,301129031546179E-002	1,000000000000000E+000	-9,0777656E-005	41	9,1055706E-005
2	1	0	1	0	1,156543021553452E+005	2,7708685E+000	2,7703269E+000	3,263040681424273E-002	1,000000000000000E+000	3,0349236E-004	41	9,0396890E-005
2	1	0	1	0	1,156662971524950E+005	2,7828634E+000	2,7823129E+000	3,227312453610298E-002	1,000000000000000E+000	6,9334271E-004	41	8,9793932E-005
2	1	0	1	0	1,156782925496800E+005	2,7948592E+000	2,7943015E+000	3,201552794286511E-002	1,000000000000000E+000	1,0795274E-003	41	8,9461035E-005
2	1	0	1	0	1,156902876468645E+005	2,8068540E+000	2,8063257E+000	3,180209142511037E-002	1,000000000000000E+000	1,4628780E-003	41	8,9247027E-005
2	1	0	1	0	1,157022829440050E+005	2,8188491E+000	2,8183050E+000	3,163730294787753E-002	1,000000000000000E+000	1,8439356E-003	41	8,9163572E-005
2	1	0	1	0	1,157142780411455E+005	2,8308446E+000	2,8303182E+000	3,152936264970829E-002	1,000000000000000E+000	2,2235613E-003	41	8,9238129E-005
2	1	0	1	0	1,157262733383221E+005	2,8428400E+000	2,8422925E+000	3,145551740790237E-002	1,000000000000000E+000	2,6020312E-003	41	8,9405781E-005
2	1	0	1	0	1,157382684355071E+005	2,8548350E+000	2,8543112E+000	3,137298397908128E-002	1,000000000000000E+000	2,9796162E-003	41	8,9548259E-005
2	1	0	1	0	1,157502637326656E+005	2,8668301E+000	2,8662670E+000	3,127871092191135E-002	1,000000000000000E+000	3,3560586E-003	41	8,9653135E-005
2	1	0	1	0	1,157622588298051E+005	2,8788254E+000	2,8782825E+000	3,113361287205071E-002	1,000000000000000E+000	3,7310978E-003	41	8,9611334E-005
2	1	0	1	0	1,157742541269641E+005	2,8908205E+000	2,8902979E+000	3,096134638458342E-002	1,000000000000000E+000	4,1042445E-003	41	8,9487512E-005
2	1	0	1	0	1,157862492241493E+005	2,9028158E+000	2,9022818E+000	3,081685900772629E-002	1,000000000000000E+000	4,4753952E-003	41	8,9439207E-005
2	1	0	1	0	1,157982445213255E+005	2,9148111E+000	2,9143057E+000	3,073391334945544E-002	1,000000000000000E+000	4,8452769E-003	41	8,9568020E-005
2	1	0	1	0	1,158102399184660E+005	2,9268062E+000	2,9263361E+000	3,068379558410472E-002	1,000000000000000E+000	5,2143345E-003	41	8,9791094E-005
2	1	0	1	0	1,158222349156063E+005	2,9388011E+000	2,9382887E+000	3,062878871631147E-002	1,000000000000000E+000	5,5828043E-003	41	8,9996225E-005
2	1	0	1	0	1,158342303127907E+005	2,9507964E+000	2,9502757E+000	3,055242216396487E-002	1,000000000000000E+000	5,9505496E-003	41	9,0138070E-005
2	1	0	1	0	1,158462254099759E+005	2,9627917E+000	2,9622757E+000	3,042003504666387E-002	1,000000000000000E+000	6,3169771E-003	41	9,0112531E-005
2	1	0	1	0	1,158582207071246E+005	2,9747870E+000	2,9742856E+000	3,023953999652368E-002	1,000000000000000E+000	6,6815130E-003	41	8,9941030E-005
2	1	0	1	0	1,158702158042653E+005	2,9867823E+000	2,9862900E+000	3,006925615076610E-002	1,000000000000000E+000	7,0439395E-003	41	8,9795518E-005
2	1	0	1	0	1,158822111014317E+005	2,9987776E+000	2,9982593E+000	2,994457918205051E-002	1,000000000000000E+000	7,4045076E-003	41	8,9781613E-005
2	1	0	1	1	1,158930068988977E+005	2,9904807E+000	2,9899590E+000	2,208448589198293E-002	1,000000000000000E+000	7,6760412E-003	41	6,6031709E-005
2	1	0	1	1	1,159050021960693E+005	2,9784856E+000	2,9779904E+000	1,888041042609753E-002	1,000000000000000E+000	7,9193506E-003	41	5,6225679E-005
2	1	0	1	1	1,159169972932104E+005	2,9664903E+000	2,9660072E+000	1,661541171318523E-002	1,000000000000000E+000	8,1307571E-003	41	4,9281432E-005
2	1	0	1	1	1,159289926903539E+005	2,9544950E+000	2,9540088E+000	1,482425798044446E-002	1,000000000000000E+000	8,3181867E-003	41	4,3790988E-005
2	1	0	1	1	1,159409876875388E+005	2,9425001E+000	2,9420018E+000	1,333632363933751E-002	1,000000000000000E+000	8,4860371E-003	41	3,9235489E-005
2	1	0	1	1	1,159529830847243E+005	2,9305046E+000	2,9300194E+000	1,206951854241099E-002	1,000000000000000E+000	8,6375242E-003	41	3,5363923E-005
2	1	0	1	1	1,159649781818697E+005	2,9185095E+000	2,9179947E+000	1,098030111188034E-002	1,000000000000000E+000	8,7749390E-003	41	3,2040462E-005
2	1	0	1	1	1,159769734790102E+005	2,9065142E+000	2,9059963E+000	1,001280682352990E-002	1,000000000000000E+000	8,9000734E-003	41	2,9097180E-005
2	1	0	1	1	1,159889685761810E+005	2,8945191E+000	2,8940141E+000	9,147905111093840E-003	1,000000000000000E+000	9,0142433E-003	41	2,6474167E-005
2	1	0	1	1	1,160009638733659E+005	2,8825238E+000	2,8820009E+000	8,388084311566665E-003	1,000000000000000E+000	9,1185495E-003	41	2,4174467E-005
2	1	0	1	1	1,160129589705302E+005	2,8705287E+000	2,8700197E+000	7,679796337127788E-003	1,000000000000000E+000	9,2140594E-003	41	2,2041166E-005
2	1	0	1	1	1,160249542676695E+005	2,8585334E+000	2,8580246E+000	7,045333340337877E-003	1,000000000000000E+000	9,3015423E-003	41	2,0135736E-005
2	1	0	1	1	1,160369493648228E+005	2,8465383E+000	2,8460252E+000	6,488115630369953E-003	1,000000000000000E+000	9,3818754E-003	41	1,8465340E-005
2	1	0	1	1	1,160489445620077E+005	2,8345428E+000	2,8340433E+000	5,963166735957193E-003	1,000000000000000E+000	9,4556995E-003	41	1,6899872E-005
2	1	0	1	1	1,160609397591893E+005	2,8225484E+000	2,8220577E+000	5,496604182858578E-003	1,000000000000000E+000	9,5236721E-003	41	1,5511734E-005
2	1	0	1	1	1,160729349563301E+005	2,8105528E+000	2,8100584E+000	5,075297698528096E-003	1,000000000000000E+000	9,5862933E-003	41	1,4261883E-005
2	1	0	1	1	1,160849302534695E+005	2,7985575E+000	2,7979822E+000	4,696816148287233E-003	1,000000000000000E+000	9,6440548E-003	42	1,3141608E-005
2	1	0	1	1	1,160969253506488E+005	2,7865622E+000	2,7859900E+000	4,316446428503297E-003	1,000000000000000E+000	9,6974066E-003	42	1,2025576E-005
2	1	0	1	1	1,161089206478341E+005	2,7745667E+000	2,7740452E+000	3,999467575567836E-003	1,000000000000000E+000	9,7466568E-003	42	1,1094704E-005
2	1	0	1	1	1,161209159449893E+005	2,7625718E+000	2,7620180E+000	3,684792141387262E-003	1,000000000000000E+000	9,7919982E-003	42	1,0177462E-005
2	1	0	1	1	1,161329110421294E+005	2,7505765E+000	2,7500491E+000	3,380008883924000E-003	1,000000000000000E+000	9,8337028E-003	42	9,2951905E-006
2	1	0	1	1	1,161449063392904E+005	2,7385814E+000	2,7380688E+000	3,091073324103740E-003	1,000000000000000E+000	9,8718600E-003	42	8,4635712E-006
2	1	0	1	1	1,161569014364746E+005	2,7265861E+000	2,7260554E+000	2,815433160464224E-003	1,000000000000000E+000	9,9066067E-003	42	7,6750266E-006
2	1	0	1	1	1,161688965336487E+005	2,7145913E+000	2,7140691E+000	2,532234971818967E-003	1,000000000000000E+000	9,9380240E-003	42	6,8726608E-006
2	1	0	1	1	1,161808917307882E+005	2,7025957E+000	2,7020867E+000	2,274337330961718E-003	1,000000000000000E+000	9,9661518E-003	42	6,1454566E-006
2	1	0	1	1	1,161928869279313E+005	2,6906006E+000	2,6900656E+000	1,991145554112688E-003	1,000000000000000E+000	9,9909035E-003	42	5,3563122E-006
2	1	0	1	1	1,162048821251164E+005	2,6786053E+000	2,6780589E+000	1,690126550532932E-003	1,000000000000000E+000	1,0012223E-002	42	4,5262582E-006
2	1	0	1	1	1,162168773223008E+005	2,6666105E+000	2,6660705E+000	1,357332077223855E-003	1,000000000000000E+000	1,0029850E-002	42	3,6187430E-006
2	1	0	1	1	1,162288725194479E+005	2,6546152E+000	2,6540849E+000	1,000586529421581E-003	1,000000000000000E+000	1,0043382E-002	42	2,6556415E-006
2	1	0	1	1	1,162408678165874E+005	2,6426196E+000	2,6420722E+000	6,171816745451676E-004	1,000000000000000E+000	1,0052434E-002	42	1,6306385E-006
2	1	0	1	1	1,162528629137576E+005	2,6306243E+000	2,6300480E+000	1,901883935962164E-004	1,000000000000000E+000	1,0056537E-002	43	5,0020464E-007
2	0	0	1	1	1,162648582109427E+005	2,6186292E+000	2,6181262E+000	-1,855926646366711E-004	1,000000000000000E+000	1,0056067E-002	43	-4,8590499E-007
2	0	0	1	1	1,162768533081072E+005	2,6066344E+000	2,6061459E+000	-4,617812485155502E-004	1,000000000000000E+000	1,0051577E-002	43	-1,2034693E-006
2	0	0	1	1	1,162888486052477E+005	2,5946388E+000	2,5941722E+000	-6,873669927250620E-004	1,000000000000000E+000	1,0044027E-002	43	-1,7831484E-006
2	0	0	1	1	1,163008438023992E+005	2,5826437E+000	2,5822117E+000	-8,553677001130649E-004	1,000000000000000E+000	1,0034266E-002	43	-2,2087404E-006
2	0	0	1	1	1,163128389995839E+005	2,5706487E+000	2,5701253E+000	-1,010304761619993E-003	1,000000000000000E+000	1,0022276E-002	42	-2,5966099E-006
2	0	0	1	1	1,163248340967676E+005	2,5586536E+000	2,5581386E+000	-1,228283095358447E-003	1,000000000000000E+000	1,0008108E-002	42	-3,1421184E-006
2	0	0	1	1	1,163368293939070E+005	2,5466580E+000	2,5461426E+000	-1,460020148098068E-003	1,000000000000000E+000	9,9913096E-003	42	-3,7174195E-006
2	0	0	1	1	1,163488244910478E+005	2,5346627E+000	2,5341644E+000	-1,703778973510771E-003	1,000000000000000E+000	9,9716475E-003	42	-4,3176560E-006
2	0	0	1	1	1,163608196882260E+005	2,5226679E+000	2,5221622E+000	-1,949633279374027E-003	1,000000000000000E+000	9,9490378E-003	42	-4,9172913E-006
2	0	0	1	1	1,163728148854105E+005	2,5106728E+000	2,5101688E+000	-2,212890606924083E-003	1,000000000000000E+000	9,9234693E-003	42	-5,5547289E-006
2	0	0	1	1	1,163848100825681E+005	2,4986777E+000	2,4981809E+000	-2,453710176405471E-003	1,000000000000000E+000	9,8948795E-003	42	-6,1298119E-006
2	0	0	1	1	1,163968053797078E+005	2,4866822E+000	2,4861760E+000	-2,683923755013751E-003	1,000000000000000E+000	9,8634074E-003	42	-6,6727071E-006
2	0	0	1	1	1,164088004768682E+005	2,4746869E+000	2,4741731E+000	-2,948590456183606E-003	1,000000000000000E+000	9,8288599E-003	42	-7,2953230E-006
2	0	0	1	1	1,164207957740532E+005	2,4626918E+000	2,4622047E+000	-3,204987748467253E-003	1,000000000000000E+000	9,7913221E-003	42	-7,8913363E-006
2	0	0	1	1	1,164327908712272E+005	2,4506967E+000	2,4501946E+000	-3,473075102361561E-003	1,000000000000000E+000	9,7505897E-003	42	-8,5097099E-006
2	0	0	1	1	1,164447861683678E+005	2,4387014E+000	2,4382339E+000	-3,708462049592569E-003	1,000000000000000E+000	9,7068027E-003	42	-9,0420981E-006
2	0	0	1	1	1,164567812655094E+005	2,4267063E+000	2,4262607E+000	-3,959655238884509E-003	1,000000000000000E+000	9,6600177E-003	42	-9,6071562E-006
2	0	0	1	1	1,164687765626945E+005	2,4147110E+000	2,4142413E+000	-4,158185837303176E-003	1,000000000000000E+000	9,6106073E-003	42	-1,0038864E-005
2	0	0	1	1	1,164807716598795E+005	2,4027162E+000	2,4022596E+000	-4,311420141298039E-003	1,000000000000000E+000	9,5590577E-003	42	-1,0357150E-005
2	0	0	1	1	1,164927669570269E+005	2,3907204E+000	2,3902514E+000	-4,451013584462756E-003	1,000000000000000E+000	9,5057022E-003	42	-1,0639042E-005
2	0	0	1	1	1,165047620541675E+005	2,3787255E+000	2,3782406E+000	-4,587603892623748E-003	1,000000000000000E+000	9,4508342E-003	42	-1,0910426E-005
2	0	0	1	1	1,165167573513357E+005	2,3667302E+000	2,3662417E+000	-4,719172192848758E-003	1,000000000000000E+000	9,3944054E-003	42	-1,1166702E-005
2	0	0	1	1	1,165287524485202E+005	2,3547354E+000	2,3542516E+000	-4,861149886843007E-003	1,000000000000000E+000	9,3362452E-003	42	-1,1444370E-005
2	0	0	1	1	1,165407477456871E+005	2,3427396E+000	2,3422737E+000	-5,008339029290862E-003	1,000000000000000E+000	9,2763891E-003	42	-1,1730901E-005
2	0	0	1	1	1,165527429428268E+005	2,3307445E+000	2,3302379E+000	-5,170559468491025E-003	1,000000000000000E+000	9,2146676E-003	42	-1,2048634E-005
2	0	0	1	1	1,165647379399776E+005	2,3187494E+000	2,3182662E+000	-5,335445446771142E-003	1,000000000000000E+000	9,1510219E-003	42	-1,2368982E-005
2	0	0	1	1	1,165767333371623E+005	2,3067539E+000	2,3063035E+000	-5,506256206791613E-003	1,000000000000000E+000	9,0852920E-003	42	-1,2699098E-005
2	0	0	1	1	1,165887284343452E+005	2,2947590E+000	2,2942946E+000	-5,701864142090148E-003	1,000000000000000E+000	9,0173595E-003	42	-1,3081756E-005
2	0	0	1	1	1,166007237314868E+005	2,2827637E+000	2,2822924E+000	-5,887661873213684E-003	1,000000000000000E+000	8,9471089E-003	42	-1,3437366E-005
2	0	0	1	1	1,166127188286266E+005	2,2707686E+000	2,2703159E+000	-6,101402657602645E-003	1,000000000000000E+000	8,8744704E-003	42	-1,3852112E-005
2	0	0	1	1	1,166247141258032E+005	2,2587733E+000	2,2583194E+000	-6,317463298854457E-003	1,000000000000000E+000	8,7992642E-003	42	-1,4266850E-005
2	0	0	1	1	1,166367092229886E+005	2,2467785E+000	2,2463405E+000	-6,547786515885723E-003	1,000000000000000E+000	8,7214103E-003	42	-1,4708558E-005
2	0	0	1	1	1,166487045201459E+005	2,2347829E+000	2,2343528E+000	-6,778444120752548E-003	1,000000000000000E+000	8,6408090E-003	42	-1,5145436E-005
2	0	0	1	1	1,166606996172862E+005	2,2227879E+000	2,2223709E+000	-7,021554060812285E-003	1,000000000000000E+000	8,5572777E-003	42	-1,5604497E-005
2	0	0	1	1	1,166726949144450E+005	2,2107925E+000	2,2103686E+000	-7,278161821307971E-003	1,000000000000000E+000	8,4707644E-003	42	-1,6087421E-005
2	0	0	1	1	1,166846901116292E+005	2,1987972E+000	2,1983657E+000	-7,550322092051878E-003	1,000000000000000E+000	8,3811283E-003	42	-1,6598369E-005
2	0	0	1	1	1,166966853088061E+005	2,1868019E+000	2,1863868E+000	-7,820180793898110E-003	1,000000000000000E+000	8,2882140E-003	42	-1,7097940E-005
2	0	0	1	1	1,167086805059458E+005	2,1748068E+000	2,1743703E+000	-8,132376007624120E-003	1,000000000000000E+000	8,1919199E-003	42	-1,7682796E-005
2	0	0	1	1	1,167206758030870E+005	2,1628118E+000	2,1623855E+000	-8,418726507679594E-003	1,000000000000000E+000	8,0920272E-003	42	-1,8204531E-005
2	0	0	1	1	1,167326709002714E+005	2,1508167E+000	2,1504126E+000	-8,741968209692808E-003	1,000000000000000E+000	7,9884222E-003	42	-1,8798839E-005
2	0	0	1	1	1,167446661974555E+005	2,1388214E+000	2,1384110E+000	-9,073724765180258E-003	1,000000000000000E+000	7,8809261E-003	42	-1,9403353E-005
2	0	0	1	1	1,167566612946054E+005	2,1268263E+000	2,1263931E+000	-9,433177814425875E-003	1,000000000000000E+000	7,7693118E-003	42	-2,0058644E-005
2	0	0	1	1	1,167686563917451E+005	2,1148310E+000	2,1144187E+000	-9,792384776376749E-003	1,000000000000000E+000	7,6533863E-003	42	-2,0705202E-005
2	0	0	1	1	1,167806516889120E+005	2,1028359E+000	2,1023061E+000	-1,018361989232122E-002	1,000000000000000E+000	7,5326958E-003	41	-2,1409087E-005
2	0	0	1	1	1,167926467860974E+005	2,0908408E+000	2,0903180E+000	-1,056922977588442E-002	1,000000000000000E+000	7,4075256E-003	41	-2,2093051E-005
2	0	0	1	1	1,168046420832640E+005	2,0788453E+000	2,0783291E+000	-1,097566850778078E-002	1,000000000000000E+000	7,2775469E-003	41	-2,2811051E-005
2	0	0	1	1	1,168166372804046E+005	2,0668502E+000	2,0663075E+000	-1,140437849981675E-002	1,000000000000000E+000	7,1426257E-003	41	-2,3564953E-005
2	0	0	1	1	1,168286324775540E+005	2,0548546E+000	2,0543234E+000	-1,184516187635282E-002	1,000000000000000E+000	7,0025064E-003	41	-2,4333794E-005
2	0	0	1	1	1,168406276747384E+005	2,0428598E+000	2,0423210E+000	-1,230646250940176E-002	1,000000000000000E+000	6,8569155E-003	41	-2,5133746E-005
2	0	0	1	1	1,168526229719236E+005	2,0308645E+000	2,0303359E+000	-1,280782789992652E-002	1,000000000000000E+000	6,7055505E-003	41	-2,6004192E-005
2	0	0	1	1	1,168646180690643E+005	2,0188692E+000	2,0183227E+000	-1,334080553107483E-002	1,000000000000000E+000	6,5480075E-003	41	-2,6926051E-005
2	0	0	1	1	1,168766133662048E+005	2,0068741E+000	2,0063224E+000	-1,389340122708106E-002	1,000000000000000E+000	6,3839750E-003	41	-2,7874641E-005
2	0	0	1	1	1,168886085633809E+005	1,9948792E+000	1,9943436E+000	-1,446491084278838E-002	1,000000000000000E+000	6,2131924E-003	41	-2,8848002E-005
2	0	0	1	1	1,169006037605656E+005	1,9828838E+000	1,9823315E+000	-1,503616767035260E-002	1,000000000000000E+000	6,0355263E-003	41	-2,9806670E-005
2	0	0	1	1	1,169125989577251E+005	1,9708886E+000	1,9703417E+000	-1,562038986793633E-002	1,000000000000000E+000	5,8508771E-003	41	-3,0777504E-005
2	0	0	1	1	1,169245941548649E+005	1,9588934E+000	1,9583601E+000	-1,619971169167048E-002	1,000000000000000E+000	5,6592762E-003	41	-3,1724867E-005
2	0	0	1	1	1,169365893520229E+005	1,9468982E+000	1,9463320E+000	-1,680166045191164E-002	1,000000000000000E+000	5,4606926E-003	41	-3,2701610E-005
2	0	0	1	1	1,169485845492082E+005	1,9349030E+000	1,9343457E+000	-1,744298542291273E-002	1,000000000000000E+000	5,2547110E-003	41	-3,3740766E-005
2	0	0	1	1	1,169605798463849E+005	1,9229077E+000	1,9223583E+000	-1,810738558872499E-002	1,000000000000000E+000	5,0408458E-003	41	-3,4808883E-005
2	0	0	1	1	1,169725748435254E+005	1,9109124E+000	1,9103823E+000	-1,883334008609661E-002	1,000000000000000E+000	4,8185862E-003	41	-3,5978879E-005
2	0	0	1	1	1,169845700406659E+005	1,8989173E+000	1,8983723E+000	-1,956917353543421E-002	1,000000000000000E+000	4,5875944E-003	41	-3,7149577E-005
2	0	0	1	1	1,169965652378490E+005	1,8869221E+000	1,8863916E+000	-2,037653121002038E-002	1,000000000000000E+000	4,3472969E-003	41	-3,8438116E-005
2	0	0	1	1	1,170085605350349E+005	1,8749270E+000	1,8743954E+000	-2,120321439898100E-002	1,000000000000000E+000	4,0971842E-003	41	-3,9743209E-005
2	0	0	1	1	1,170205557321850E+005	1,8629316E+000	1,8623708E+000	-2,208620027514502E-002	1,000000000000000E+000	3,8368523E-003	41	-4,1132695E-005
2	0	0	1	1	1,170325509293254E+005	1,8509365E+000	1,8503911E+000	-2,297021530092269E-002	1,000000000000000E+000	3,5659187E-003	41	-4,2503882E-005
2	0	0	1	1	1,170445461264915E+005	1,8389415E+000	1,8384129E+000	-2,391985399267099E-002	1,000000000000000E+000	3,2839600E-003	41	-4,3974567E-005
2	0	0	1	1	1,170565413236758E+005	1,8269461E+000	1,8264217E+000	-2,490148908088452E-002	1,000000000000000E+000	2,9904814E-003	41	-4,5480621E-005
2	0	0	1	1	1,170685365208448E+005	1,8149511E+000	1,8144453E+000	-2,598273184802592E-002	1,000000000000000E+000	2,6845292E-003	41	-4,7144244E-005
2	0	0	1	1	1,170805317179845E+005	1,8029556E+000	1,8024291E+000	-2,712833546984603E-002	1,000000000000000E+000	2,3653032E-003	41	-4,8896902E-005
2	0	0	1	1	1,170925269151321E+005	1,7909606E+000	1,7904358E+000	-2,836265943104602E-002	1,000000000000000E+000	2,0317528E-003	41	-5,0781520E-005
2	0	0	1	1	1,171045220123173E+005	1,7789652E+000	1,7784486E+000	-2,970461802577667E-002	1,000000000000000E+000	1,6827259E-003	41	-5,2828134E-005
2	0	0	1	1	1,171165173095018E+005	1,7669700E+000	1,7664182E+000	-3,118216947581817E-002	1,000000000000000E+000	1,3168385E-003	41	-5,5080753E-005
2	0	0	1	1	1,171285125066440E+005	1,7549748E+000	1,7544576E+000	-3,273166714422085E-002	1,000000000000000E+000	9,3285210E-004	41	-5,7426321E-005
2	0	0	1	1	1,171405077037838E+005	1,7429796E+000	1,7424372E+000	-3,437022792499439E-002	1,000000000000000E+000	5,2972441E-004	41	-5,9887967E-005
2	0	0	1	1	1,171525029009585E+005	1,7309843E+000	1,7304444E+000	-3,608660127350538E-002	1,000000000000000E+000	1,0655715E-004	41	-6,2445855E-005
2	0	0	1	1	1,171612401989077E+005	1,7222385E+000	1,7217616E+000	-3,734112053298133E-002	1,000000000000000E+000	-2,1470248E-004	41	-6,4292508E-005