File: Dati/210311/CV_LTO_MX_10 layer_grafite nuova_0.1_1mVs_05_CV_C03.mpt
EC-Lab ASCII FILE
Nb header lines : 57

Cyclic Voltammetry

Run on channel : 3 (SN 6807)
User :
Electrode connection : standard
Ewe ctrl range : min = 0,00 V, max = 5,00 V
Ewe,I filtering : 50 kHz
Safety Limits :
	Do not start on E overload
Channel : Grounded
Acquisition started on : 03/11/2021 17:24:33
Saved on :
	File : CV_LTO_MX_10 layer_grafite nuova_0.1_1mVs_05_CV_C03.mpr
	Directory : C:\Users\labsuperfici\Desktop\Biologic\Users\Prisca Viviani\210311\
	Host : 169.254.114.127
Device : VSP-300 (SN 0638)
Address : USB
EC-Lab for windows v11.31 (software)
Internet server v11.30 (firmware)
Command interpretor v11.31 (firmware)
Electrode material :
Initial state :
Electrolyte :
Comments :
Cable : standard
Reference electrode : SCE Saturated Calomel Electrode (0,241 V)
Electrode surface area : 0,001 cm²
Characteristic mass : 0,001 g
Equivalent Weight : 0,000 g/eq.
Density : 0,000 g/cm3
Cycle Definition : Charge/Discharge alternance
Ei (V)              0,000
vs.                 Eoc
dE/dt               0,500
dE/dt unit          mV/s
E1 (V)              1,000
vs.                 Ref
Step percent        50
N                   10
E range min (V)     0,000
E range max (V)     5,000
I Range             Auto
I Range min         Unset
I Range max         Unset
I Range init        Unset
Bandwidth           8
E2 (V)              3,000
vs.                 Ref
nc cycles           0
Reverse Scan        1
Ef (V)              0,000
vs.                 Eoc

mode	ox/red	error	control changes	counter inc.	time/s	control/V	Ewe/V	<I>/mA	cycle number	(Q-Qo)/C	I Range	P/W
2	0	0	1	0	8,333475760026147E+004	1,7222385E+000	1,7216814E+000	-2,481934428215027E-002	1,000000000000000E+000	0,0000000E+000	41	-4,2731001E-005
2	0	0	1	0	8,335784839480999E+004	1,7106926E+000	1,7101020E+000	-2,516667230116593E-002	1,000000000000000E+000	-5,6270580E-004	41	-4,3037577E-005
2	0	0	1	0	8,338183888911456E+004	1,6986973E+000	1,6981456E+000	-2,685379807799078E-002	1,000000000000000E+000	-1,1886351E-003	41	-4,5601661E-005
2	0	0	1	0	8,340582928346982E+004	1,6867021E+000	1,6861449E+000	-2,845157014910504E-002	1,000000000000000E+000	-1,8535935E-003	41	-4,7973470E-005
2	0	0	1	0	8,342981977775582E+004	1,6747068E+000	1,6741773E+000	-3,008087048223851E-002	1,000000000000000E+000	-2,5571492E-003	41	-5,0360712E-005
2	0	0	1	0	8,345381017212546E+004	1,6627117E+000	1,6621696E+000	-3,175050459987339E-002	1,000000000000000E+000	-3,3004566E-003	41	-5,2774722E-005
2	0	0	1	0	8,347780056640971E+004	1,6507167E+000	1,6501693E+000	-3,351177247707507E-002	1,000000000000000E+000	-4,0847864E-003	41	-5,5300097E-005
2	0	0	1	0	8,350179086076701E+004	1,6387213E+000	1,6381789E+000	-3,539200752460425E-002	1,000000000000000E+000	-4,9126511E-003	41	-5,7978443E-005
2	0	0	1	0	8,352578125506919E+004	1,6267263E+000	1,6261681E+000	-3,735369899834196E-002	1,000000000000000E+000	-5,7865418E-003	41	-6,0743394E-005
2	0	0	1	0	8,354977164940815E+004	1,6147306E+000	1,6141850E+000	-3,947786720741653E-002	1,000000000000000E+000	-6,7093158E-003	41	-6,3724583E-005
2	0	0	1	0	8,357376214372902E+004	1,6027356E+000	1,6022221E+000	-4,171068793938004E-002	1,000000000000000E+000	-7,6845423E-003	41	-6,6829787E-005
2	0	0	1	0	8,359775253805029E+004	1,5907404E+000	1,5902065E+000	-4,414861448116114E-002	1,000000000000000E+000	-8,7160375E-003	41	-7,0205417E-005
2	0	0	1	0	8,362174293238873E+004	1,5787454E+000	1,5782049E+000	-4,679973064586644E-002	1,000000000000000E+000	-9,8084258E-003	41	-7,3859563E-005
2	0	0	1	0	8,364573342669115E+004	1,5667498E+000	1,5662121E+000	-4,966485683424593E-002	1,000000000000000E+000	-1,0966597E-002	41	-7,7785699E-005
2	0	0	1	0	8,366972382104793E+004	1,5547547E+000	1,5542111E+000	-5,276328698307511E-002	1,000000000000000E+000	-1,2196514E-002	41	-8,2005288E-005
2	0	0	1	0	8,369371421533311E+004	1,5427595E+000	1,5422280E+000	-5,618620483033454E-002	1,000000000000000E+000	-1,3504331E-002	41	-8,6651940E-005
2	0	0	1	0	8,371770460970281E+004	1,5307642E+000	1,5302161E+000	-5,990435537196477E-002	1,000000000000000E+000	-1,4897905E-002	41	-9,1666610E-005
2	0	0	1	0	8,374169480398815E+004	1,5187691E+000	1,5182382E+000	-6,396111969180340E-002	1,000000000000000E+000	-1,6384594E-002	41	-9,7108212E-005
2	0	0	1	0	8,376568519834452E+004	1,5067741E+000	1,5062511E+000	-6,839365348451443E-002	1,000000000000000E+000	-1,7973341E-002	41	-1,0301801E-004
2	0	0	1	0	8,378967559264833E+004	1,4947790E+000	1,4942653E+000	-7,318147608920378E-002	1,000000000000000E+000	-1,9672677E-002	41	-1,0935254E-004
2	0	0	1	0	8,381366598698648E+004	1,4827837E+000	1,4822935E+000	-7,831383326369179E-002	1,000000000000000E+000	-2,1490933E-002	41	-1,1608408E-004
2	0	0	1	0	8,383765638130828E+004	1,4707884E+000	1,4702462E+000	-8,368181787884499E-002	1,000000000000000E+000	-2,3435418E-002	41	-1,2303288E-004
2	0	0	1	0	8,386164677562786E+004	1,4587932E+000	1,4582806E+000	-8,911504687440630E-002	1,000000000000000E+000	-2,5509818E-002	41	-1,2995474E-004
2	0	0	1	0	8,388563726996747E+004	1,4467981E+000	1,4462980E+000	-9,446697018575739E-002	1,000000000000000E+000	-2,7714001E-002	41	-1,3662739E-004
2	0	0	1	0	8,390962766426941E+004	1,4348029E+000	1,4343367E+000	-9,956918312231178E-002	1,000000000000000E+000	-3,0043926E-002	41	-1,4281573E-004
2	0	0	1	0	8,393361805862730E+004	1,4228078E+000	1,4222355E+000	-1,044837805313950E-001	1,000000000000000E+000	-3,2493748E-002	40	-1,4860053E-004
2	0	0	1	0	8,395760835291038E+004	1,4108124E+000	1,4102299E+000	-1,089608878751802E-001	1,000000000000000E+000	-3,5056692E-002	40	-1,5365990E-004
2	0	0	1	0	8,398159894727985E+004	1,3988171E+000	1,3982381E+000	-1,130610826923910E-001	1,000000000000000E+000	-3,7722580E-002	40	-1,5808630E-004
2	0	0	1	0	8,400558934156643E+004	1,3868220E+000	1,3862479E+000	-1,168550450919523E-001	1,000000000000000E+000	-4,0482860E-002	40	-1,6199006E-004
2	0	0	1	0	8,402957973592146E+004	1,3748266E+000	1,3742228E+000	-1,202974595236281E-001	1,000000000000000E+000	-4,3329831E-002	40	-1,6531551E-004
2	0	0	1	0	8,405357003022611E+004	1,3628317E+000	1,3622513E+000	-1,233939952978693E-001	1,000000000000000E+000	-4,6255264E-002	40	-1,6809363E-004
2	0	0	1	0	8,407756042456278E+004	1,3508364E+000	1,3502483E+000	-1,261495322462289E-001	1,000000000000000E+000	-4,9251352E-002	40	-1,7033319E-004
2	0	0	1	0	8,410155081888614E+004	1,3388413E+000	1,3382214E+000	-1,286220410804056E-001	1,000000000000000E+000	-5,2309785E-002	40	-1,7212477E-004
2	0	0	1	0	8,412554121320508E+004	1,3268460E+000	1,3262562E+000	-1,308254756953862E-001	1,000000000000000E+000	-5,5424765E-002	40	-1,7350809E-004
2	0	0	1	0	8,414953150754608E+004	1,3148507E+000	1,3142496E+000	-1,327629510792665E-001	1,000000000000000E+000	-5,8588631E-002	40	-1,7448366E-004
2	0	0	1	0	8,417352190184640E+004	1,3028556E+000	1,3022783E+000	-1,344615106095106E-001	1,000000000000000E+000	-6,1796237E-002	40	-1,7510631E-004
2	0	0	1	0	8,419751239620545E+004	1,2908604E+000	1,2902898E+000	-1,359632424920187E-001	1,000000000000000E+000	-6,5042242E-002	40	-1,7543198E-004
2	0	0	1	0	8,422150279048877E+004	1,2788652E+000	1,2782689E+000	-1,370010675126451E-001	1,000000000000000E+000	-6,8318993E-002	40	-1,7512421E-004
2	0	0	1	0	8,424549318485765E+004	1,2668699E+000	1,2662970E+000	-1,373947695141357E-001	1,000000000000000E+000	-7,1613349E-002	40	-1,7398258E-004
2	0	0	1	0	8,426948357914528E+004	1,2548748E+000	1,2542764E+000	-1,373054045878455E-001	1,000000000000000E+000	-7,4911512E-002	40	-1,7221893E-004
2	0	0	1	0	8,429347407349921E+004	1,2428796E+000	1,2422733E+000	-1,368287661416115E-001	1,000000000000000E+000	-7,8202300E-002	40	-1,6997872E-004
2	0	0	1	0	8,431746446780534E+004	1,2308843E+000	1,2303126E+000	-1,361397796720684E-001	1,000000000000000E+000	-8,1478164E-002	40	-1,6749448E-004
2	0	0	1	0	8,434145476214110E+004	1,2188894E+000	1,2182926E+000	-1,353450267980331E-001	1,000000000000000E+000	-8,4736727E-002	40	-1,6488985E-004
2	0	0	1	0	8,436544515646517E+004	1,2068939E+000	1,2062985E+000	-1,344514670473675E-001	1,000000000000000E+000	-8,7974750E-002	40	-1,6218860E-004
2	0	0	1	0	8,438943555078248E+004	1,1948988E+000	1,1943142E+000	-1,334550949163382E-001	1,000000000000000E+000	-9,1190130E-002	40	-1,5938732E-004
2	0	0	1	0	8,441342594512505E+004	1,1829036E+000	1,1823270E+000	-1,324610553717512E-001	1,000000000000000E+000	-9,4381116E-002	40	-1,5661228E-004
2	0	0	1	0	8,443741623942461E+004	1,1709085E+000	1,1703503E+000	-1,314430077070823E-001	1,000000000000000E+000	-9,7548455E-002	40	-1,5383436E-004
2	0	0	1	0	8,446140663378517E+004	1,1589133E+000	1,1583169E+000	-1,303427679514135E-001	1,000000000000000E+000	-1,0069027E-001	40	-1,5097823E-004
2	0	0	1	0	8,448539702806703E+004	1,1469181E+000	1,1463386E+000	-1,292775908471082E-001	1,000000000000000E+000	-1,0380573E-001	40	-1,4819589E-004
2	0	0	1	0	8,450938762243511E+004	1,1349229E+000	1,1343429E+000	-1,282021378185716E-001	1,000000000000000E+000	-1,0689592E-001	40	-1,4542519E-004
2	0	0	1	0	8,453337801672472E+004	1,1229277E+000	1,1223149E+000	-1,270963261530527E-001	1,000000000000000E+000	-1,0996021E-001	40	-1,4264211E-004
2	0	0	1	0	8,455736831107666E+004	1,1109325E+000	1,1103463E+000	-1,260529444703676E-001	1,000000000000000E+000	-1,1299866E-001	40	-1,3996242E-004
2	0	0	1	0	8,458135870538349E+004	1,0989373E+000	1,0983537E+000	-1,249507279937447E-001	1,000000000000000E+000	-1,1601084E-001	40	-1,3724010E-004
2	0	0	1	0	8,460534919971810E+004	1,0869420E+000	1,0863440E+000	-1,239118425533514E-001	1,000000000000000E+000	-1,1899770E-001	40	-1,3461089E-004
2	0	0	1	0	8,462933959404379E+004	1,0749468E+000	1,0743532E+000	-1,228926641848955E-001	1,000000000000000E+000	-1,2195975E-001	40	-1,3203012E-004
2	0	0	1	0	8,465332998836006E+004	1,0629516E+000	1,0623568E+000	-1,219188758245169E-001	1,000000000000000E+000	-1,2489762E-001	40	-1,2952134E-004
2	0	0	1	0	8,467732038270344E+004	1,0509564E+000	1,0503467E+000	-1,209955144561602E-001	1,000000000000000E+000	-1,2781292E-001	40	-1,2708725E-004
2	0	0	1	0	8,470131077700143E+004	1,0389612E+000	1,0383546E+000	-1,201237282105280E-001	1,000000000000000E+000	-1,3070619E-001	40	-1,2473103E-004
2	0	0	1	0	8,472530117136333E+004	1,0269659E+000	1,0263771E+000	-1,192555159070923E-001	1,000000000000000E+000	-1,3357930E-001	40	-1,2240112E-004
2	0	0	1	0	8,474929136564559E+004	1,0149709E+000	1,0143920E+000	-1,184873248417178E-001	1,000000000000000E+000	-1,3643228E-001	40	-1,2019260E-004
2	0	0	1	0	8,477328176001337E+004	1,0029756E+000	1,0023814E+000	-1,178210992375319E-001	1,000000000000000E+000	-1,3926847E-001	40	-1,1810169E-004
2	0	0	1	0	8,479427455501829E+004	1,0075737E+000	1,0069885E+000	-1,071687216966479E-001	1,000000000000000E+000	-1,4164129E-001	40	-1,0791767E-004
2	0	0	1	0	8,481826494935784E+004	1,0195690E+000	1,0189852E+000	-9,808334340490066E-002	1,000000000000000E+000	-1,4409637E-001	40	-9,9945471E-005
2	0	0	1	0	8,484225534367748E+004	1,0315640E+000	1,0309435E+000	-9,097532791865370E-002	1,000000000000000E+000	-1,4635909E-001	40	-9,3790426E-005
2	0	0	1	0	8,486624573799921E+004	1,0435593E+000	1,0429476E+000	-8,491511677793770E-002	1,000000000000000E+000	-1,4846492E-001	40	-8,8562025E-005
2	0	0	1	0	8,489023613233713E+004	1,0555545E+000	1,0549686E+000	-7,960501883673821E-002	1,000000000000000E+000	-1,5043539E-001	40	-8,3980798E-005
2	0	0	1	0	8,491422652664100E+004	1,0675496E+000	1,0669411E+000	-7,486288608618219E-002	1,000000000000000E+000	-1,5228570E-001	40	-7,9874291E-005
2	0	0	1	0	8,493821692099678E+004	1,0795449E+000	1,0789337E+000	-7,063239920871933E-002	1,000000000000000E+000	-1,5402831E-001	40	-7,6207674E-005
2	0	0	1	0	8,496220731528266E+004	1,0915401E+000	1,0909574E+000	-6,674046660450916E-002	1,000000000000000E+000	-1,5567365E-001	40	-7,2811003E-005
2	0	0	1	0	8,498619770965213E+004	1,1035354E+000	1,1029298E+000	-6,317461388659884E-002	1,000000000000000E+000	-1,5722990E-001	40	-6,9677168E-005
2	0	0	1	0	8,501018810393673E+004	1,1155305E+000	1,1149108E+000	-5,988633228779350E-002	1,000000000000000E+000	-1,5870380E-001	40	-6,6767920E-005
2	0	0	1	0	8,503417869829317E+004	1,1275256E+000	1,1268975E+000	-5,683043711365399E-002	1,000000000000000E+000	-1,6010185E-001	40	-6,4042077E-005
2	0	0	1	0	8,505816909259628E+004	1,1395209E+000	1,1388898E+000	-5,393467575575750E-002	1,000000000000000E+000	-1,6142885E-001	40	-6,1425650E-005
2	0	0	1	0	8,508215958693530E+004	1,1515162E+000	1,1508983E+000	-5,126047394345445E-002	1,000000000000000E+000	-1,6268849E-001	40	-5,8995593E-005
2	0	0	1	0	8,510614998125611E+004	1,1635115E+000	1,1628839E+000	-4,872904609461248E-002	1,000000000000000E+000	-1,6388544E-001	40	-5,6666224E-005
2	0	0	1	0	8,513014037557630E+004	1,1755066E+000	1,1749433E+000	-4,624220121178613E-002	1,000000000000000E+000	-1,6502161E-001	41	-5,4331966E-005
2	0	0	1	0	8,515413066991512E+004	1,1875018E+000	1,1869533E+000	-4,396995503407256E-002	1,000000000000000E+000	-1,6610149E-001	41	-5,2190284E-005
2	0	0	1	0	8,517812126421812E+004	1,1994971E+000	1,1989094E+000	-4,177654131535150E-002	1,000000000000000E+000	-1,6712813E-001	41	-5,0086288E-005
2	0	0	1	0	8,520211165857525E+004	1,2114922E+000	1,2109357E+000	-3,969420043064947E-002	1,000000000000000E+000	-1,6810353E-001	41	-4,8067126E-005
2	0	0	1	0	8,522610215285985E+004	1,2234875E+000	1,2228911E+000	-3,770725363809035E-002	1,000000000000000E+000	-1,6903009E-001	41	-4,6111865E-005
2	0	0	1	0	8,525009254722937E+004	1,2354826E+000	1,2348857E+000	-3,579263220324913E-002	1,000000000000000E+000	-1,6990988E-001	41	-4,4199809E-005
2	0	0	1	0	8,527408294151537E+004	1,2474780E+000	1,2469027E+000	-3,392941505931800E-002	1,000000000000000E+000	-1,7074451E-001	41	-4,2306678E-005
2	0	0	1	0	8,529807323587127E+004	1,2594728E+000	1,2588795E+000	-3,214422214967558E-002	1,000000000000000E+000	-1,7153540E-001	41	-4,0465704E-005
2	0	0	1	0	8,532206363017566E+004	1,2714680E+000	1,2708853E+000	-3,041807463149282E-002	1,000000000000000E+000	-1,7228410E-001	41	-3,8657887E-005
2	0	0	1	0	8,534605402451288E+004	1,2834632E+000	1,2829093E+000	-2,871345369219892E-002	1,000000000000000E+000	-1,7299192E-001	41	-3,6836755E-005
2	0	0	1	0	8,537004441883485E+004	1,2954584E+000	1,2948885E+000	-2,708911228828487E-002	1,000000000000000E+000	-1,7365968E-001	41	-3,5077381E-005
2	0	0	1	0	8,539403501315461E+004	1,3074539E+000	1,3068746E+000	-2,547091177253036E-002	1,000000000000000E+000	-1,7428863E-001	41	-3,3287288E-005
2	0	0	1	0	8,541802530749456E+004	1,3194489E+000	1,3188633E+000	-2,389330203755277E-002	1,000000000000000E+000	-1,7487888E-001	41	-3,1511998E-005
2	0	0	1	0	8,544201590179559E+004	1,3314443E+000	1,3308678E+000	-2,230738573826696E-002	1,000000000000000E+000	-1,7543142E-001	41	-2,9688181E-005
2	0	0	1	0	8,546600629615353E+004	1,3434393E+000	1,3428262E+000	-2,075775660568185E-002	1,000000000000000E+000	-1,7594646E-001	41	-2,7874061E-005
2	0	0	1	0	8,548999679043680E+004	1,3554345E+000	1,3548068E+000	-1,920681953517650E-002	1,000000000000000E+000	-1,7642444E-001	41	-2,6021529E-005
2	0	0	1	0	8,551398718480673E+004	1,3674297E+000	1,3668401E+000	-1,766683672750824E-002	1,000000000000000E+000	-1,7686531E-001	41	-2,4147741E-005
2	0	0	1	0	8,553797757909365E+004	1,3794250E+000	1,3788320E+000	-1,612204904991510E-002	1,000000000000000E+000	-1,7726907E-001	41	-2,2229597E-005
2	0	0	1	0	8,556196797344770E+004	1,3914202E+000	1,3908128E+000	-1,457467438351473E-002	1,000000000000000E+000	-1,7763576E-001	41	-2,0270643E-005
2	0	0	1	0	8,558595836775308E+004	1,4034153E+000	1,4028356E+000	-1,299368104729558E-002	1,000000000000000E+000	-1,7796509E-001	41	-1,8227998E-005
2	0	0	1	0	8,560994876208995E+004	1,4154105E+000	1,4148229E+000	-1,141060995826022E-002	1,000000000000000E+000	-1,7825650E-001	41	-1,6143993E-005
2	0	0	1	0	8,563393925641337E+004	1,4274058E+000	1,4268072E+000	-9,786729493244301E-003	1,000000000000000E+000	-1,7850941E-001	41	-1,3963776E-005
2	0	0	1	0	8,565792965073133E+004	1,4394010E+000	1,4387987E+000	-8,132994171541513E-003	1,000000000000000E+000	-1,7872296E-001	41	-1,1701741E-005
2	0	0	1	0	8,568192004507245E+004	1,4513961E+000	1,4507760E+000	-6,423957505939867E-003	1,000000000000000E+000	-1,7889613E-001	41	-9,3197232E-006
2	0	0	1	0	8,570591053937259E+004	1,4633915E+000	1,4628361E+000	-4,592231135962549E-003	1,000000000000000E+000	-1,7902714E-001	42	-6,7176816E-006
2	0	0	1	0	8,572990093373228E+004	1,4753866E+000	1,4748019E+000	-2,777362585401261E-003	1,000000000000000E+000	-1,7911449E-001	42	-4,0960595E-006
2	0	0	1	0	8,575389132801536E+004	1,4873818E+000	1,4867781E+000	-8,481881198086178E-004	1,000000000000000E+000	-1,7915688E-001	42	-1,2610676E-006
2	1	0	1	0	8,577788172238390E+004	1,4993771E+000	1,4987646E+000	1,194137034933205E-003	1,000000000000000E+000	-1,7915195E-001	42	1,7897304E-006
2	1	0	1	0	8,580187221667217E+004	1,5113722E+000	1,5106857E+000	3,329540138996728E-003	1,000000000000000E+000	-1,7909649E-001	42	5,0298886E-006
2	1	0	1	0	8,582586271102587E+004	1,5233673E+000	1,5226886E+000	5,647272582855578E-003	1,000000000000000E+000	-1,7898759E-001	42	8,5990378E-006
2	1	0	1	0	8,584985310533247E+004	1,5353626E+000	1,5346446E+000	8,191342428330809E-003	1,000000000000000E+000	-1,7882073E-001	42	1,2570799E-005
2	1	0	1	0	8,587384349966742E+004	1,5473578E+000	1,5467545E+000	1,102757691696443E-002	1,000000000000000E+000	-1,7858934E-001	41	1,7056955E-005
2	1	0	1	0	8,589783389399224E+004	1,5593530E+000	1,5587301E+000	1,403154197734718E-002	1,000000000000000E+000	-1,7828779E-001	41	2,1871387E-005
2	1	0	1	0	8,592182428830932E+004	1,5713481E+000	1,5707181E+000	1,738821690425441E-002	1,000000000000000E+000	-1,7791018E-001	41	2,7311986E-005
2	1	0	1	0	8,594581468265224E+004	1,5833434E+000	1,5827202E+000	2,145481010400790E-002	1,000000000000000E+000	-1,7744449E-001	41	3,3956960E-005
2	1	0	1	0	8,596980507695093E+004	1,5953385E+000	1,5947100E+000	2,684433733212196E-002	1,000000000000000E+000	-1,7686640E-001	41	4,2808933E-005
2	1	0	1	0	8,599379547131120E+004	1,6073339E+000	1,6067022E+000	3,371316638816990E-002	1,000000000000000E+000	-1,7614089E-001	41	5,4167020E-005
2	1	0	1	0	8,601778596559307E+004	1,6193292E+000	1,6186777E+000	4,157021027966556E-002	1,000000000000000E+000	-1,7523748E-001	41	6,7288776E-005
2	1	0	1	0	8,604177655996149E+004	1,6313243E+000	1,6306509E+000	4,993803020249768E-002	1,000000000000000E+000	-1,7413858E-001	41	8,1431492E-005
2	1	0	1	0	8,606576685425092E+004	1,6433195E+000	1,6426772E+000	5,850895352474728E-002	1,000000000000000E+000	-1,7283618E-001	41	9,6111326E-005
2	1	0	1	0	8,608975724860287E+004	1,6553148E+000	1,6546538E+000	6,708935739717004E-002	1,000000000000000E+000	-1,7132795E-001	41	1,1100966E-004
2	1	0	1	0	8,611374784291047E+004	1,6673099E+000	1,6666138E+000	7,558699749616093E-002	1,000000000000000E+000	-1,6961460E-001	41	1,2597433E-004
2	1	0	1	0	8,613773823724501E+004	1,6793051E+000	1,6786404E+000	8,392329108922891E-002	1,000000000000000E+000	-1,6769928E-001	41	1,4087702E-004
2	1	0	1	0	8,616172863157070E+004	1,6913002E+000	1,6906017E+000	9,207256946580822E-002	1,000000000000000E+000	-1,6558577E-001	41	1,5565804E-004
2	1	0	1	0	8,618571892588638E+004	1,7032956E+000	1,7026076E+000	9,996683319177380E-002	1,000000000000000E+000	-1,6327974E-001	41	1,7020429E-004
2	1	0	1	0	8,620970942023012E+004	1,7152905E+000	1,7147124E+000	1,075275968605922E-001	1,000000000000000E+000	-1,6078860E-001	40	1,8437891E-004
2	1	0	1	0	8,623370001452789E+004	1,7272860E+000	1,7266785E+000	1,147678559744950E-001	1,000000000000000E+000	-1,5811965E-001	40	1,9816718E-004
2	1	0	1	0	8,625769040889060E+004	1,7392812E+000	1,7386606E+000	1,216165055965532E-001	1,000000000000000E+000	-1,5528142E-001	40	2,1144982E-004
2	1	0	1	0	8,628168080317171E+004	1,7512763E+000	1,7506477E+000	1,280850908266350E-001	1,000000000000000E+000	-1,5228345E-001	40	2,2423186E-004
2	1	0	1	0	8,630567129753897E+004	1,7632717E+000	1,7626309E+000	1,340817048599511E-001	1,000000000000000E+000	-1,4913595E-001	40	2,3633656E-004
2	1	0	1	0	8,632966159182973E+004	1,7752666E+000	1,7746688E+000	1,395645967958243E-001	1,000000000000000E+000	-1,4585082E-001	40	2,4768093E-004
2	1	0	1	0	8,635365198618034E+004	1,7872617E+000	1,7866482E+000	1,445501504861344E-001	1,000000000000000E+000	-1,4244004E-001	40	2,5826026E-004
2	1	0	1	0	8,637764238048927E+004	1,7992569E+000	1,7986584E+000	1,490912783020240E-001	1,000000000000000E+000	-1,3891484E-001	40	2,6816427E-004
2	1	0	1	0	8,640163277482212E+004	1,8112521E+000	1,8106230E+000	1,531803885918495E-001	1,000000000000000E+000	-1,3528615E-001	40	2,7735194E-004
2	1	0	1	0	8,642562336914893E+004	1,8232474E+000	1,8226342E+000	1,568023941708976E-001	1,000000000000000E+000	-1,3156502E-001	40	2,8579342E-004
2	1	0	1	0	8,644961376346368E+004	1,8352424E+000	1,8346453E+000	1,599196202711483E-001	1,000000000000000E+000	-1,2776358E-001	40	2,9339577E-004
2	1	0	1	0	8,647360415780894E+004	1,8472379E+000	1,8466389E+000	1,624774787163307E-001	1,000000000000000E+000	-1,2389371E-001	40	3,0003724E-004
2	1	0	1	0	8,649759455210529E+004	1,8592329E+000	1,8586228E+000	1,646249959974915E-001	1,000000000000000E+000	-1,1996740E-001	40	3,0597576E-004
2	1	0	1	0	8,652158504646819E+004	1,8712283E+000	1,8706343E+000	1,663186544534331E-001	1,000000000000000E+000	-1,1599521E-001	40	3,1112137E-004
2	1	0	1	0	8,654557544074906E+004	1,8832235E+000	1,8826033E+000	1,674594134414739E-001	1,000000000000000E+000	-1,1198863E-001	40	3,1525965E-004
2	1	0	1	0	8,656956583511643E+004	1,8952187E+000	1,8945954E+000	1,680679026276424E-001	1,000000000000000E+000	-1,0796119E-001	40	3,1842067E-004
2	1	0	1	0	8,659355622940836E+004	1,9072139E+000	1,9065874E+000	1,681783843919464E-001	1,000000000000000E+000	-1,0392492E-001	40	3,2064680E-004
2	1	0	1	0	8,661754672375740E+004	1,9192091E+000	1,9185838E+000	1,676877207519198E-001	1,000000000000000E+000	-9,9893577E-002	40	3,2172294E-004
2	1	0	1	0	8,664153721806733E+004	1,9312043E+000	1,9306033E+000	1,665962083341612E-001	1,000000000000000E+000	-9,5881492E-002	40	3,2163117E-004
2	1	0	1	0	8,666552761239931E+004	1,9431996E+000	1,9425912E+000	1,649132471561714E-001	1,000000000000000E+000	-9,1902241E-002	40	3,2035902E-004
2	1	0	1	0	8,668951800672757E+004	1,9551947E+000	1,9545887E+000	1,626481367051906E-001	1,000000000000000E+000	-8,7970674E-002	40	3,1791019E-004
2	1	0	1	0	8,671350840104098E+004	1,9671899E+000	1,9665779E+000	1,597974048811190E-001	1,000000000000000E+000	-8,4100261E-002	40	3,1425405E-004
2	1	0	1	0	8,673749879538722E+004	1,9791851E+000	1,9785593E+000	1,563699113214175E-001	1,000000000000000E+000	-8,0304988E-002	40	3,0938713E-004
2	1	0	1	0	8,676148918968253E+004	1,9911803E+000	1,9906238E+000	1,523776257309772E-001	1,000000000000000E+000	-7,6599218E-002	40	3,0332652E-004
2	1	0	1	0	8,678547968404787E+004	2,0031755E+000	2,0025740E+000	1,477611502799960E-001	1,000000000000000E+000	-7,2996378E-002	40	2,9590263E-004
2	1	0	1	0	8,680946997832786E+004	2,0151708E+000	2,0145743E+000	1,426748259743675E-001	1,000000000000000E+000	-6,9510601E-002	40	2,8742902E-004
2	1	0	1	0	8,683346087269398E+004	2,0271659E+000	2,0265565E+000	1,371053010051304E-001	1,000000000000000E+000	-6,6152498E-002	40	2,7785165E-004
2	1	0	1	0	8,685745146698679E+004	2,0391612E+000	2,0385795E+000	1,310627934490323E-001	1,000000000000000E+000	-6,2932611E-002	40	2,6718192E-004
2	1	0	1	0	8,688144166133530E+004	2,0511563E+000	2,0505419E+000	1,246500374719436E-001	1,000000000000000E+000	-5,9863199E-002	40	2,5560011E-004
2	1	0	1	0	8,690543225564668E+004	2,0631516E+000	2,0625637E+000	1,179630912631972E-001	1,000000000000000E+000	-5,6951348E-002	40	2,4330638E-004
2	1	0	1	0	8,692942254997668E+004	2,0751469E+000	2,0745478E+000	1,110973486116651E-001	1,000000000000000E+000	-5,4202791E-002	40	2,3047675E-004
2	1	0	1	0	8,695341304430563E+004	2,0871420E+000	2,0865481E+000	1,041276144244698E-001	1,000000000000000E+000	-5,1620089E-002	40	2,1726727E-004
2	1	0	1	0	8,697740333861788E+004	2,0991373E+000	2,0985274E+000	9,731091675001469E-002	1,000000000000000E+000	-4,9203333E-002	40	2,0420963E-004
2	1	0	1	0	8,700139383296575E+004	2,1111326E+000	2,1105742E+000	9,076540805578459E-002	1,000000000000000E+000	-4,6946701E-002	40	1,9156713E-004
2	1	0	1	0	8,702538452725939E+004	2,1231277E+000	2,1225410E+000	8,473980897777600E-002	1,000000000000000E+000	-4,4841748E-002	40	1,7986371E-004
2	1	0	1	0	8,704937492162507E+004	2,1351225E+000	2,1345129E+000	7,922343263059373E-002	1,000000000000000E+000	-4,2875372E-002	40	1,6910344E-004
2	1	0	1	0	8,707336531590519E+004	2,1471179E+000	2,1465623E+000	7,428832214056902E-002	1,000000000000000E+000	-4,1034020E-002	40	1,5946451E-004
2	1	0	1	0	8,709735571027081E+004	2,1591132E+000	2,1585340E+000	6,984803603717116E-002	1,000000000000000E+000	-3,9305113E-002	40	1,5076937E-004
2	1	0	1	0	8,712134630456544E+004	2,1711085E+000	2,1705480E+000	6,586861711543213E-002	1,000000000000000E+000	-3,7676949E-002	40	1,4297100E-004
2	1	0	1	0	8,714533649891248E+004	2,1831036E+000	2,1825325E+000	6,227457768907674E-002	1,000000000000000E+000	-3,6139566E-002	40	1,3591630E-004
2	1	0	1	0	8,716932709322439E+004	2,1950986E+000	2,1945274E+000	5,902180718718575E-002	1,000000000000000E+000	-3,4683790E-002	40	1,2952497E-004
2	1	0	1	0	8,719331748755346E+004	2,2070940E+000	2,2065144E+000	5,597663116303686E-002	1,000000000000000E+000	-3,3303514E-002	40	1,2351324E-004
2	1	0	1	0	8,721730788188428E+004	2,2190893E+000	2,2184842E+000	5,314426606053047E-002	1,000000000000000E+000	-3,1993993E-002	40	1,1789971E-004
2	1	0	1	0	8,724129867619544E+004	2,2310843E+000	2,2305024E+000	5,058107165700727E-002	1,000000000000000E+000	-3,0749246E-002	40	1,1282120E-004
2	1	0	1	0	8,726548887049640E+004	2,2431796E+000	2,2425432E+000	4,830752426139517E-002	1,000000000000000E+000	-2,9553480E-002	41	1,0833171E-004
2	1	0	1	0	8,728947946479032E+004	2,2551746E+000	2,2545323E+000	4,623136807400074E-002	1,000000000000000E+000	-2,8418778E-002	41	1,0423012E-004
2	1	0	1	0	8,731346965915634E+004	2,2671697E+000	2,2665637E+000	4,434548150426210E-002	1,000000000000000E+000	-2,7331097E-002	41	1,0051185E-004
2	1	0	1	0	8,733746025343612E+004	2,2791650E+000	2,2785470E+000	4,261885117326536E-002	1,000000000000000E+000	-2,6286598E-002	41	9,7109056E-005
2	1	0	1	0	8,736145064780093E+004	2,2911606E+000	2,2905293E+000	4,110571442392652E-002	1,000000000000000E+000	-2,5280515E-002	41	9,4153838E-005
2	1	0	1	0	8,738544104209635E+004	2,3031557E+000	2,3025532E+000	3,976882794046499E-002	1,000000000000000E+000	-2,4308808E-002	41	9,1569840E-005
2	1	0	1	0	8,740943143644300E+004	2,3151507E+000	2,3145373E+000	3,852573695636069E-002	1,000000000000000E+000	-2,3368491E-002	41	8,9169254E-005
2	1	0	1	0	8,743342223075608E+004	2,3271461E+000	2,3265197E+000	3,737575560602335E-002	1,000000000000000E+000	-2,2456629E-002	41	8,6955435E-005
2	1	0	1	0	8,745741262508428E+004	2,3391414E+000	2,3385284E+000	3,631050201255098E-002	1,000000000000000E+000	-2,1571402E-002	41	8,4913139E-005
2	1	0	1	0	8,748140301941545E+004	2,3511362E+000	2,3505003E+000	3,538644230847426E-002	1,000000000000000E+000	-2,0709923E-002	41	8,3175844E-005
2	1	0	1	0	8,750539341372577E+004	2,3631318E+000	2,3625107E+000	3,450199648380980E-002	1,000000000000000E+000	-1,9870283E-002	41	8,1511338E-005
2	1	0	1	0	8,752938370807521E+004	2,3751266E+000	2,3745012E+000	3,368603783796276E-002	1,000000000000000E+000	-1,9051066E-002	41	7,9987542E-005
2	1	0	1	0	8,755337440236739E+004	2,3871222E+000	2,3865361E+000	3,297185964149391E-002	1,000000000000000E+000	-1,8250287E-002	41	7,8688536E-005
2	1	0	1	0	8,757736449673423E+004	2,3991172E+000	2,3985183E+000	3,229085743527262E-002	1,000000000000000E+000	-1,7466463E-002	41	7,7450211E-005
2	1	0	1	0	8,760135519101564E+004	2,4111125E+000	2,4105117E+000	3,169727282643561E-002	1,000000000000000E+000	-1,6697725E-002	41	7,6406650E-005
2	1	0	1	0	8,762534598537884E+004	2,4231079E+000	2,4225211E+000	3,117818527795790E-002	1,000000000000000E+000	-1,5941905E-002	41	7,5529810E-005
2	1	0	1	0	8,764933627967519E+004	2,4351027E+000	2,4344909E+000	3,075486671462457E-002	1,000000000000000E+000	-1,5197693E-002	41	7,4872441E-005
2	1	0	1	0	8,767332677402033E+004	2,4470983E+000	2,4464705E+000	3,031138913593226E-002	1,000000000000000E+000	-1,4464027E-002	41	7,4155920E-005
2	1	0	1	0	8,769731706833490E+004	2,4590931E+000	2,4584792E+000	2,989586118868681E-002	1,000000000000000E+000	-1,3740613E-002	41	7,3498355E-005
2	1	0	1	0	8,772130756266229E+004	2,4710886E+000	2,4704559E+000	2,943845741243140E-002	1,000000000000000E+000	-1,3027420E-002	41	7,2726412E-005
2	1	0	1	0	8,774529785699467E+004	2,4830837E+000	2,4824822E+000	2,899615453962928E-002	1,000000000000000E+000	-1,2324969E-002	41	7,1982438E-005
2	1	0	1	0	8,776928825130319E+004	2,4950783E+000	2,4944570E+000	2,851158139101634E-002	1,000000000000000E+000	-1,1633690E-002	41	7,1120914E-005
2	1	0	1	0	8,779327864565351E+004	2,5070741E+000	2,5064845E+000	2,806020445102553E-002	1,000000000000000E+000	-1,0953750E-002	41	7,0332469E-005
2	1	0	1	0	8,781726923994441E+004	2,5190692E+000	2,5184531E+000	2,757280694914860E-002	1,000000000000000E+000	-1,0284876E-002	41	6,9440823E-005
2	1	0	1	0	8,784125983431190E+004	2,5310640E+000	2,5304272E+000	2,713272284596474E-002	1,000000000000000E+000	-9,6271560E-003	41	6,8657384E-005
2	1	0	1	0	8,786525042859302E+004	2,5430598E+000	2,5424569E+000	2,666544424061462E-002	1,000000000000000E+000	-8,9799911E-003	41	6,7795743E-005
2	1	0	1	0	8,788924072295532E+004	2,5550549E+000	2,5544400E+000	2,621795537042426E-002	1,000000000000000E+000	-8,3440533E-003	41	6,6972192E-005
2	1	0	1	0	8,791323121725279E+004	2,5670500E+000	2,5664072E+000	2,575004207088105E-002	1,000000000000000E+000	-7,7191521E-003	41	6,6085093E-005
2	1	0	1	0	8,793722151159728E+004	2,5790453E+000	2,5784223E+000	2,527399250428836E-002	1,000000000000000E+000	-7,1057403E-003	41	6,5167027E-005
2	1	0	1	0	8,796121200591302E+004	2,5910401E+000	2,5904207E+000	2,479600008901198E-002	1,000000000000000E+000	-6,5039573E-003	41	6,4232074E-005
2	1	0	1	0	8,798520230023871E+004	2,6030354E+000	2,6024225E+000	2,440477653277007E-002	1,000000000000000E+000	-5,9125815E-003	41	6,3511536E-005
2	1	0	1	0	8,800919269457250E+004	2,6150308E+000	2,6144385E+000	2,404292632656338E-002	1,000000000000000E+000	-5,3303475E-003	41	6,2858751E-005
2	1	0	1	0	8,803318348888075E+004	2,6270263E+000	2,6264167E+000	2,374439984888926E-002	1,000000000000000E+000	-4,7561377E-003	41	6,2362691E-005
2	1	0	1	0	8,805717388323252E+004	2,6390212E+000	2,6383944E+000	2,344729096770004E-002	1,000000000000000E+000	-4,1891471E-003	41	6,1863197E-005
2	1	0	1	0	8,808116427752201E+004	2,6510162E+000	2,6504114E+000	2,303183380513191E-002	1,000000000000000E+000	-3,6300428E-003	41	6,1043836E-005
2	1	0	1	0	8,810515467188973E+004	2,6630116E+000	2,6624217E+000	2,266547833359263E-002	1,000000000000000E+000	-3,0799352E-003	41	6,0345061E-005
2	1	0	1	0	8,812914526617178E+004	2,6750066E+000	2,6744101E+000	2,227493985151568E-002	1,000000000000000E+000	-2,5391839E-003	41	5,9572325E-005
2	1	0	1	0	8,815313546053343E+004	2,6870017E+000	2,6863828E+000	2,191624549182214E-002	1,000000000000000E+000	-2,0078369E-003	41	5,8875423E-005
2	1	0	1	0	8,817712605483201E+004	2,6989968E+000	2,6984272E+000	2,153906251763016E-002	1,000000000000000E+000	-1,4851729E-003	41	5,8121594E-005
2	1	0	1	0	8,820111644917488E+004	2,7109926E+000	2,7104127E+000	2,120660541027142E-002	1,000000000000000E+000	-9,7095495E-004	41	5,7478654E-005
2	1	0	1	0	8,822510724349157E+004	2,7229877E+000	2,7223573E+000	2,083506149389069E-002	1,000000000000000E+000	-4,6515983E-004	41	5,6720481E-005
2	1	0	1	0	8,824909763781680E+004	2,7349830E+000	2,7343991E+000	2,054087657947026E-002	1,000000000000000E+000	3,2956381E-005	41	5,6166955E-005
2	1	0	1	0	8,827308803215157E+004	2,7469780E+000	2,7463648E+000	2,025205638406370E-002	1,000000000000000E+000	5,2358827E-004	41	5,5619534E-005
2	1	0	1	0	8,829707842645800E+004	2,7589731E+000	2,7583845E+000	2,000195519666653E-002	1,000000000000000E+000	1,0076115E-003	41	5,5173081E-005
2	1	0	1	0	8,832106882081041E+004	2,7709682E+000	2,7703865E+000	1,975464380197789E-002	1,000000000000000E+000	1,4857353E-003	41	5,4727996E-005
2	1	0	1	0	8,834505921509885E+004	2,7829640E+000	2,7823529E+000	1,956644496673646E-002	1,000000000000000E+000	1,9587742E-003	41	5,4440756E-005
2	1	0	1	0	8,836904960946785E+004	2,7949586E+000	2,7943523E+000	1,948187366203680E-002	1,000000000000000E+000	2,4284294E-003	41	5,4439217E-005
2	1	0	1	0	8,839304000375047E+004	2,8069544E+000	2,8063452E+000	1,939447615064482E-002	1,000000000000000E+000	2,8958146E-003	41	5,4427597E-005
2	1	0	1	0	8,841703029810969E+004	2,8189490E+000	2,8183553E+000	1,932215061488846E-002	1,000000000000000E+000	3,3615651E-003	41	5,4456686E-005
2	1	0	1	0	8,844102139240946E+004	2,8309448E+000	2,8303525E+000	1,927724181354429E-002	1,000000000000000E+000	3,8258252E-003	41	5,4561391E-005
2	1	0	1	0	8,846501148675196E+004	2,8429396E+000	2,8423262E+000	1,920535125925915E-002	1,000000000000000E+000	4,2886506E-003	41	5,4587872E-005
2	1	0	1	0	8,848900218106969E+004	2,8549347E+000	2,8543510E+000	1,914638846063772E-002	1,000000000000000E+000	4,7502173E-003	41	5,4650514E-005
2	1	0	1	0	8,851299257539323E+004	2,8669300E+000	2,8663163E+000	1,906839864260879E-002	1,000000000000000E+000	5,2100229E-003	41	5,4656062E-005
2	1	0	1	0	8,853698286972928E+004	2,8789253E+000	2,8783228E+000	1,896813143454489E-002	1,000000000000000E+000	5,6677936E-003	41	5,4596407E-005
2	1	0	1	0	8,856097336403490E+004	2,8909209E+000	2,8903074E+000	1,891272102665156E-002	1,000000000000000E+000	6,1237030E-003	41	5,4663578E-005
2	1	0	1	0	8,858496365838987E+004	2,9029155E+000	2,9023151E+000	1,882569412000662E-002	1,000000000000000E+000	6,5777651E-003	41	5,4638098E-005
2	1	0	1	0	8,860895415267698E+004	2,9149108E+000	2,9143212E+000	1,868645132920055E-002	1,000000000000000E+000	7,0292191E-003	41	5,4458320E-005
2	1	0	1	0	8,863294484704579E+004	2,9269061E+000	2,9263301E+000	1,854148783272319E-002	1,000000000000000E+000	7,4773673E-003	41	5,4258515E-005
2	1	0	1	0	8,865693524132902E+004	2,9389012E+000	2,9383118E+000	1,835723759555966E-002	1,000000000000000E+000	7,9214545E-003	41	5,3939290E-005
2	1	0	1	0	8,868092563568801E+004	2,9508965E+000	2,9502997E+000	1,818414426651710E-002	1,000000000000000E+000	8,3613219E-003	41	5,3648677E-005
2	1	0	1	0	8,870491592998873E+004	2,9628916E+000	2,9622967E+000	1,807908263450986E-002	1,000000000000000E+000	8,7979436E-003	41	5,3555606E-005
2	1	0	1	0	8,872890642432944E+004	2,9748867E+000	2,9743023E+000	1,803920014247143E-002	1,000000000000000E+000	9,2327483E-003	41	5,3654036E-005
2	1	0	1	0	8,875289701864822E+004	2,9868817E+000	2,9863009E+000	1,799030230729718E-002	1,000000000000000E+000	9,6665779E-003	41	5,3724456E-005
2	1	0	1	0	8,877688721297076E+004	2,9988775E+000	2,9983003E+000	1,798868674504073E-002	1,000000000000000E+000	1,0099539E-002	41	5,3935484E-005
2	1	0	1	1	8,879827890792792E+004	2,9904807E+000	2,9899063E+000	1,324362842050114E-002	1,000000000000000E+000	1,0418508E-002	41	3,9597209E-005
2	1	0	1	1	8,882226930222288E+004	2,9784856E+000	2,9779150E+000	1,128225611464675E-002	1,000000000000000E+000	1,0709480E-002	41	3,3597600E-005
2	1	0	1	1	8,884625969658804E+004	2,9664903E+000	2,9659216E+000	9,853067342095734E-003	1,000000000000000E+000	1,0960699E-002	41	2,9223425E-005
2	1	0	1	1	8,887025029086793E+004	2,9544950E+000	2,9539299E+000	8,752441418641677E-003	1,000000000000000E+000	1,1182063E-002	41	2,5854099E-005
2	1	0	1	1	8,889424048523337E+004	2,9425001E+000	2,9419446E+000	7,831864032362433E-003	1,000000000000000E+000	1,1379182E-002	41	2,3040910E-005
2	1	0	1	1	8,891823107952741E+004	2,9305046E+000	2,9299548E+000	7,051517388740033E-003	1,000000000000000E+000	1,1556068E-002	41	2,0660627E-005
2	1	0	1	1	8,894222147387546E+004	2,9185090E+000	2,9179354E+000	6,376147038941363E-003	1,000000000000000E+000	1,1715671E-002	41	1,8605186E-005
2	1	0	1	1	8,896621186818712E+004	2,9065139E+000	2,9059289E+000	5,792648481292333E-003	1,000000000000000E+000	1,1860126E-002	41	1,6833024E-005
2	1	0	1	1	8,899020226251619E+004	2,8945191E+000	2,8939390E+000	5,269087617842894E-003	1,000000000000000E+000	1,1991338E-002	41	1,5248418E-005
2	1	0	1	1	8,901419265684625E+004	2,8825238E+000	2,8818741E+000	4,802297099489677E-003	1,000000000000000E+000	1,2110554E-002	42	1,3839615E-005
2	1	0	1	1	8,903818305115821E+004	2,8705287E+000	2,8698993E+000	4,385399800722847E-003	1,000000000000000E+000	1,2219263E-002	42	1,2585656E-005
2	1	0	1	1	8,906217334550654E+004	2,8585334E+000	2,8579004E+000	4,002014118586000E-003	1,000000000000000E+000	1,2318387E-002	42	1,1437358E-005
2	1	0	1	1	8,908616383979964E+004	2,8465383E+000	2,8459103E+000	3,670525600603873E-003	1,000000000000000E+000	1,2408921E-002	42	1,0445987E-005
2	1	0	1	1	8,911015413416596E+004	2,8345430E+000	2,8339112E+000	3,351841553145156E-003	1,000000000000000E+000	1,2491597E-002	42	9,4988209E-006
2	1	0	1	1	8,913414452844672E+004	2,8225474E+000	2,8219528E+000	3,092533785488183E-003	1,000000000000000E+000	1,2567358E-002	42	8,7269846E-006
2	1	0	1	1	8,915813482281147E+004	2,8105526E+000	2,8099475E+000	2,840533865407786E-003	1,000000000000000E+000	1,2636895E-002	42	7,9817510E-006
2	1	0	1	1	8,918212551710679E+004	2,7985573E+000	2,7979372E+000	2,627199009610028E-003	1,000000000000000E+000	1,2700876E-002	42	7,3507376E-006
2	1	0	1	1	8,920611561145284E+004	2,7865622E+000	2,7859674E+000	2,420751597106295E-003	1,000000000000000E+000	1,2759790E-002	42	6,7441351E-006
2	1	0	1	1	8,923010620576586E+004	2,7745671E+000	2,7739427E+000	2,233024333417266E-003	1,000000000000000E+000	1,2814140E-002	42	6,1942815E-006
2	1	0	1	1	8,925409660009434E+004	2,7625721E+000	2,7619703E+000	2,069899761508502E-003	1,000000000000000E+000	1,2864434E-002	42	5,7170018E-006
2	1	0	1	1	8,927808699442574E+004	2,7505765E+000	2,7499897E+000	1,921952556325709E-003	1,000000000000000E+000	1,2910826E-002	42	5,2853497E-006
2	1	0	1	1	8,930207738873543E+004	2,7385817E+000	2,7379959E+000	1,772316572217138E-003	1,000000000000000E+000	1,2953617E-002	42	4,8525953E-006
2	1	0	1	1	8,932606778308470E+004	2,7265861E+000	2,7259786E+000	1,621240810970155E-003	1,000000000000000E+000	1,2992917E-002	42	4,4194676E-006
2	1	0	1	1	8,935005817737756E+004	2,7145913E+000	2,7139778E+000	1,486145109071059E-003	1,000000000000000E+000	1,3028761E-002	42	4,0333648E-006
2	1	0	1	1	8,937404847174417E+004	2,7025957E+000	2,7019770E+000	1,339404962247031E-003	1,000000000000000E+000	1,3061293E-002	42	3,6190413E-006
2	1	0	1	1	8,939803896602459E+004	2,6906004E+000	2,6900237E+000	1,201120039493100E-003	1,000000000000000E+000	1,3090418E-002	42	3,2310413E-006
2	1	0	1	1	8,942202926038788E+004	2,6786053E+000	2,6780012E+000	1,049456772872847E-003	1,000000000000000E+000	1,3115860E-002	42	2,8104464E-006
2	1	0	1	1	8,944601965468447E+004	2,6666100E+000	2,6660035E+000	8,897632005944039E-004	1,000000000000000E+000	1,3137620E-002	42	2,3721118E-006
2	1	0	1	1	8,947001004902995E+004	2,6546152E+000	2,6540170E+000	6,996937453226518E-004	1,000000000000000E+000	1,3155154E-002	42	1,8569991E-006
2	1	0	1	1	8,949400064334460E+004	2,6426196E+000	2,6419423E+000	4,652795988708738E-004	1,000000000000000E+000	1,3167806E-002	43	1,2292419E-006
2	1	0	1	1	8,951799083767133E+004	2,6306245E+000	2,6299911E+000	2,345512850273740E-004	1,000000000000000E+000	1,3174986E-002	43	6,1686779E-007
2	1	0	1	1	8,954198133200360E+004	2,6186292E+000	2,6180346E+000	-2,616970658848291E-005	1,000000000000000E+000	1,3176257E-002	43	-6,8513195E-008
2	0	0	1	1	8,956597152631311E+004	2,6066341E+000	2,6060379E+000	-2,365813196917874E-004	1,000000000000000E+000	1,3171954E-002	43	-6,1653986E-007
2	0	0	1	1	8,958996212066349E+004	2,5946388E+000	2,5940666E+000	-3,784110229160661E-004	1,000000000000000E+000	1,3163302E-002	43	-9,8162343E-007
2	0	0	1	1	8,961395251495426E+004	2,5826435E+000	2,5821028E+000	-4,997706397877862E-004	1,000000000000000E+000	1,3151579E-002	43	-1,2904592E-006
2	0	0	1	1	8,963794290932198E+004	2,5706487E+000	2,5701079E+000	-5,993022566803483E-004	1,000000000000000E+000	1,3137360E-002	43	-1,5402715E-006
2	0	0	1	1	8,966193330360390E+004	2,5586536E+000	2,5581336E+000	-7,039979673777823E-004	1,000000000000000E+000	1,3120558E-002	43	-1,8009208E-006
2	0	0	1	1	8,968592369796615E+004	2,5466580E+000	2,5461423E+000	-8,366456421882718E-004	1,000000000000000E+000	1,3100875E-002	43	-2,1302189E-006
2	0	0	1	1	8,970991409226367E+004	2,5346627E+000	2,5340436E+000	-9,674749386336182E-004	1,000000000000000E+000	1,3077739E-002	42	-2,4516237E-006
2	0	0	1	1	8,973390438660746E+004	2,5226676E+000	2,5220819E+000	-1,090293956737714E-003	1,000000000000000E+000	1,3051500E-002	42	-2,7498106E-006
2	0	0	1	1	8,975789468092355E+004	2,5106726E+000	2,5100784E+000	-1,248273618566061E-003	1,000000000000000E+000	1,3021959E-002	42	-3,1332647E-006
2	0	0	1	1	8,978188517524977E+004	2,4986775E+000	2,4980991E+000	-1,385934194076398E-003	1,000000000000000E+000	1,2988959E-002	42	-3,4622010E-006
2	0	0	1	1	8,980587576958322E+004	2,4866822E+000	2,4860961E+000	-1,530100837277870E-003	1,000000000000000E+000	1,2952662E-002	42	-3,8039777E-006
2	0	0	1	1	8,982986586389050E+004	2,4746869E+000	2,4741247E+000	-1,662682059476454E-003	1,000000000000000E+000	1,2912945E-002	42	-4,1136827E-006
2	0	0	1	1	8,985385655824211E+004	2,4626918E+000	2,4621115E+000	-1,808662832548349E-003	1,000000000000000E+000	1,2869832E-002	42	-4,4531293E-006
2	0	0	1	1	8,987784685253212E+004	2,4506967E+000	2,4501200E+000	-1,965168902757254E-003	1,000000000000000E+000	1,2823077E-002	42	-4,8148995E-006
2	0	0	1	1	8,990183734689979E+004	2,4387014E+000	2,4381464E+000	-2,123223377238401E-003	1,000000000000000E+000	1,2772629E-002	42	-5,1767292E-006
2	0	0	1	1	8,992582764118150E+004	2,4267063E+000	2,4261510E+000	-2,265529590955634E-003	1,000000000000000E+000	1,2718474E-002	42	-5,4965171E-006
2	0	0	1	1	8,994981803554250E+004	2,4147110E+000	2,4141314E+000	-2,396789449821704E-003	1,000000000000000E+000	1,2661028E-002	42	-5,7861648E-006
2	0	0	1	1	8,997380842984142E+004	2,4027159E+000	2,4021623E+000	-2,513736636679517E-003	1,000000000000000E+000	1,2600744E-002	42	-6,0384036E-006
2	0	0	1	1	8,999779872418474E+004	2,3907208E+000	2,3901467E+000	-2,597448295309307E-003	1,000000000000000E+000	1,2538020E-002	42	-6,2082827E-006
2	0	0	1	1	9,002178921850148E+004	2,3787253E+000	2,3781412E+000	-2,667575936942689E-003	1,000000000000000E+000	1,2473268E-002	42	-6,3438720E-006
2	0	0	1	1	9,004577951282600E+004	2,3667302E+000	2,3661492E+000	-2,765701503862100E-003	1,000000000000000E+000	1,2406592E-002	42	-6,5440622E-006
2	0	0	1	1	9,006977000716142E+004	2,3547351E+000	2,3541415E+000	-2,853698926215828E-003	1,000000000000000E+000	1,2337757E-002	42	-6,7180108E-006
2	0	0	1	1	9,009376030146820E+004	2,3427398E+000	2,3421581E+000	-2,942334635333360E-003	1,000000000000000E+000	1,2266799E-002	42	-6,8914128E-006
2	0	0	1	1	9,011775089582108E+004	2,3307445E+000	2,3301528E+000	-3,048648241783650E-003	1,000000000000000E+000	1,2193569E-002	42	-7,1038162E-006
2	0	0	1	1	9,014174099010916E+004	2,3187494E+000	2,3181801E+000	-3,152630216434117E-003	1,000000000000000E+000	1,2117916E-002	42	-7,3083647E-006
2	0	0	1	1	9,016573158447770E+004	2,3067539E+000	2,3061981E+000	-3,252144077910663E-003	1,000000000000000E+000	1,2039651E-002	42	-7,5000885E-006
2	0	0	1	1	9,018972197876079E+004	2,2947590E+000	2,2941794E+000	-3,383038479415200E-003	1,000000000000000E+000	1,1958539E-002	42	-7,7612976E-006
2	0	0	1	1	9,021371237312083E+004	2,2827637E+000	2,2821872E+000	-3,504463529116184E-003	1,000000000000000E+000	1,1874544E-002	42	-7,9978417E-006
2	0	0	1	1	9,023770276742056E+004	2,2707686E+000	2,2701962E+000	-3,647119621058334E-003	1,000000000000000E+000	1,1787350E-002	42	-8,2796769E-006
2	0	0	1	1	9,026169316176209E+004	2,2587733E+000	2,2582119E+000	-3,769210864680503E-003	1,000000000000000E+000	1,1696842E-002	42	-8,5116762E-006
2	0	0	1	1	9,028568355608080E+004	2,2467782E+000	2,2462227E+000	-3,924953789551683E-003	1,000000000000000E+000	1,1602774E-002	42	-8,8163206E-006
2	0	0	1	1	9,030967395040439E+004	2,2347829E+000	2,2342165E+000	-4,081504982543366E-003	1,000000000000000E+000	1,1505033E-002	42	-9,1189659E-006
2	0	0	1	1	9,033366434474057E+004	2,2227879E+000	2,2222340E+000	-4,248490072289344E-003	1,000000000000000E+000	1,1403355E-002	42	-9,4411389E-006
2	0	0	1	1	9,035765463904548E+004	2,2107925E+000	2,2102249E+000	-4,438463846641622E-003	1,000000000000000E+000	1,1297582E-002	42	-9,8100036E-006
2	0	0	1	1	9,038164523339993E+004	2,1987972E+000	2,1982117E+000	-4,626848857268884E-003	1,000000000000000E+000	1,1187410E-002	42	-1,0170793E-005
2	0	0	1	1	9,040563542768708E+004	2,1868024E+000	2,1862602E+000	-4,820131478039030E-003	1,000000000000000E+000	1,1072680E-002	42	-1,0538061E-005
2	0	0	1	1	9,042962602205656E+004	2,1748068E+000	2,1742177E+000	-5,037138512498318E-003	1,000000000000000E+000	1,0953040E-002	42	-1,0951836E-005
2	0	0	1	1	9,045361651633936E+004	2,1628118E+000	2,1622622E+000	-5,239436220607505E-003	1,000000000000000E+000	1,0828261E-002	42	-1,1329035E-005
2	0	0	1	1	9,047760681069759E+004	2,1508164E+000	2,1502843E+000	-5,479326197674647E-003	1,000000000000000E+000	1,0697936E-002	42	-1,1782109E-005
2	0	0	1	1	9,050159720499953E+004	2,1388211E+000	2,1382556E+000	-5,731531376340235E-003	1,000000000000000E+000	1,0561836E-002	42	-1,2255479E-005
2	0	0	1	1	9,052558759933978E+004	2,1268260E+000	2,1262722E+000	-5,999990641999693E-003	1,000000000000000E+000	1,0419644E-002	42	-1,2757613E-005
2	0	0	1	1	9,054957789365883E+004	2,1148310E+000	2,1143086E+000	-6,265426583880435E-003	1,000000000000000E+000	1,0271056E-002	42	-1,3247045E-005
2	0	0	1	1	9,057356828798121E+004	2,1028357E+000	2,1023250E+000	-6,556529992576937E-003	1,000000000000000E+000	1,0115805E-002	42	-1,3783957E-005
2	0	0	1	1	9,059755868231901E+004	2,0908406E+000	2,0903282E+000	-6,854257209377282E-003	1,000000000000000E+000	9,9534802E-003	42	-1,4327647E-005
2	0	0	1	1	9,062154907662328E+004	2,0788453E+000	2,0783145E+000	-7,178369207244989E-003	1,000000000000000E+000	9,7836014E-003	42	-1,4918909E-005
2	0	0	1	1	9,064553967097920E+004	2,0668502E+000	2,0663340E+000	-7,512446266748879E-003	1,000000000000000E+000	9,6057849E-003	42	-1,5523223E-005
2	0	0	1	1	9,066952986526466E+004	2,0548549E+000	2,0543401E+000	-7,858472965341042E-003	1,000000000000000E+000	9,4197802E-003	42	-1,6143977E-005
2	0	0	1	1	9,069352045963425E+004	2,0428598E+000	2,0423479E+000	-8,246396897079802E-003	1,000000000000000E+000	9,2249559E-003	42	-1,6842012E-005
2	0	0	1	1	9,071751085391873E+004	2,0308645E+000	2,0303662E+000	-8,648121870098710E-003	1,000000000000000E+000	9,0207700E-003	42	-1,7558854E-005
2	0	0	1	1	9,074150114827591E+004	2,0188694E+000	2,0183513E+000	-9,061095995608504E-003	1,000000000000000E+000	8,8068731E-003	42	-1,8288474E-005
2	0	0	1	1	9,076549144257797E+004	2,0068741E+000	2,0063715E+000	-9,473788873123334E-003	1,000000000000000E+000	8,5830372E-003	42	-1,9007941E-005
2	0	0	1	1	9,078948203691700E+004	1,9948789E+000	1,9944087E+000	-9,906830699627278E-003	1,000000000000000E+000	8,3489940E-003	42	-1,9758270E-005
2	0	0	1	1	9,081347243123781E+004	1,9828837E+000	1,9822403E+000	-1,035734382442381E-002	1,000000000000000E+000	8,1038997E-003	41	-2,0530744E-005
2	0	0	1	1	9,083746282555885E+004	1,9708885E+000	1,9702573E+000	-1,078705210880563E-002	1,000000000000000E+000	7,8487108E-003	41	-2,1253269E-005
2	0	0	1	1	9,086145311989728E+004	1,9588934E+000	1,9582832E+000	-1,121015591653848E-002	1,000000000000000E+000	7,5832591E-003	41	-2,1952659E-005
2	0	0	1	1	9,088544351419993E+004	1,9468980E+000	1,9462571E+000	-1,168967457119754E-002	1,000000000000000E+000	7,3069707E-003	41	-2,2751112E-005
2	0	0	1	1	9,090943390855705E+004	1,9349028E+000	1,9342922E+000	-1,218044284180411E-002	1,000000000000000E+000	7,0192153E-003	41	-2,3560535E-005
2	0	0	1	1	9,093342450284166E+004	1,9229078E+000	1,9223247E+000	-1,269169845249746E-002	1,000000000000000E+000	6,7193238E-003	41	-2,4397565E-005
2	0	0	1	1	9,095741479721147E+004	1,9109124E+000	1,9102983E+000	-1,324426011369304E-002	1,000000000000000E+000	6,4063948E-003	41	-2,5300487E-005
2	0	0	1	1	9,098140519149683E+004	1,8989172E+000	1,8983024E+000	-1,382918781856105E-002	1,000000000000000E+000	6,0800263E-003	41	-2,6251981E-005
2	0	0	1	1	9,100539558585291E+004	1,8869220E+000	1,8863090E+000	-1,444083404696858E-002	1,000000000000000E+000	5,7392758E-003	41	-2,7239876E-005
2	0	0	1	1	9,102938608015655E+004	1,8749267E+000	1,8743423E+000	-1,508615265402478E-002	1,000000000000000E+000	5,3835395E-003	41	-2,8276614E-005
2	0	0	1	1	9,105337647449435E+004	1,8629315E+000	1,8623141E+000	-1,575742424694837E-002	1,000000000000000E+000	5,0119301E-003	41	-2,9345274E-005
2	0	0	1	1	9,107736686881576E+004	1,8509364E+000	1,8503236E+000	-1,646340972447771E-002	1,000000000000000E+000	4,6238434E-003	41	-3,0462636E-005
2	0	0	1	1	9,110135726313572E+004	1,8389410E+000	1,8383659E+000	-1,720923595674509E-002	1,000000000000000E+000	4,2184740E-003	41	-3,1636871E-005
2	0	0	1	1	9,112534765747609E+004	1,8269459E+000	1,8263447E+000	-1,800749869518195E-002	1,000000000000000E+000	3,7941763E-003	41	-3,2887900E-005
2	0	0	1	1	9,114933785177802E+004	1,8149507E+000	1,8143290E+000	-1,889005051602088E-002	1,000000000000000E+000	3,3498812E-003	41	-3,4272765E-005
2	0	0	1	1	9,117332824613614E+004	1,8029557E+000	1,8023437E+000	-1,983193700649677E-002	1,000000000000000E+000	2,8839842E-003	41	-3,5743968E-005
2	0	0	1	1	9,119731864041940E+004	1,7909603E+000	1,7903491E+000	-2,086682705440990E-002	1,000000000000000E+000	2,3943107E-003	41	-3,7358906E-005
2	0	0	1	1	9,122130903478898E+004	1,7789651E+000	1,7783555E+000	-2,197579120542702E-002	1,000000000000000E+000	1,8788031E-003	41	-3,9080769E-005
2	0	0	1	1	9,124529952907632E+004	1,7669700E+000	1,7663621E+000	-2,315729370150721E-002	1,000000000000000E+000	1,3359206E-003	41	-4,0904164E-005
2	0	0	1	1	9,126928992343118E+004	1,7549748E+000	1,7543805E+000	-2,436887579184305E-002	1,000000000000000E+000	7,6436199E-004	41	-4,2752279E-005
2	0	0	1	1	9,129328031773545E+004	1,7429795E+000	1,7423974E+000	-2,561210657152826E-002	1,000000000000000E+000	1,6333592E-004	41	-4,4626468E-005
2	0	0	1	1	9,131727071207203E+004	1,7309844E+000	1,7304059E+000	-2,692554291467447E-002	1,000000000000000E+000	-4,6851931E-004	41	-4,6592118E-005
2	0	0	1	1	9,133474510794831E+004	1,7222385E+000	1,7216928E+000	-2,789777831438883E-002	1,000000000000000E+000	-9,4870938E-004	41	-4,8031405E-005