File: Dati/210311/CV_LTO_MX_10 layer_grafite nuova_0.1_1mVs_03_CV_C03.mpt
EC-Lab ASCII FILE
Nb header lines : 57

Cyclic Voltammetry

Run on channel : 3 (SN 6807)
User :
Electrode connection : standard
Ewe ctrl range : min = 0,00 V, max = 5,00 V
Ewe,I filtering : 50 kHz
Safety Limits :
	Do not start on E overload
Channel : Grounded
Acquisition started on : 03/11/2021 17:24:33
Saved on :
	File : CV_LTO_MX_10 layer_grafite nuova_0.1_1mVs_03_CV_C03.mpr
	Directory : C:\Users\labsuperfici\Desktop\Biologic\Users\Prisca Viviani\210311\
	Host : 169.254.114.127
Device : VSP-300 (SN 0638)
Address : USB
EC-Lab for windows v11.31 (software)
Internet server v11.30 (firmware)
Command interpretor v11.31 (firmware)
Electrode material :
Initial state :
Electrolyte :
Comments :
Cable : standard
Reference electrode : SCE Saturated Calomel Electrode (0,241 V)
Electrode surface area : 0,001 cm²
Characteristic mass : 0,001 g
Equivalent Weight : 0,000 g/eq.
Density : 0,000 g/cm3
Cycle Definition : Charge/Discharge alternance
Ei (V)              0,000
vs.                 Eoc
dE/dt               0,300
dE/dt unit          mV/s
E1 (V)              1,000
vs.                 Ref
Step percent        50
N                   10
E range min (V)     0,000
E range max (V)     5,000
I Range             Auto
I Range min         Unset
I Range max         Unset
I Range init        Unset
Bandwidth           8
E2 (V)              3,000
vs.                 Ref
nc cycles           0
Reverse Scan        1
Ef (V)              0,000
vs.                 Eoc

mode	ox/red	error	control changes	counter inc.	time/s	control/V	Ewe/V	<I>/mA	cycle number	(Q-Qo)/C	I Range	P/W
2	0	0	0	0	6,000081480011402E+004	1,7222385E+000	1,7216623E+000	-1,624397747218609E-002	1,000000000000000E+000	0,0000000E+000	41	-2,7966644E-005
2	0	0	1	0	6,003929940018570E+004	1,7106924E+000	1,7100608E+000	-1,778621433260691E-002	1,000000000000000E+000	-6,5089081E-004	41	-3,0415509E-005
2	0	0	1	0	6,007928360026015E+004	1,6986973E+000	1,6980931E+000	-1,940192326453852E-002	1,000000000000000E+000	-1,3978097E-003	41	-3,2946271E-005
2	0	0	1	0	6,011926760033472E+004	1,6867021E+000	1,6860819E+000	-2,090132354242441E-002	1,000000000000000E+000	-2,2064045E-003	41	-3,5241344E-005
2	0	0	1	0	6,015925180040929E+004	1,6747067E+000	1,6741098E+000	-2,237881427709026E-002	1,000000000000000E+000	-3,0742679E-003	41	-3,7464593E-005
2	0	0	1	0	6,019923580048373E+004	1,6627115E+000	1,6620927E+000	-2,389702095326030E-002	1,000000000000000E+000	-4,0019974E-003	41	-3,9719063E-005
2	0	0	1	0	6,023921980055817E+004	1,6507164E+000	1,6500793E+000	-2,548567235536980E-002	1,000000000000000E+000	-4,9911747E-003	41	-4,2053380E-005
2	0	0	1	0	6,027920370063267E+004	1,6387213E+000	1,6381037E+000	-2,713903329288814E-002	1,000000000000000E+000	-6,0455333E-003	41	-4,4456552E-005
2	0	0	1	0	6,031918770070715E+004	1,6267260E+000	1,6260953E+000	-2,888935248747767E-002	1,000000000000000E+000	-7,1683214E-003	41	-4,6976838E-005
2	0	0	1	0	6,035917170078160E+004	1,6147308E+000	1,6141140E+000	-3,082410162969429E-002	1,000000000000000E+000	-8,3644232E-003	41	-4,9753617E-005
2	0	0	1	0	6,039915590085607E+004	1,6027358E+000	1,6021253E+000	-3,291623332466648E-002	1,000000000000000E+000	-9,6410327E-003	41	-5,2735930E-005
2	0	0	1	0	6,043913990093052E+004	1,5907404E+000	1,5901220E+000	-3,525725289675730E-002	1,000000000000000E+000	-1,1005899E-002	41	-5,6063334E-005
2	0	0	1	0	6,047912390100502E+004	1,5787454E+000	1,5781448E+000	-3,783177840271579E-002	1,000000000000000E+000	-1,2469083E-002	41	-5,9704023E-005
2	0	0	1	0	6,051910810107947E+004	1,5667500E+000	1,5661370E+000	-4,075237834678846E-002	1,000000000000000E+000	-1,4041820E-002	41	-6,3823805E-005
2	0	0	1	0	6,055909210115403E+004	1,5547547E+000	1,5541236E+000	-4,398581150100522E-002	1,000000000000000E+000	-1,5737282E-002	41	-6,8359390E-005
2	0	0	1	0	6,059907600122853E+004	1,5427597E+000	1,5421486E+000	-4,760888026963828E-002	1,000000000000000E+000	-1,7569764E-002	41	-7,3419971E-005
2	0	0	1	0	6,063906000130298E+004	1,5307643E+000	1,5301580E+000	-5,172957809004053E-002	1,000000000000000E+000	-1,9557247E-002	41	-7,9154430E-005
2	0	0	1	0	6,067904400137730E+004	1,5187691E+000	1,5181798E+000	-5,648822946505239E-002	1,000000000000000E+000	-2,1721451E-002	41	-8,5759290E-005
2	0	0	1	0	6,071902800145192E+004	1,5067739E+000	1,5062125E+000	-6,182014035889960E-002	1,000000000000000E+000	-2,4087641E-002	41	-9,3114264E-005
2	0	0	1	0	6,075901200152640E+004	1,4947790E+000	1,4941911E+000	-6,771313387244184E-002	1,000000000000000E+000	-2,6679287E-002	41	-1,0117636E-004
2	0	0	1	0	6,079899600160084E+004	1,4827836E+000	1,4822285E+000	-7,385058568965752E-002	1,000000000000000E+000	-2,9512377E-002	41	-1,0946344E-004
2	0	0	1	0	6,083897990167531E+004	1,4707886E+000	1,4702086E+000	-7,991454996262459E-002	1,000000000000000E+000	-3,2590721E-002	41	-1,1749106E-004
2	0	0	1	0	6,087896390174975E+004	1,4587933E+000	1,4582351E+000	-8,562104487598982E-002	1,000000000000000E+000	-3,5904445E-002	41	-1,2485562E-004
2	0	0	1	0	6,091894810182427E+004	1,4467981E+000	1,4462698E+000	-9,081271819833980E-002	1,000000000000000E+000	-3,9436590E-002	41	-1,3133969E-004
2	0	0	1	0	6,095893210189871E+004	1,4348029E+000	1,4342542E+000	-9,543032340399904E-002	1,000000000000000E+000	-4,3164719E-002	41	-1,3687134E-004
2	0	0	1	0	6,099891610197327E+004	1,4228077E+000	1,4222766E+000	-9,943584781361325E-002	1,000000000000000E+000	-4,7065526E-002	41	-1,4142528E-004
2	0	0	1	0	6,103890010204772E+004	1,4108125E+000	1,4101658E+000	-1,030459208797438E-001	1,000000000000000E+000	-5,1115237E-002	40	-1,4531183E-004
2	0	0	1	0	6,107888430212205E+004	1,3988172E+000	1,3981850E+000	-1,059407772923135E-001	1,000000000000000E+000	-5,5297513E-002	40	-1,4812480E-004
2	0	0	1	0	6,111886830219661E+004	1,3868220E+000	1,3861667E+000	-1,083434355473262E-001	1,000000000000000E+000	-5,9585918E-002	40	-1,5018207E-004
2	0	0	1	0	6,115885230227106E+004	1,3748269E+000	1,3741974E+000	-1,103410486545654E-001	1,000000000000000E+000	-6,3962400E-002	40	-1,5163037E-004
2	0	0	1	0	6,119883620234564E+004	1,3628317E+000	1,3621818E+000	-1,118682812572729E-001	1,000000000000000E+000	-6,8408698E-002	40	-1,5238494E-004
2	0	0	1	0	6,123882020242009E+004	1,3508364E+000	1,3501997E+000	-1,130892814500843E-001	1,000000000000000E+000	-7,2909832E-002	40	-1,5269312E-004
2	0	0	1	0	6,127880420249456E+004	1,3388412E+000	1,3381802E+000	-1,140462804179527E-001	1,000000000000000E+000	-7,7454247E-002	40	-1,5261448E-004
2	0	0	1	0	6,131878820256901E+004	1,3268462E+000	1,3261914E+000	-1,146106200091608E-001	1,000000000000000E+000	-8,2030505E-002	40	-1,5199563E-004
2	0	0	1	0	6,135877220264345E+004	1,3148509E+000	1,3141903E+000	-1,144425014600068E-001	1,000000000000000E+000	-8,6615868E-002	40	-1,5039922E-004
2	0	0	1	0	6,139875620271813E+004	1,3028556E+000	1,3021997E+000	-1,134958907926507E-001	1,000000000000000E+000	-9,1177940E-002	40	-1,4779432E-004
2	0	0	1	0	6,143874030279252E+004	1,2908604E+000	1,2902449E+000	-1,121433631378665E-001	1,000000000000000E+000	-9,5692582E-002	40	-1,4469240E-004
2	0	0	1	0	6,147872430286673E+004	1,2788652E+000	1,2782108E+000	-1,106822425602257E-001	1,000000000000000E+000	-1,0015059E-001	40	-1,4147523E-004
2	0	0	1	0	6,151870830294141E+004	1,2668701E+000	1,2662334E+000	-1,091129880332498E-001	1,000000000000000E+000	-1,0454798E-001	40	-1,3816252E-004
2	0	0	1	0	6,155869230301585E+004	1,2548749E+000	1,2542119E+000	-1,075056453358734E-001	1,000000000000000E+000	-1,0888185E-001	40	-1,3483486E-004
2	0	0	1	0	6,159867650309030E+004	1,2428795E+000	1,2422171E+000	-1,059716920287743E-001	1,000000000000000E+000	-1,1315279E-001	40	-1,3163984E-004
2	0	0	1	0	6,163866050316489E+004	1,2308844E+000	1,2302450E+000	-1,044941091601313E-001	1,000000000000000E+000	-1,1736375E-001	40	-1,2855335E-004
2	0	0	1	0	6,167864450323935E+004	1,2188892E+000	1,2182385E+000	-1,029260572294706E-001	1,000000000000000E+000	-1,2151373E-001	40	-1,2538848E-004
2	0	0	1	0	6,171862850331381E+004	1,2068940E+000	1,2062445E+000	-1,013462643528280E-001	1,000000000000000E+000	-1,2560026E-001	40	-1,2224837E-004
2	0	0	1	0	6,175861240338825E+004	1,1948988E+000	1,1942742E+000	-9,978039749083445E-002	1,000000000000000E+000	-1,2962376E-001	40	-1,1916515E-004
2	0	0	1	0	6,179859640346270E+004	1,1829035E+000	1,1822689E+000	-9,826063107552585E-002	1,000000000000000E+000	-1,3358711E-001	40	-1,1617049E-004
2	0	0	1	0	6,183858040353737E+004	1,1709083E+000	1,1702965E+000	-9,683289376182408E-002	1,000000000000000E+000	-1,3748994E-001	40	-1,1332320E-004
2	0	0	1	0	6,187856440361170E+004	1,1589133E+000	1,1582494E+000	-9,536999050344086E-002	1,000000000000000E+000	-1,4133534E-001	40	-1,1046224E-004
2	0	0	1	0	6,191854840368615E+004	1,1469181E+000	1,1462722E+000	-9,399739144495500E-002	1,000000000000000E+000	-1,4512508E-001	40	-1,0774659E-004
2	0	0	1	0	6,195853260376072E+004	1,1349229E+000	1,1343039E+000	-9,265141060202109E-002	1,000000000000000E+000	-1,4886039E-001	40	-1,0509486E-004
2	0	0	1	0	6,199851660383504E+004	1,1229275E+000	1,1222589E+000	-9,143150476162554E-002	1,000000000000000E+000	-1,5254258E-001	40	-1,0260982E-004
2	0	0	1	0	6,203850050390954E+004	1,1109325E+000	1,1102893E+000	-9,018424028782834E-002	1,000000000000000E+000	-1,5617584E-001	40	-1,0013060E-004
2	0	0	1	0	6,207848450398401E+004	1,0989373E+000	1,0982904E+000	-8,903423264849275E-002	1,000000000000000E+000	-1,5976174E-001	40	-9,7785443E-005
2	0	0	1	0	6,211846870405860E+004	1,0869420E+000	1,0862885E+000	-8,796980627161322E-002	1,000000000000000E+000	-1,6330327E-001	40	-9,5560586E-005
2	0	0	1	0	6,215845270413306E+004	1,0749469E+000	1,0742779E+000	-8,691613451268815E-002	1,000000000000000E+000	-1,6680224E-001	40	-9,3372080E-005
2	0	0	1	0	6,219843670420750E+004	1,0629516E+000	1,0623428E+000	-8,595610265132159E-002	1,000000000000000E+000	-1,7026144E-001	40	-9,1314847E-005
2	0	0	1	0	6,223842070428201E+004	1,0509564E+000	1,0503242E+000	-8,506182591285955E-002	1,000000000000000E+000	-1,7368308E-001	40	-8,9342495E-005
2	0	0	1	0	6,227840470435657E+004	1,0389612E+000	1,0383006E+000	-8,421247242069851E-002	1,000000000000000E+000	-1,7707124E-001	40	-8,7437860E-005
2	0	0	1	0	6,231838870443089E+004	1,0269660E+000	1,0262980E+000	-8,344324602659980E-002	1,000000000000000E+000	-1,8042591E-001	40	-8,5637643E-005
2	0	0	1	0	6,235837260450539E+004	1,0149708E+000	1,0143353E+000	-8,279029997113319E-002	1,000000000000000E+000	-1,8375149E-001	40	-8,3977124E-005
2	0	0	1	0	6,239835660457984E+004	1,0029757E+000	1,0023164E+000	-8,219811144004918E-002	1,000000000000000E+000	-1,8705294E-001	40	-8,2388513E-005
2	0	0	1	0	6,243334390464509E+004	1,0075737E+000	1,0069226E+000	-7,371185828570859E-002	1,000000000000000E+000	-1,8979239E-001	40	-7,4222138E-005
2	0	0	1	0	6,247332790471955E+004	1,0195689E+000	1,0189439E+000	-6,692024124208018E-002	1,000000000000000E+000	-1,9259353E-001	40	-6,8187976E-005
2	0	0	1	0	6,251331210479402E+004	1,0315642E+000	1,0309261E+000	-6,164910461702044E-002	1,000000000000000E+000	-1,9515753E-001	40	-6,3555672E-005
2	0	0	1	0	6,255329610486847E+004	1,0435594E+000	1,0429150E+000	-5,723136097237003E-002	1,000000000000000E+000	-1,9752908E-001	40	-5,9687445E-005
2	0	0	1	0	6,259328010494297E+004	1,0555546E+000	1,0549031E+000	-5,343838910210130E-002	1,000000000000000E+000	-1,9973697E-001	40	-5,6372326E-005
2	0	0	1	0	6,263326440501737E+004	1,0675497E+000	1,0669150E+000	-5,007842414380570E-002	1,000000000000000E+000	-2,0180216E-001	40	-5,3429423E-005
2	0	0	1	0	6,267324840509193E+004	1,0795450E+000	1,0789627E+000	-4,695819344737914E-002	1,000000000000000E+000	-2,0373774E-001	41	-5,0666138E-005
2	0	0	1	0	6,271323240516637E+004	1,0915401E+000	1,0909747E+000	-4,422981578970425E-002	1,000000000000000E+000	-2,0555687E-001	41	-4,8253609E-005
2	0	0	1	0	6,275321640524082E+004	1,1035353E+000	1,1029406E+000	-4,172586929479133E-002	1,000000000000000E+000	-2,0727220E-001	41	-4,6021152E-005
2	0	0	1	0	6,279320040531526E+004	1,1155305E+000	1,1149298E+000	-3,938942843944276E-002	1,000000000000000E+000	-2,0889063E-001	41	-4,3916447E-005
2	0	0	1	0	6,283318480538973E+004	1,1275257E+000	1,1269208E+000	-3,727727665722919E-002	1,000000000000000E+000	-2,1042039E-001	41	-4,2008538E-005
2	0	0	1	0	6,287316880546423E+004	1,1395210E+000	1,1389059E+000	-3,529274342036115E-002	1,000000000000000E+000	-2,1186741E-001	41	-4,0195115E-005
2	0	0	1	0	6,291315290553879E+004	1,1515163E+000	1,1509098E+000	-3,341649525000778E-002	1,000000000000000E+000	-2,1323736E-001	41	-3,8459370E-005
2	0	0	1	0	6,295313690561327E+004	1,1635114E+000	1,1628820E+000	-3,165568758377296E-002	1,000000000000000E+000	-2,1453454E-001	41	-3,6811827E-005
2	0	0	1	0	6,299312090568771E+004	1,1755066E+000	1,1748979E+000	-2,999705045669562E-002	1,000000000000000E+000	-2,1576373E-001	41	-3,5243473E-005
2	0	0	1	0	6,303310530576218E+004	1,1875019E+000	1,1868852E+000	-2,841929465917981E-002	1,000000000000000E+000	-2,1692811E-001	41	-3,3730441E-005
2	0	0	1	0	6,307308950583663E+004	1,1994970E+000	1,1988618E+000	-2,692771775569214E-002	1,000000000000000E+000	-2,1803144E-001	41	-3,2282613E-005
2	0	0	1	0	6,311307350591110E+004	1,2114923E+000	1,2108918E+000	-2,549852156529198E-002	1,000000000000000E+000	-2,1907645E-001	41	-3,0875952E-005
2	0	0	1	0	6,315305750598561E+004	1,2234875E+000	1,2228405E+000	-2,413992372539428E-002	1,000000000000000E+000	-2,2006594E-001	41	-2,9519277E-005
2	0	0	1	0	6,319304150606005E+004	1,2354826E+000	1,2348316E+000	-2,279329181499723E-002	1,000000000000000E+000	-2,2100151E-001	41	-2,8145876E-005
2	0	0	1	0	6,323302580613457E+004	1,2474778E+000	1,2468534E+000	-2,154834206732704E-002	1,000000000000000E+000	-2,2188559E-001	41	-2,6867623E-005
2	0	0	1	0	6,327300980620913E+004	1,2594730E+000	1,2588602E+000	-2,032935650121817E-002	1,000000000000000E+000	-2,2272027E-001	41	-2,5591818E-005
2	0	0	1	0	6,331299380628346E+004	1,2714680E+000	1,2708443E+000	-1,915737250820007E-002	1,000000000000000E+000	-2,2350711E-001	41	-2,4346038E-005
2	0	0	1	0	6,335297780635790E+004	1,2834635E+000	1,2828472E+000	-1,802849385702152E-002	1,000000000000000E+000	-2,2424787E-001	41	-2,3127803E-005
2	0	0	1	0	6,339296180643252E+004	1,2954586E+000	1,2948118E+000	-1,692177182896683E-002	1,000000000000000E+000	-2,2494408E-001	41	-2,1910511E-005
2	0	0	1	0	6,343294630650699E+004	1,3074538E+000	1,3068218E+000	-1,583875572733345E-002	1,000000000000000E+000	-2,2559644E-001	41	-2,0698431E-005
2	0	0	1	0	6,347293030658143E+004	1,3194491E+000	1,3188111E+000	-1,478674085417143E-002	1,000000000000000E+000	-2,2620578E-001	41	-1,9500918E-005
2	0	0	1	0	6,351291430665590E+004	1,3314444E+000	1,3307974E+000	-1,372777346619991E-002	1,000000000000000E+000	-2,2677305E-001	41	-1,8268885E-005
2	0	0	1	0	6,355289830673035E+004	1,3434395E+000	1,3427924E+000	-1,267796022907386E-002	1,000000000000000E+000	-2,2729830E-001	41	-1,7023869E-005
2	0	0	1	0	6,359288250680480E+004	1,3554348E+000	1,3547560E+000	-1,165556072038796E-002	1,000000000000000E+000	-2,2778234E-001	41	-1,5790441E-005
2	0	0	1	0	6,363286690687927E+004	1,3674297E+000	1,3667769E+000	-1,063996236993039E-002	1,000000000000000E+000	-2,2822547E-001	41	-1,4542456E-005
2	0	0	1	0	6,367285090695374E+004	1,3794249E+000	1,3788065E+000	-9,598052066237657E-003	1,000000000000000E+000	-2,2862741E-001	41	-1,3233856E-005
2	0	0	1	0	6,371283490702836E+004	1,3914202E+000	1,3907809E+000	-8,574085002711340E-003	1,000000000000000E+000	-2,2898801E-001	41	-1,1924674E-005
2	0	0	1	0	6,375281890710280E+004	1,4034154E+000	1,4027970E+000	-7,509497727656675E-003	1,000000000000000E+000	-2,2930701E-001	41	-1,0534301E-005
2	0	0	1	0	6,379280280717730E+004	1,4154105E+000	1,4147598E+000	-6,447212446418563E-003	1,000000000000000E+000	-2,2958322E-001	41	-9,1212569E-006
2	0	0	1	0	6,383278720725176E+004	1,4274057E+000	1,4267538E+000	-5,331816477662385E-003	1,000000000000000E+000	-2,2981574E-001	41	-7,6071892E-006
2	0	0	1	0	6,387277120732609E+004	1,4394009E+000	1,4387959E+000	-4,155024825329395E-003	1,000000000000000E+000	-2,3000251E-001	42	-5,9782328E-006
2	0	0	1	0	6,391275520740065E+004	1,4513961E+000	1,4507639E+000	-2,979915145056270E-003	1,000000000000000E+000	-2,3014280E-001	42	-4,3231535E-006
2	0	0	1	0	6,395273940747511E+004	1,4633917E+000	1,4627593E+000	-1,736611938314187E-003	1,000000000000000E+000	-2,3023495E-001	42	-2,5402451E-006
2	0	0	1	0	6,399272340754961E+004	1,4753866E+000	1,4747576E+000	-4,155451740595999E-004	1,000000000000000E+000	-2,3027588E-001	43	-6,1282839E-007
2	1	0	1	0	6,403270770762407E+004	1,4873817E+000	1,4867830E+000	1,000638379577640E-003	1,000000000000000E+000	-2,3026392E-001	42	1,4877321E-006
2	1	0	1	0	6,407269170769851E+004	1,4993771E+000	1,4987121E+000	2,415966004658521E-003	1,000000000000000E+000	-2,3019436E-001	42	3,6208373E-006
2	1	0	1	0	6,411267590777299E+004	1,5113721E+000	1,5106832E+000	4,007724041215667E-003	1,000000000000000E+000	-2,3006405E-001	42	6,0544012E-006
2	1	0	1	0	6,415265990784758E+004	1,5233674E+000	1,5226741E+000	5,768209052782275E-003	1,000000000000000E+000	-2,2986643E-001	42	8,7831022E-006
2	1	0	1	0	6,419264390792203E+004	1,5353626E+000	1,5346248E+000	7,782124663962289E-003	1,000000000000000E+000	-2,2959392E-001	42	1,1942641E-005
2	1	0	1	0	6,423262830799649E+004	1,5473578E+000	1,5467222E+000	1,023088577290533E-002	1,000000000000000E+000	-2,2923273E-001	41	1,5824338E-005
2	1	0	1	0	6,427261230807094E+004	1,5593530E+000	1,5586896E+000	1,281917520476344E-002	1,000000000000000E+000	-2,2877036E-001	41	1,9981115E-005
2	1	0	1	0	6,431259630814544E+004	1,5713483E+000	1,5706738E+000	1,592163544536719E-002	1,000000000000000E+000	-2,2819534E-001	41	2,5007696E-005
2	1	0	1	0	6,435258020821994E+004	1,5833434E+000	1,5826566E+000	2,054861553122071E-002	1,000000000000000E+000	-2,2747068E-001	41	3,2521402E-005
2	1	0	1	0	6,439256420829427E+004	1,5953385E+000	1,5946649E+000	2,771481246785867E-002	1,000000000000000E+000	-2,2651067E-001	41	4,4195840E-005
2	1	0	1	0	6,443254860836873E+004	1,6073339E+000	1,6066412E+000	3,646884004456186E-002	1,000000000000000E+000	-2,2522777E-001	41	5,8592341E-005
2	1	0	1	0	6,447253280844353E+004	1,6193290E+000	1,6186504E+000	4,590177434329690E-002	1,000000000000000E+000	-2,2357911E-001	41	7,4298929E-005
2	1	0	1	0	6,451251680851774E+004	1,6313242E+000	1,6306061E+000	5,549976757696662E-002	1,000000000000000E+000	-2,2154884E-001	41	9,0498259E-005
2	1	0	1	0	6,455250080859225E+004	1,6433195E+000	1,6425967E+000	6,501404003633682E-002	1,000000000000000E+000	-2,1913594E-001	41	1,0679185E-004
2	1	0	1	0	6,459248470866669E+004	1,6553148E+000	1,6545702E+000	7,430923485951157E-002	1,000000000000000E+000	-2,1634610E-001	41	1,2294984E-004
2	1	0	1	0	6,463246930874127E+004	1,6673099E+000	1,6665494E+000	8,321795068681359E-002	1,000000000000000E+000	-2,1319143E-001	41	1,3868682E-004
2	1	0	1	0	6,467245330881575E+004	1,6793050E+000	1,6785803E+000	9,172312862650606E-002	1,000000000000000E+000	-2,0968905E-001	41	1,5396463E-004
2	1	0	1	0	6,471243730889021E+004	1,6913003E+000	1,6905735E+000	9,961935136160038E-002	1,000000000000000E+000	-2,0585838E-001	41	1,6841383E-004
2	1	0	1	0	6,475242130896467E+004	1,7032954E+000	1,7026285E+000	1,068806539327842E-001	1,000000000000000E+000	-2,0172478E-001	40	1,8197804E-004
2	1	0	1	0	6,479240550903912E+004	1,7152905E+000	1,7146331E+000	1,136233872872597E-001	1,000000000000000E+000	-1,9731081E-001	40	1,9482242E-004
2	1	0	1	0	6,483238990911358E+004	1,7272859E+000	1,7266124E+000	1,197244999778464E-001	1,000000000000000E+000	-1,9264063E-001	40	2,0671781E-004
2	1	0	1	0	6,487237380918814E+004	1,7392809E+000	1,7386065E+000	1,251328183595466E-001	1,000000000000000E+000	-1,8774025E-001	40	2,1755672E-004
2	1	0	1	0	6,491235780926247E+004	1,7512763E+000	1,7506077E+000	1,299692063048459E-001	1,000000000000000E+000	-1,8263553E-001	40	2,2752510E-004
2	1	0	1	0	6,495234200933704E+004	1,7632715E+000	1,7625980E+000	1,341690013104633E-001	1,000000000000000E+000	-1,7735021E-001	40	2,3648601E-004
2	1	0	1	0	6,499232600941160E+004	1,7752668E+000	1,7746081E+000	1,377187665526756E-001	1,000000000000000E+000	-1,7190920E-001	40	2,4439686E-004
2	1	0	1	0	6,503231040948606E+004	1,7872618E+000	1,7865995E+000	1,407518432374868E-001	1,000000000000000E+000	-1,6633752E-001	40	2,5146717E-004
2	1	0	1	0	6,507229440956051E+004	1,7992570E+000	1,7986087E+000	1,431179972256198E-001	1,000000000000000E+000	-1,6065797E-001	40	2,5741328E-004
2	1	0	1	0	6,511227840963495E+004	1,8112522E+000	1,8105791E+000	1,448713237390124E-001	1,000000000000000E+000	-1,5489537E-001	40	2,6230098E-004
2	1	0	1	0	6,515226230970945E+004	1,8232474E+000	1,8225439E+000	1,460980326809490E-001	1,000000000000000E+000	-1,4907284E-001	40	2,6627007E-004
2	1	0	1	0	6,519224630978392E+004	1,8352426E+000	1,8345838E+000	1,467530744976375E-001	1,000000000000000E+000	-1,4321335E-001	40	2,6923080E-004
2	1	0	1	0	6,523223070985838E+004	1,8472379E+000	1,8465867E+000	1,468128524152492E-001	1,000000000000000E+000	-1,3733986E-001	40	2,7110268E-004
2	1	0	1	0	6,527221470993283E+004	1,8592331E+000	1,8585989E+000	1,461991389447692E-001	1,000000000000000E+000	-1,3147740E-001	40	2,7172556E-004
2	1	0	1	0	6,531219891000728E+004	1,8712283E+000	1,8705910E+000	1,449500212855055E-001	1,000000000000000E+000	-1,2565213E-001	40	2,7114220E-004
2	1	0	1	0	6,535218291008176E+004	1,8832235E+000	1,8825645E+000	1,430016351128947E-001	1,000000000000000E+000	-1,1989116E-001	40	2,6920982E-004
2	1	0	1	0	6,539216691015626E+004	1,8952187E+000	1,8945544E+000	1,403462169633940E-001	1,000000000000000E+000	-1,1422177E-001	40	2,6589353E-004
2	1	0	1	0	6,543215121023078E+004	1,9072138E+000	1,9065367E+000	1,370760946503749E-001	1,000000000000000E+000	-1,0867118E-001	40	2,6134061E-004
2	1	0	1	0	6,547213541030523E+004	1,9192090E+000	1,9185321E+000	1,332172857037524E-001	1,000000000000000E+000	-1,0326277E-001	40	2,5558163E-004
2	1	0	1	0	6,551211941037967E+004	1,9312043E+000	1,9305435E+000	1,287396541356981E-001	1,000000000000000E+000	-9,8022260E-002	40	2,4853752E-004
2	1	0	1	0	6,555210340660217E+004	1,9431998E+000	1,9425265E+000	1,237648767259227E-001	1,000000000000000E+000	-9,2970453E-002	40	2,4041654E-004
2	1	0	1	0	6,559208739716292E+004	1,9551948E+000	1,9545493E+000	1,181303683531518E-001	1,000000000000000E+000	-8,8130094E-002	40	2,3089163E-004
2	1	0	1	0	6,563207178768108E+004	1,9671901E+000	1,9665278E+000	1,120739077705875E-001	1,000000000000000E+000	-8,3523043E-002	40	2,2039645E-004
2	1	0	1	0	6,567205577820248E+004	1,9791851E+000	1,9785060E+000	1,055976331835322E-001	1,000000000000000E+000	-7,9168841E-002	40	2,0892554E-004
2	1	0	1	0	6,571203966876655E+004	1,9911803E+000	1,9905591E+000	9,882797199022364E-002	1,000000000000000E+000	-7,5079687E-002	40	1,9672292E-004
2	1	0	1	0	6,575202385933010E+004	2,0031755E+000	2,0025191E+000	9,163369679341526E-002	1,000000000000000E+000	-7,1269378E-002	40	1,8349822E-004
2	1	0	1	0	6,579200784985132E+004	2,0151706E+000	2,0145493E+000	8,438436631651036E-002	1,000000000000000E+000	-6,7748472E-002	40	1,6999646E-004
2	1	0	1	0	6,583199264037039E+004	2,0271659E+000	2,0265129E+000	7,753845934133385E-002	1,000000000000000E+000	-6,4511530E-002	40	1,5713269E-004
2	1	0	1	0	6,587197703093186E+004	2,0391610E+000	2,0385153E+000	7,131215215945452E-002	1,000000000000000E+000	-6,1535470E-002	40	1,4537091E-004
2	1	0	1	0	6,591196062149797E+004	2,0511560E+000	2,0505333E+000	6,577981172950159E-002	1,000000000000000E+000	-5,8795180E-002	40	1,3488370E-004
2	1	0	1	0	6,595194501202265E+004	2,0631514E+000	2,0624983E+000	6,084455678951639E-002	1,000000000000000E+000	-5,6263037E-002	40	1,2549180E-004
2	1	0	1	0	6,599192900254129E+004	2,0751469E+000	2,0745051E+000	5,652797226601412E-002	1,000000000000000E+000	-5,3915482E-002	40	1,1726757E-004
2	1	0	1	0	6,603191329309857E+004	2,0871422E+000	2,0864878E+000	5,268758925293554E-002	1,000000000000000E+000	-5,1730450E-002	40	1,0993201E-004
2	1	0	1	0	6,607189728366514E+004	2,0991371E+000	2,0984855E+000	4,928402170869539E-002	1,000000000000000E+000	-4,9690977E-002	40	1,0342180E-004
2	1	0	1	0	6,611188127419422E+004	2,1111326E+000	2,1104641E+000	4,646512637963451E-002	1,000000000000000E+000	-4,7773980E-002	41	9,8062977E-005
2	1	0	1	0	6,615186526471190E+004	2,1231275E+000	2,1224766E+000	4,390173926610352E-002	1,000000000000000E+000	-4,5966458E-002	41	9,3180410E-005
2	1	0	1	0	6,619184925526334E+004	2,1351230E+000	2,1344171E+000	4,164850003645165E-002	1,000000000000000E+000	-4,4255372E-002	41	8,8895271E-005
2	1	0	1	0	6,623183354582917E+004	2,1471181E+000	2,1464448E+000	3,964080774691792E-002	1,000000000000000E+000	-4,2628635E-002	41	8,5086809E-005
2	1	0	1	0	6,627181753636384E+004	2,1591132E+000	2,1584437E+000	3,787183682143169E-002	1,000000000000000E+000	-4,1077405E-002	41	8,1744227E-005
2	1	0	1	0	6,631180192688201E+004	2,1711085E+000	2,1704373E+000	3,630130717598472E-002	1,000000000000000E+000	-3,9592642E-002	41	7,8789715E-005
2	1	0	1	0	6,635178551742900E+004	2,1831036E+000	2,1824505E+000	3,483934038943731E-002	1,000000000000000E+000	-3,8168106E-002	41	7,6035140E-005
2	1	0	1	0	6,639176990799536E+004	2,1950989E+000	2,1944332E+000	3,356915979755326E-002	1,000000000000000E+000	-3,6798246E-002	41	7,3665280E-005
2	1	0	1	0	6,643175429853564E+004	2,2070942E+000	2,2064598E+000	3,238734717667147E-002	1,000000000000000E+000	-3,5477038E-002	41	7,1461378E-005
2	1	0	1	0	6,647173828905378E+004	2,2190890E+000	2,2184527E+000	3,132696099800290E-002	1,000000000000000E+000	-3,4200948E-002	41	6,9497379E-005
2	1	0	1	0	6,651172227959568E+004	2,2310846E+000	2,2304578E+000	3,030157178028203E-002	1,000000000000000E+000	-3,2967031E-002	41	6,7586378E-005
2	1	0	1	0	6,655170627016248E+004	2,2430794E+000	2,2424111E+000	2,936296024804719E-002	1,000000000000000E+000	-3,1771731E-002	41	6,5843829E-005
2	1	0	1	0	6,659169016070757E+004	2,2550745E+000	2,2544265E+000	2,847168120065174E-002	1,000000000000000E+000	-3,0614011E-002	41	6,4187312E-005
2	1	0	1	0	6,663167455122573E+004	2,2670701E+000	2,2664397E+000	2,764431490343400E-002	1,000000000000000E+000	-2,9490111E-002	41	6,2654173E-005
2	1	0	1	0	6,667165854176180E+004	2,2790651E+000	2,2784035E+000	2,691954306467248E-002	1,000000000000000E+000	-2,8396888E-002	41	6,1333580E-005
2	1	0	1	0	6,671164253232814E+004	2,2910607E+000	2,2903895E+000	2,620869970955608E-002	1,000000000000000E+000	-2,7332596E-002	41	6,0028131E-005
2	1	0	1	0	6,675162692287797E+004	2,3030560E+000	2,3024092E+000	2,553775622466742E-002	1,000000000000000E+000	-2,6295925E-002	41	5,8798363E-005
2	1	0	1	0	6,679161051339575E+004	2,3150508E+000	2,3143985E+000	2,491402879503624E-002	1,000000000000000E+000	-2,5284074E-002	41	5,7660993E-005
2	1	0	1	0	6,683159520392644E+004	2,3270459E+000	2,3263953E+000	2,435422558240896E-002	1,000000000000000E+000	-2,4296734E-002	41	5,6657555E-005
2	1	0	1	0	6,687157919449313E+004	2,3390412E+000	2,3384047E+000	2,379794539925079E-002	1,000000000000000E+000	-2,3331562E-002	41	5,5649227E-005
2	1	0	1	0	6,691156318504899E+004	2,3510365E+000	2,3503988E+000	2,329348691255728E-002	1,000000000000000E+000	-2,2387343E-002	41	5,4748984E-005
2	1	0	1	0	6,695154717556763E+004	2,3630319E+000	2,3624055E+000	2,284996007646968E-002	1,000000000000000E+000	-2,1462070E-002	41	5,3980872E-005
2	1	0	1	0	6,699153116609369E+004	2,3750269E+000	2,3743668E+000	2,241150199353009E-002	1,000000000000000E+000	-2,0554623E-002	41	5,3213127E-005
2	1	0	1	0	6,703151555665981E+004	2,3870220E+000	2,3863869E+000	2,202836336594849E-002	1,000000000000000E+000	-1,9663375E-002	41	5,2568197E-005
2	1	0	1	0	6,707149954722042E+004	2,3990171E+000	2,3983705E+000	2,170151105668639E-002	1,000000000000000E+000	-1,8786823E-002	41	5,2048264E-005
2	1	0	1	0	6,711148343773815E+004	2,4110124E+000	2,4103594E+000	2,138233249964228E-002	1,000000000000000E+000	-1,7922956E-002	41	5,1539108E-005
2	1	0	1	0	6,715146742826002E+004	2,4230075E+000	2,4223971E+000	2,111664208720630E-002	1,000000000000000E+000	-1,7070845E-002	41	5,1152892E-005
2	1	0	1	0	6,719145141882438E+004	2,4350026E+000	2,4343421E+000	2,085925845351529E-002	1,000000000000000E+000	-1,6229387E-002	41	5,0778573E-005
2	1	0	1	0	6,723143580938771E+004	2,4469981E+000	2,4463365E+000	2,061952415825163E-002	1,000000000000000E+000	-1,5397708E-002	41	5,0442293E-005
2	1	0	1	0	6,727142019990843E+004	2,4589934E+000	2,4583766E+000	2,034304107040810E-002	1,000000000000000E+000	-1,4576444E-002	41	5,0010858E-005
2	1	0	1	0	6,731140379042807E+004	2,4709888E+000	2,4703479E+000	2,005714870043579E-002	1,000000000000000E+000	-1,3766189E-002	41	4,9548136E-005
2	1	0	1	0	6,735138818098977E+004	2,4829838E+000	2,4823337E+000	1,974003019106093E-002	1,000000000000000E+000	-1,2968001E-002	41	4,9001341E-005
2	1	0	1	0	6,739137207155582E+004	2,4949791E+000	2,4943483E+000	1,945678643796628E-002	1,000000000000000E+000	-1,2181858E-002	41	4,8532002E-005
2	1	0	1	0	6,743135646207980E+004	2,5069740E+000	2,5063565E+000	1,914283784164894E-002	1,000000000000000E+000	-1,1407685E-002	41	4,7978774E-005
2	1	0	1	0	6,747134045259864E+004	2,5189693E+000	2,5183399E+000	1,882588277500324E-002	1,000000000000000E+000	-1,0646190E-002	41	4,7409972E-005
2	1	0	1	0	6,751132444315706E+004	2,5309644E+000	2,5303230E+000	1,852659367162826E-002	1,000000000000000E+000	-9,8966314E-003	41	4,6878267E-005
2	1	0	1	0	6,755130843372410E+004	2,5429597E+000	2,5423474E+000	1,820843053217064E-002	1,000000000000000E+000	-9,1595845E-003	41	4,6292156E-005
2	1	0	1	0	6,759129242425226E+004	2,5549550E+000	2,5543163E+000	1,785730599305524E-002	1,000000000000000E+000	-8,4354719E-003	41	4,5613207E-005
2	1	0	1	0	6,763127681476995E+004	2,5669503E+000	2,5662851E+000	1,753737573773090E-002	1,000000000000000E+000	-7,7254563E-003	41	4,5005905E-005
2	1	0	1	0	6,767126070532226E+004	2,5789456E+000	2,5782981E+000	1,720783888823776E-002	1,000000000000000E+000	-7,0283408E-003	41	4,4366938E-005
2	1	0	1	0	6,771124509588815E+004	2,5909407E+000	2,5902915E+000	1,689232834194404E-002	1,000000000000000E+000	-6,3440176E-003	41	4,3756056E-005
2	1	0	1	0	6,775122868642188E+004	2,6029358E+000	2,6022863E+000	1,664894057045756E-002	1,000000000000000E+000	-5,6711757E-003	41	4,3325312E-005
2	1	0	1	0	6,779121307694004E+004	2,6149311E+000	2,6143348E+000	1,643752298488699E-002	1,000000000000000E+000	-5,0074318E-003	41	4,2973188E-005
2	1	0	1	0	6,783119706748752E+004	2,6269262E+000	2,6263044E+000	1,621309672482759E-002	1,000000000000000E+000	-4,3522539E-003	41	4,2580526E-005
2	1	0	1	0	6,787118145805411E+004	2,6389215E+000	2,6383247E+000	1,596970340473450E-002	1,000000000000000E+000	-3,7064748E-003	41	4,2133262E-005
2	1	0	1	0	6,791116544859344E+004	2,6509166E+000	2,6502802E+000	1,573057073886686E-002	1,000000000000000E+000	-3,0702769E-003	41	4,1690422E-005
2	1	0	1	0	6,795114933911164E+004	2,6629117E+000	2,6622651E+000	1,547137004120987E-002	1,000000000000000E+000	-2,4439623E-003	41	4,1188887E-005
2	1	0	1	0	6,799113332965400E+004	2,6749070E+000	2,6743045E+000	1,520792979278160E-002	1,000000000000000E+000	-1,8277671E-003	41	4,0670635E-005
2	1	0	1	0	6,803111772022059E+004	2,6869020E+000	2,6862614E+000	1,496547863993661E-002	1,000000000000000E+000	-1,2220199E-003	41	4,0201186E-005
2	1	0	1	0	6,807110171076497E+004	2,6988976E+000	2,6982653E+000	1,469635200400535E-002	1,000000000000000E+000	-6,2644167E-004	41	3,9654657E-005
2	1	0	1	0	6,811108570128311E+004	2,7108927E+000	2,7102835E+000	1,447261720562792E-002	1,000000000000000E+000	-4,0770436E-005	41	3,9224895E-005
2	1	0	1	0	6,815106969181990E+004	2,7228878E+000	2,7222650E+000	1,424238598633404E-002	1,000000000000000E+000	5,3538015E-004	41	3,8771548E-005
2	1	0	1	0	6,819105368238629E+004	2,7348831E+000	2,7342758E+000	1,400978097394534E-002	1,000000000000000E+000	1,1028154E-003	41	3,8306604E-005
2	1	0	1	0	6,823103797293513E+004	2,7468777E+000	2,7462530E+000	1,385080160120500E-002	1,000000000000000E+000	1,6622301E-003	41	3,8037804E-005
2	1	0	1	0	6,827102196345292E+004	2,7588732E+000	2,7582805E+000	1,366844992278166E-002	1,000000000000000E+000	2,2149177E-003	41	3,7701418E-005
2	1	0	1	0	6,831100635398412E+004	2,7708685E+000	2,7702539E+000	1,355334919734345E-002	1,000000000000000E+000	2,7616071E-003	41	3,7546219E-005
2	1	0	1	0	6,835098994455091E+004	2,7828636E+000	2,7822230E+000	1,344857515093928E-002	1,000000000000000E+000	3,3040489E-003	41	3,7416936E-005
2	1	0	1	0	6,839097433510586E+004	2,7948589E+000	2,7942622E+000	1,341742174390418E-002	1,000000000000000E+000	3,8435773E-003	41	3,7491795E-005
2	1	0	1	0	6,843095872562425E+004	2,8068538E+000	2,8062382E+000	1,338937179443944E-002	1,000000000000000E+000	4,3816925E-003	41	3,7573765E-005
2	1	0	1	0	6,847094271615148E+004	2,8188493E+000	2,8182364E+000	1,339731985753739E-002	1,000000000000000E+000	4,9200221E-003	41	3,7756814E-005
2	1	0	1	0	6,851092660671799E+004	2,8308446E+000	2,8302426E+000	1,341666312975059E-002	1,000000000000000E+000	5,4588490E-003	41	3,7972412E-005
2	1	0	1	0	6,855091059727804E+004	2,8428397E+000	2,8422139E+000	1,341745596942651E-002	1,000000000000000E+000	5,9982101E-003	41	3,8135280E-005
2	1	0	1	0	6,859089458779595E+004	2,8548353E+000	2,8542502E+000	1,337156349600292E-002	1,000000000000000E+000	6,5369331E-003	41	3,8165788E-005
2	1	0	1	0	6,863087897831830E+004	2,8668301E+000	2,8662081E+000	1,332836922158470E-002	1,000000000000000E+000	7,0739891E-003	41	3,8201881E-005
2	1	0	1	0	6,867086296888324E+004	2,8788257E+000	2,8781838E+000	1,321619897123938E-002	1,000000000000000E+000	7,6066451E-003	41	3,8038652E-005
2	1	0	1	0	6,871084695944656E+004	2,8908203E+000	2,8902054E+000	1,305613171928743E-002	1,000000000000000E+000	8,1348643E-003	41	3,7734902E-005
2	1	0	1	0	6,875083094996680E+004	2,9028158E+000	2,9021902E+000	1,291178311382307E-002	1,000000000000000E+000	8,6570801E-003	41	3,7472451E-005
2	1	0	1	0	6,879081494048657E+004	2,9148109E+000	2,9142232E+000	1,275869979274166E-002	1,000000000000000E+000	9,1725616E-003	41	3,7181700E-005
2	1	0	1	0	6,883079963104846E+004	2,9268062E+000	2,9262233E+000	1,258914397246008E-002	1,000000000000000E+000	9,6818190E-003	41	3,6838646E-005
2	1	0	1	0	6,887078322161408E+004	2,9388015E+000	2,9382246E+000	1,249208871326971E-002	1,000000000000000E+000	1,0186076E-002	41	3,6704561E-005
2	1	0	1	0	6,891076761213760E+004	2,9507971E+000	2,9502225E+000	1,242489760291880E-002	1,000000000000000E+000	1,0686988E-002	41	3,6656213E-005
2	1	0	1	0	6,895075160265656E+004	2,9627919E+000	2,9621851E+000	1,238005757975569E-002	1,000000000000000E+000	1,1185281E-002	41	3,6672023E-005
2	1	0	1	0	6,899073559321568E+004	2,9747870E+000	2,9741881E+000	1,240646512899207E-002	1,000000000000000E+000	1,1682588E-002	41	3,6899160E-005
2	1	0	1	0	6,903071998378227E+004	2,9867821E+000	2,9861782E+000	1,239859780119814E-002	1,000000000000000E+000	1,2180471E-002	41	3,7024423E-005
2	1	0	1	0	6,907070387430990E+004	2,9987774E+000	2,9981756E+000	1,240192313739058E-002	1,000000000000000E+000	1,2678793E-002	41	3,7183145E-005
2	1	0	1	1	6,910668936577020E+004	2,9904809E+000	2,9898663E+000	9,139237889456302E-003	1,000000000000000E+000	1,3048731E-002	41	2,7325099E-005
2	1	0	1	1	6,914667335633433E+004	2,9784853E+000	2,9778962E+000	7,722427089984052E-003	1,000000000000000E+000	1,3381600E-002	41	2,2996586E-005
2	1	0	1	1	6,918665734689718E+004	2,9664905E+000	2,9659026E+000	6,713120835928260E-003	1,000000000000000E+000	1,3666681E-002	41	1,9910462E-005
2	1	0	1	1	6,922664173741790E+004	2,9544950E+000	2,9539027E+000	5,901347176244118E-003	1,000000000000000E+000	1,3915693E-002	41	1,7432005E-005
2	1	0	1	1	6,926662532793725E+004	2,9425001E+000	2,9418774E+000	5,244350802806955E-003	1,000000000000000E+000	1,4135988E-002	41	1,5428237E-005
2	1	0	1	1	6,930660961849897E+004	2,9305046E+000	2,9298863E+000	4,702192273908605E-003	1,000000000000000E+000	1,4332311E-002	42	1,3776889E-005
2	1	0	1	1	6,934659320906509E+004	2,9185095E+000	2,9178567E+000	4,220231333124588E-003	1,000000000000000E+000	1,4508114E-002	42	1,2314030E-005
2	1	0	1	1	6,938657719958882E+004	2,9065142E+000	2,9058814E+000	3,809164191284048E-003	1,000000000000000E+000	1,4666134E-002	42	1,1068980E-005
2	1	0	1	1	6,942656119010702E+004	2,8945191E+000	2,8938813E+000	3,448630221133839E-003	1,000000000000000E+000	1,4808608E-002	42	9,9799263E-006
2	1	0	1	1	6,946654518066533E+004	2,8825238E+000	2,8818722E+000	3,122769230722890E-003	1,000000000000000E+000	1,4937260E-002	42	8,9994219E-006
2	1	0	1	1	6,950652917123190E+004	2,8705285E+000	2,8698983E+000	2,823573457794389E-003	1,000000000000000E+000	1,5053350E-002	42	8,1033686E-006
2	1	0	1	1	6,954651276176120E+004	2,8585334E+000	2,8578949E+000	2,542045689420406E-003	1,000000000000000E+000	1,5158027E-002	42	7,2648995E-006
2	1	0	1	1	6,958649675227958E+004	2,8465385E+000	2,8458898E+000	2,307049715270165E-003	1,000000000000000E+000	1,5252577E-002	42	6,5656091E-006
2	1	0	1	1	6,962648074283241E+004	2,8345430E+000	2,8339133E+000	2,089773247563917E-003	1,000000000000000E+000	1,5337915E-002	42	5,9222361E-006
2	1	0	1	1	6,966646463339916E+004	2,8225479E+000	2,8219562E+000	1,900278847564130E-003	1,000000000000000E+000	1,5415157E-002	42	5,3625035E-006
2	1	0	1	1	6,970644862393197E+004	2,8105526E+000	2,8099554E+000	1,737028496250875E-003	1,000000000000000E+000	1,5485167E-002	42	4,8809725E-006
2	1	0	1	1	6,974643261444988E+004	2,7985573E+000	2,7979279E+000	1,585220530975536E-003	1,000000000000000E+000	1,5548843E-002	42	4,4353328E-006
2	1	0	1	1	6,978641620499711E+004	2,7865622E+000	2,7859499E+000	1,444351030753422E-003	1,000000000000000E+000	1,5606891E-002	42	4,0238897E-006
2	1	0	1	1	6,982640059556370E+004	2,7745669E+000	2,7739558E+000	1,320046640498104E-003	1,000000000000000E+000	1,5659973E-002	42	3,6617510E-006
2	1	0	1	1	6,986638458610291E+004	2,7625716E+000	2,7619429E+000	1,228606806904307E-003	1,000000000000000E+000	1,5708517E-002	42	3,3933418E-006
2	1	0	1	1	6,990636857662152E+004	2,7505765E+000	2,7499664E+000	1,124068593820356E-003	1,000000000000000E+000	1,5753107E-002	42	3,0911508E-006
2	1	0	1	1	6,994635206716449E+004	2,7385817E+000	2,7379797E+000	1,031567698247084E-003	1,000000000000000E+000	1,5793856E-002	42	2,8244115E-006
2	1	0	1	1	6,998633605773063E+004	2,7265861E+000	2,7259665E+000	9,475598303040332E-004	1,000000000000000E+000	1,5831046E-002	42	2,5830163E-006
2	1	0	1	1	7,002632004827488E+004	2,7145910E+000	2,7139812E+000	8,643202832682370E-004	1,000000000000000E+000	1,5864801E-002	42	2,3457490E-006
2	1	0	1	1	7,006630403879267E+004	2,7025959E+000	2,7019765E+000	7,686186604715696E-004	1,000000000000000E+000	1,5894959E-002	42	2,0767895E-006
2	1	0	1	1	7,010628802932950E+004	2,6906006E+000	2,6899142E+000	6,595767031838499E-004	1,000000000000000E+000	1,5921453E-002	43	1,7742047E-006
2	1	0	1	1	7,014627161989571E+004	2,6786056E+000	2,6779191E+000	5,816596040961572E-004	1,000000000000000E+000	1,5944473E-002	43	1,5576373E-006
2	1	0	1	1	7,018625561044482E+004	2,6666105E+000	2,6659241E+000	4,725570082549143E-004	1,000000000000000E+000	1,5963633E-002	43	1,2598011E-006
2	1	0	1	1	7,022623960096319E+004	2,6546152E+000	2,6539726E+000	3,721904761027992E-004	1,000000000000000E+000	1,5978647E-002	43	9,8778332E-007
2	1	0	1	1	7,026622389149480E+004	2,6426201E+000	2,6419883E+000	2,283461728022134E-004	1,000000000000000E+000	1,5988735E-002	43	6,0328790E-007
2	1	0	1	1	7,030620748206112E+004	2,6306248E+000	2,6300018E+000	7,519391493168644E-005	1,000000000000000E+000	1,5992802E-002	43	1,9776013E-007
2	0	0	1	1	7,034719087238121E+004	2,6183293E+000	2,6177590E+000	-1,049103561476241E-004	1,000000000000000E+000	1,5989978E-002	43	-2,7463003E-007
2	0	0	1	1	7,038717486290005E+004	2,6063344E+000	2,6057675E+000	-2,577173645354008E-004	1,000000000000000E+000	1,5980534E-002	43	-6,7155150E-007
2	0	0	1	1	7,042715875342418E+004	2,5943391E+000	2,5937691E+000	-3,660962784647840E-004	1,000000000000000E+000	1,5965713E-002	43	-9,4956920E-007
2	0	0	1	1	7,046714274399029E+004	2,5823438E+000	2,5818021E+000	-4,480657445546199E-004	1,000000000000000E+000	1,5947273E-002	43	-1,1568171E-006
2	0	0	1	1	7,050712713455269E+004	2,5703485E+000	2,5697932E+000	-5,095769167115646E-004	1,000000000000000E+000	1,5926229E-002	43	-1,3095073E-006
2	0	0	1	1	7,054711032507266E+004	2,5583537E+000	2,5577989E+000	-5,695927050382559E-004	1,000000000000000E+000	1,5902709E-002	43	-1,4569035E-006
2	0	0	1	1	7,058709471559292E+004	2,5463581E+000	2,5458014E+000	-6,445858045962477E-004	1,000000000000000E+000	1,5876433E-002	43	-1,6409874E-006
2	0	0	1	1	7,062707870615553E+004	2,5343633E+000	2,5338407E+000	-7,336532328505799E-004	1,000000000000000E+000	1,5847044E-002	43	-1,8589604E-006
2	0	0	1	1	7,066706269671980E+004	2,5223677E+000	2,5218937E+000	-8,158860004078648E-004	1,000000000000000E+000	1,5814248E-002	43	-2,0575778E-006
2	0	0	1	1	7,070704668724192E+004	2,5103729E+000	2,5097756E+000	-9,042917186182983E-004	1,000000000000000E+000	1,5777325E-002	42	-2,2695692E-006
2	0	0	1	1	7,074703017776005E+004	2,4983778E+000	2,4978020E+000	-1,010466458095613E-003	1,000000000000000E+000	1,5736997E-002	42	-2,5239451E-006
2	0	0	1	1	7,078701416832011E+004	2,4863820E+000	2,4857712E+000	-1,088049491705185E-003	1,000000000000000E+000	1,5693063E-002	42	-2,7046422E-006
2	0	0	1	1	7,082699815888691E+004	2,4743872E+000	2,4737766E+000	-1,175791972328430E-003	1,000000000000000E+000	1,5645424E-002	42	-2,9086466E-006
2	0	0	1	1	7,086698214941286E+004	2,4623916E+000	2,4617856E+000	-1,265590195998419E-003	1,000000000000000E+000	1,5594121E-002	42	-3,1156117E-006
2	0	0	1	1	7,090696613993123E+004	2,4503968E+000	2,4497924E+000	-1,369527444283208E-003	1,000000000000000E+000	1,5538907E-002	42	-3,3550580E-006
2	0	0	1	1	7,094694973048707E+004	2,4384015E+000	2,4378049E+000	-1,468746190097125E-003	1,000000000000000E+000	1,5479604E-002	42	-3,5805167E-006
2	0	0	1	1	7,098693372105411E+004	2,4264064E+000	2,4258249E+000	-1,565933279639803E-003	1,000000000000000E+000	1,5416385E-002	42	-3,7986799E-006
2	0	0	1	1	7,102691801158548E+004	2,4144108E+000	2,4137967E+000	-1,652210990072595E-003	1,000000000000000E+000	1,5349444E-002	42	-3,9881015E-006
2	0	0	1	1	7,106690160210407E+004	2,4024158E+000	2,4017935E+000	-1,732230437589246E-003	1,000000000000000E+000	1,5279313E-002	42	-4,1604599E-006
2	0	0	1	1	7,110688599265390E+004	2,3904204E+000	2,3898313E+000	-1,787617727046019E-003	1,000000000000000E+000	1,5206452E-002	42	-4,2721049E-006
2	0	0	1	1	7,114686958322069E+004	2,3784254E+000	2,3778386E+000	-1,850260954454740E-003	1,000000000000000E+000	1,5131317E-002	42	-4,3996220E-006
2	0	0	1	1	7,118685357375653E+004	2,3664303E+000	2,3658442E+000	-1,903938194205902E-003	1,000000000000000E+000	1,5053912E-002	42	-4,5044212E-006
2	0	0	1	1	7,122683756427432E+004	2,3544352E+000	2,3538387E+000	-1,959904730183065E-003	1,000000000000000E+000	1,4974155E-002	42	-4,6132996E-006
2	0	0	1	1	7,126682155481854E+004	2,3424399E+000	2,3418763E+000	-2,021178797713120E-003	1,000000000000000E+000	1,4892165E-002	42	-4,7333506E-006
2	0	0	1	1	7,130680554538511E+004	2,3304448E+000	2,3298326E+000	-2,085364214307222E-003	1,000000000000000E+000	1,4807552E-002	42	-4,8585493E-006
2	0	0	1	1	7,134678903592701E+004	2,3184495E+000	2,3178623E+000	-2,150825198371684E-003	1,000000000000000E+000	1,4720288E-002	42	-4,9853165E-006
2	0	0	1	1	7,138677302644565E+004	2,3064542E+000	2,3058834E+000	-2,236688336900730E-003	1,000000000000000E+000	1,4630130E-002	42	-5,1575425E-006
2	0	0	1	1	7,142675701698568E+004	2,2944593E+000	2,2938590E+000	-2,310949171397764E-003	1,000000000000000E+000	1,4536789E-002	42	-5,3009917E-006
2	0	0	1	1	7,146674140755180E+004	2,2824638E+000	2,2818685E+000	-2,403014500461868E-003	1,000000000000000E+000	1,4439962E-002	42	-5,4833631E-006
2	0	0	1	1	7,150672499809891E+004	2,2704687E+000	2,2698760E+000	-2,500616294188178E-003	1,000000000000000E+000	1,4339450E-002	42	-5,6760891E-006
2	0	0	1	1	7,154670898861683E+004	2,2584736E+000	2,2578843E+000	-2,596718431880980E-003	1,000000000000000E+000	1,4235070E-002	42	-5,8630899E-006
2	0	0	1	1	7,158669297915068E+004	2,2464781E+000	2,2458692E+000	-2,704519674725937E-003	1,000000000000000E+000	1,4126408E-002	42	-6,0739972E-006
2	0	0	1	1	7,162667686971719E+004	2,2344828E+000	2,2339015E+000	-2,818632942908461E-003	1,000000000000000E+000	1,4013426E-002	42	-6,2965482E-006
2	0	0	1	1	7,166666086026933E+004	2,2224879E+000	2,2218995E+000	-2,947967449801168E-003	1,000000000000000E+000	1,3895497E-002	42	-6,5500876E-006
2	0	0	1	1	7,170664485078771E+004	2,2104924E+000	2,2099199E+000	-3,076501547566106E-003	1,000000000000000E+000	1,3772526E-002	42	-6,7988221E-006
2	0	0	1	1	7,174662844131677E+004	2,1984973E+000	2,1978979E+000	-3,218931079408585E-003	1,000000000000000E+000	1,3644088E-002	42	-7,0748820E-006
2	0	0	1	1	7,178661243188288E+004	2,1865022E+000	2,1859310E+000	-3,375776699990590E-003	1,000000000000000E+000	1,3509716E-002	42	-7,3792148E-006
2	0	0	1	1	7,182659642244037E+004	2,1745069E+000	2,1738889E+000	-3,534168692873258E-003	1,000000000000000E+000	1,3369081E-002	42	-7,6828901E-006
2	0	0	1	1	7,186658041295898E+004	2,1625121E+000	2,1619081E+000	-3,711555022677969E-003	1,000000000000000E+000	1,3221730E-002	42	-8,0240407E-006
2	0	0	1	1	7,190656440348353E+004	2,1505167E+000	2,1498969E+000	-3,891624638824392E-003	1,000000000000000E+000	1,3067232E-002	42	-8,3665918E-006
2	0	0	1	1	7,194654799405020E+004	2,1385214E+000	2,1379292E+000	-4,089718097324654E-003	1,000000000000000E+000	1,2905319E-002	42	-8,7435274E-006
2	0	0	1	1	7,198653228461207E+004	2,1265261E+000	2,1259325E+000	-4,292227882897987E-003	1,000000000000000E+000	1,2735156E-002	42	-9,1249867E-006
2	0	0	1	1	7,202651587513130E+004	2,1145313E+000	2,1139312E+000	-4,528025232237984E-003	1,000000000000000E+000	1,2556533E-002	42	-9,5719333E-006
2	0	0	1	1	7,206650026565202E+004	2,1025357E+000	2,1019607E+000	-4,745182522221711E-003	1,000000000000000E+000	1,2368859E-002	42	-9,9741874E-006
2	0	0	1	1	7,210648425621515E+004	2,0905404E+000	2,0899723E+000	-4,983286390316517E-003	1,000000000000000E+000	1,2171533E-002	42	-1,0414930E-005
2	0	0	1	1	7,214646784677892E+004	2,0785453E+000	2,0779827E+000	-5,245822716333198E-003	1,000000000000000E+000	1,1964274E-002	42	-1,0900729E-005
2	0	0	1	1	7,218645183730056E+004	2,0665500E+000	2,0660062E+000	-5,525797006367267E-003	1,000000000000000E+000	1,1746396E-002	42	-1,1416330E-005
2	0	0	1	1	7,222643582781905E+004	2,0545549E+000	2,0540073E+000	-5,806645188448617E-003	1,000000000000000E+000	1,1517277E-002	42	-1,1926892E-005
2	0	0	1	1	7,226641971837985E+004	2,0425596E+000	2,0419903E+000	-6,112863683054338E-003	1,000000000000000E+000	1,1276308E-002	42	-1,2482408E-005
2	0	0	1	1	7,230640370894666E+004	2,0305643E+000	2,0300262E+000	-6,410459217724374E-003	1,000000000000000E+000	1,1023280E-002	42	-1,3013400E-005
2	0	0	1	1	7,234638729947223E+004	2,0185695E+000	2,0180242E+000	-6,732901373274605E-003	1,000000000000000E+000	1,0757783E-002	42	-1,3587158E-005
2	0	0	1	1	7,238637128999084E+004	2,0065739E+000	2,0060296E+000	-7,043469870832347E-003	1,000000000000000E+000	1,0479724E-002	42	-1,4129409E-005
2	0	0	1	1	7,242635568054696E+004	1,9945788E+000	1,9940519E+000	-7,358646841179442E-003	1,000000000000000E+000	1,0189110E-002	42	-1,4673524E-005
2	0	0	1	1	7,246633967111353E+004	1,9825839E+000	1,9820288E+000	-7,671090632368233E-003	1,000000000000000E+000	9,8859789E-003	42	-1,5204323E-005
2	0	0	1	1	7,250632386164460E+004	1,9705887E+000	1,9700212E+000	-7,994646878419082E-003	1,000000000000000E+000	9,5702093E-003	42	-1,5749623E-005
2	0	0	1	1	7,254630775216268E+004	1,9585936E+000	1,9580375E+000	-8,313479735091424E-003	1,000000000000000E+000	9,2415111E-003	42	-1,6278105E-005
2	0	0	1	1	7,258629174271366E+004	1,9465983E+000	1,9460270E+000	-8,673919194651936E-003	1,000000000000000E+000	8,8991588E-003	42	-1,6879681E-005
2	0	0	1	1	7,262627573328023E+004	1,9346029E+000	1,9340627E+000	-9,051603030021282E-003	1,000000000000000E+000	8,5422993E-003	42	-1,7506369E-005
2	0	0	1	1	7,266625972381514E+004	1,9226079E+000	1,9220876E+000	-9,458133703302646E-003	1,000000000000000E+000	8,1697963E-003	42	-1,8179360E-005
2	0	0	1	1	7,270624371433293E+004	1,9106127E+000	1,9100964E+000	-9,866043018867504E-003	1,000000000000000E+000	7,7808648E-003	42	-1,8845094E-005
2	0	0	1	1	7,274622770487808E+004	1,8986174E+000	1,8980163E+000	-1,033755746348831E-002	1,000000000000000E+000	7,3735304E-003	41	-1,9620853E-005
2	0	0	1	1	7,278621169544471E+004	1,8866222E+000	1,8859844E+000	-1,080764966658981E-002	1,000000000000000E+000	6,9481828E-003	41	-2,0383059E-005
2	0	0	1	1	7,282619558598570E+004	1,8746270E+000	1,8740246E+000	-1,128386699562279E-002	1,000000000000000E+000	6,5037720E-003	41	-2,1146245E-005
2	0	0	1	1	7,286617957650431E+004	1,8626318E+000	1,8619916E+000	-1,180454483540910E-002	1,000000000000000E+000	6,0392441E-003	41	-2,1979964E-005
2	0	0	1	1	7,290616376704528E+004	1,8506364E+000	1,8500105E+000	-1,234717861830400E-002	1,000000000000000E+000	5,5537876E-003	41	-2,2842411E-005
2	0	0	1	1	7,294614775761141E+004	1,8386412E+000	1,8380263E+000	-1,290769726215188E-002	1,000000000000000E+000	5,0459621E-003	41	-2,3724688E-005
2	0	0	1	1	7,298613174815755E+004	1,8266462E+000	1,8260169E+000	-1,353446921742479E-002	1,000000000000000E+000	4,5144041E-003	41	-2,4714169E-005
2	0	0	1	1	7,302611593867536E+004	1,8146510E+000	1,8140473E+000	-1,418678725949860E-002	1,000000000000000E+000	3,9574886E-003	41	-2,5735504E-005
2	0	0	1	1	7,306609992921026E+004	1,8026558E+000	1,8020313E+000	-1,492340444040358E-002	1,000000000000000E+000	3,3729156E-003	41	-2,6892441E-005
2	0	0	1	1	7,310608391977637E+004	1,7906606E+000	1,7900380E+000	-1,572323234234130E-002	1,000000000000000E+000	2,7574834E-003	41	-2,8145183E-005
2	0	0	1	1	7,314606781032751E+004	1,7786654E+000	1,7780528E+000	-1,658435392981564E-002	1,000000000000000E+000	2,1090109E-003	41	-2,9487857E-005
2	0	0	1	1	7,318605180084589E+004	1,7666702E+000	1,7660806E+000	-1,746262812694428E-002	1,000000000000000E+000	1,4257447E-003	41	-3,0840409E-005
2	0	0	1	1	7,322603579137591E+004	1,7546749E+000	1,7540647E+000	-1,838775298220768E-002	1,000000000000000E+000	7,0621888E-004	41	-3,2253309E-005
2	0	0	1	1	7,326601978194178E+004	1,7426797E+000	1,7420626E+000	-1,935142308557267E-002	1,000000000000000E+000	-5,1017654E-005	41	-3,3711389E-005
2	0	0	1	1	7,330600377249857E+004	1,7306845E+000	1,7300415E+000	-2,033288922728646E-002	1,000000000000000E+000	-8,4704207E-004	41	-3,5176741E-005
2	0	0	0	1	7,333412796580303E+004	1,7222385E+000	1,7216623E+000	-2,104810930788520E-002	1,000000000000000E+000	-1,4309764E-003	41	-3,6237736E-005