File: Dati/210311/CV_LTO_MX_10 layer_grafite nuova_0.1_1mVs_02_CV_C03.mpt
EC-Lab ASCII FILE
Nb header lines : 57

Cyclic Voltammetry

Run on channel : 3 (SN 6807)
User :
Electrode connection : standard
Ewe ctrl range : min = 0,00 V, max = 5,00 V
Ewe,I filtering : 50 kHz
Safety Limits :
	Do not start on E overload
Channel : Grounded
Acquisition started on : 03/11/2021 17:24:33
Saved on :
	File : CV_LTO_MX_10 layer_grafite nuova_0.1_1mVs_02_CV_C03.mpr
	Directory : C:\Users\labsuperfici\Desktop\Biologic\Users\Prisca Viviani\210311\
	Host : 169.254.114.127
Device : VSP-300 (SN 0638)
Address : USB
EC-Lab for windows v11.31 (software)
Internet server v11.30 (firmware)
Command interpretor v11.31 (firmware)
Electrode material :
Initial state :
Electrolyte :
Comments :
Cable : standard
Reference electrode : SCE Saturated Calomel Electrode (0,241 V)
Electrode surface area : 0,001 cm²
Characteristic mass : 0,001 g
Equivalent Weight : 0,000 g/eq.
Density : 0,000 g/cm3
Cycle Definition : Charge/Discharge alternance
Ei (V)              0,000
vs.                 Eoc
dE/dt               0,200
dE/dt unit          mV/s
E1 (V)              1,000
vs.                 Ref
Step percent        50
N                   10
E range min (V)     0,000
E range max (V)     5,000
I Range             Auto
I Range min         Unset
I Range max         Unset
I Range init        Unset
Bandwidth           8
E2 (V)              3,000
vs.                 Ref
nc cycles           0
Reverse Scan        1
Ef (V)              0,000
vs.                 Eoc

mode	ox/red	error	control changes	counter inc.	time/s	control/V	Ewe/V	<I>/mA	cycle number	(Q-Qo)/C	I Range	P/W
2	0	0	1	0	4,000042436286039E+004	1,7222385E+000	1,7216661E+000	-9,297918528318405E-003	1,000000000000000E+000	0,0000000E+000	41	-1,6007911E-005
2	0	0	1	0	4,005815116296802E+004	1,7106926E+000	1,7100916E+000	-1,129634043652060E-002	1,000000000000000E+000	-6,0390157E-004	41	-1,9317777E-005
2	0	0	1	0	4,011812746307987E+004	1,6986976E+000	1,6981055E+000	-1,271117627628557E-002	1,000000000000000E+000	-1,3282835E-003	41	-2,1584918E-005
2	0	0	1	0	4,017810346319154E+004	1,6867024E+000	1,6860980E+000	-1,397230682955197E-002	1,000000000000000E+000	-2,1318954E-003	41	-2,3558678E-005
2	0	0	1	0	4,023807956330292E+004	1,6747069E+000	1,6741027E+000	-1,519843040546709E-002	1,000000000000000E+000	-3,0100399E-003	41	-2,5443733E-005
2	0	0	1	0	4,029805546341487E+004	1,6627117E+000	1,6620899E+000	-1,643638267684505E-002	1,000000000000000E+000	-3,9619491E-003	41	-2,7318747E-005
2	0	0	1	0	4,035803146352654E+004	1,6507167E+000	1,6501120E+000	-1,769869250108069E-002	1,000000000000000E+000	-4,9888967E-003	41	-2,9204826E-005
2	0	0	1	0	4,041800716363825E+004	1,6387215E+000	1,6381202E+000	-1,904550779847730E-002	1,000000000000000E+000	-6,0930597E-003	41	-3,1198830E-005
2	0	0	1	0	4,047798316374992E+004	1,6267263E+000	1,6261306E+000	-2,046095513271540E-002	1,000000000000000E+000	-7,2802794E-003	41	-3,3272187E-005
2	0	0	1	0	4,053795916386181E+004	1,6147311E+000	1,6141361E+000	-2,200147824862431E-002	1,000000000000000E+000	-8,5559553E-003	41	-3,5513382E-005
2	0	0	1	0	4,059793536397326E+004	1,6027359E+000	1,6021395E+000	-2,369711677362335E-002	1,000000000000000E+000	-9,9287592E-003	41	-3,7966085E-005
2	0	0	1	0	4,065791126408521E+004	1,5907407E+000	1,5901295E+000	-2,558229755314040E-002	1,000000000000000E+000	-1,1408576E-002	41	-4,0679166E-005
2	0	0	1	0	4,071788726419676E+004	1,5787454E+000	1,5781306E+000	-2,768731689772889E-002	1,000000000000000E+000	-1,3008368E-002	41	-4,3694203E-005
2	0	0	1	0	4,077786356430856E+004	1,5667502E+000	1,5661529E+000	-3,006705015410227E-002	1,000000000000000E+000	-1,4741905E-002	41	-4,7089598E-005
2	0	0	1	0	4,083783936442027E+004	1,5547549E+000	1,5541534E+000	-3,270526859128031E-002	1,000000000000000E+000	-1,6625589E-002	41	-5,0829007E-005
2	0	0	1	0	4,089781526453188E+004	1,5427599E+000	1,5421745E+000	-3,573222745878230E-002	1,000000000000000E+000	-1,8679606E-002	41	-5,5105327E-005
2	0	0	1	0	4,095779126464378E+004	1,5307647E+000	1,5301620E+000	-3,927587789981002E-002	1,000000000000000E+000	-2,0929659E-002	41	-6,0098457E-005
2	0	0	1	0	4,101776696475549E+004	1,5187693E+000	1,5181978E+000	-4,341444150527429E-002	1,000000000000000E+000	-2,3409573E-002	41	-6,5911707E-005
2	0	0	1	0	4,107774296486710E+004	1,5067742E+000	1,5062064E+000	-4,812621570732234E-002	1,000000000000000E+000	-2,6155638E-002	41	-7,2488016E-005
2	0	0	1	0	4,113771896497876E+004	1,4947790E+000	1,4942228E+000	-5,319328203938525E-002	1,000000000000000E+000	-2,9197156E-002	41	-7,9482612E-005
2	0	0	1	0	4,119769486509060E+004	1,4827839E+000	1,4822556E+000	-5,826657862452644E-002	1,000000000000000E+000	-3,2543831E-002	41	-8,6365959E-005
2	0	0	1	0	4,125767076520226E+004	1,4707886E+000	1,4702250E+000	-6,306345582973327E-002	1,000000000000000E+000	-3,6187910E-002	41	-9,2717470E-005
2	0	0	1	0	4,131764676531404E+004	1,4587933E+000	1,4582260E+000	-6,734827648559993E-002	1,000000000000000E+000	-4,0104885E-002	41	-9,8209006E-005
2	0	0	1	0	4,137762306542567E+004	1,4467982E+000	1,4462667E+000	-7,109048170812171E-002	1,000000000000000E+000	-4,4262420E-002	41	-1,0281579E-004
2	0	0	1	0	4,143759886553744E+004	1,4348030E+000	1,4342544E+000	-7,425550613951515E-002	1,000000000000000E+000	-4,8627276E-002	41	-1,0650128E-004
2	0	0	1	0	4,149757476564910E+004	1,4228079E+000	1,4222933E+000	-7,682773935569576E-002	1,000000000000000E+000	-5,3164352E-002	41	-1,0927158E-004
2	0	0	1	0	4,155755076576077E+004	1,4108126E+000	1,4103025E+000	-7,894735553857624E-002	1,000000000000000E+000	-5,7842202E-002	41	-1,1133966E-004
2	0	0	1	0	4,161752676587249E+004	1,3988174E+000	1,3982661E+000	-8,066885355111586E-002	1,000000000000000E+000	-6,2634133E-002	41	-1,1279652E-004
2	0	0	1	0	4,167750276598427E+004	1,3868221E+000	1,3863136E+000	-8,200687955763292E-002	1,000000000000000E+000	-6,7517400E-002	41	-1,1368725E-004
2	0	0	1	0	4,173747876609594E+004	1,3748269E+000	1,3743191E+000	-8,307551461708784E-002	1,000000000000000E+000	-7,2473340E-002	41	-1,1417227E-004
2	0	0	1	0	4,179745476620784E+004	1,3628317E+000	1,3623140E+000	-8,388134221029075E-002	1,000000000000000E+000	-7,7484958E-002	41	-1,1427273E-004
2	0	0	1	0	4,185743056631944E+004	1,3508365E+000	1,3503102E+000	-8,448243381323617E-002	1,000000000000000E+000	-8,2537949E-002	41	-1,1407749E-004
2	0	0	1	0	4,191740656643111E+004	1,3388413E+000	1,3382939E+000	-8,480462519507775E-002	1,000000000000000E+000	-8,7620579E-002	41	-1,1349352E-004
2	0	0	1	0	4,197738256654280E+004	1,3268462E+000	1,3263148E+000	-8,435940219492966E-002	1,000000000000000E+000	-9,2701837E-002	41	-1,1188712E-004
2	0	0	1	0	4,203735836665449E+004	1,3148510E+000	1,3143038E+000	-8,315238907097910E-002	1,000000000000000E+000	-9,7730592E-002	41	-1,0928750E-004
2	0	0	1	0	4,209733426676632E+004	1,3028560E+000	1,3023310E+000	-8,169547643714359E-002	1,000000000000000E+000	-1,0267781E-001	41	-1,0639455E-004
2	0	0	1	0	4,215731056687806E+004	1,2908605E+000	1,2903761E+000	-8,020226970401212E-002	1,000000000000000E+000	-1,0753591E-001	41	-1,0349109E-004
2	0	0	1	0	4,221728626698954E+004	1,2788655E+000	1,2783130E+000	-7,880262051215348E-002	1,000000000000000E+000	-1,1230686E-001	41	-1,0073442E-004
2	0	0	1	0	4,227726226710144E+004	1,2668701E+000	1,2663231E+000	-7,741678405383146E-002	1,000000000000000E+000	-1,1699441E-001	41	-9,8034659E-005
2	0	0	1	0	4,233723826721311E+004	1,2548749E+000	1,2543068E+000	-7,599727780420698E-002	1,000000000000000E+000	-1,2159839E-001	41	-9,5323900E-005
2	0	0	1	0	4,239721456732482E+004	1,2428797E+000	1,2422997E+000	-7,463939588218627E-002	1,000000000000000E+000	-1,2611830E-001	41	-9,2724498E-005
2	0	0	1	0	4,245719036743650E+004	1,2308846E+000	1,2303585E+000	-7,329522533958688E-002	1,000000000000000E+000	-1,3055836E-001	41	-9,0179405E-005
2	0	0	1	0	4,251716636754817E+004	1,2188892E+000	1,2183428E+000	-7,202583631888515E-002	1,000000000000000E+000	-1,3492063E-001	41	-8,7752160E-005
2	0	0	1	0	4,257714236766007E+004	1,2068940E+000	1,2063404E+000	-7,078613445792004E-002	1,000000000000000E+000	-1,3920723E-001	41	-8,5392174E-005
2	0	0	1	0	4,263711816777161E+004	1,1948988E+000	1,1943531E+000	-6,960128916927200E-002	1,000000000000000E+000	-1,4342009E-001	41	-8,3128514E-005
2	0	0	1	0	4,269709406788333E+004	1,1829038E+000	1,1823435E+000	-6,841786107879144E-002	1,000000000000000E+000	-1,4756151E-001	41	-8,0893413E-005
2	0	0	1	0	4,275707006799514E+004	1,1709085E+000	1,1703583E+000	-6,726651084881730E-002	1,000000000000000E+000	-1,5163313E-001	41	-7,8725920E-005
2	0	0	1	0	4,281704576810682E+004	1,1589131E+000	1,1583332E+000	-6,616021439878228E-002	1,000000000000000E+000	-1,5563785E-001	41	-7,6635573E-005
2	0	0	1	0	4,287702176821849E+004	1,1469182E+000	1,1463261E+000	-6,507169294030735E-002	1,000000000000000E+000	-1,5957668E-001	41	-7,4593379E-005
2	0	0	1	0	4,293699806833034E+004	1,1349230E+000	1,1343747E+000	-6,408984252581287E-002	1,000000000000000E+000	-1,6345318E-001	41	-7,2701900E-005
2	0	0	1	0	4,299697406844189E+004	1,1229278E+000	1,1223320E+000	-6,308590940670733E-002	1,000000000000000E+000	-1,6726948E-001	41	-7,0803333E-005
2	0	0	1	0	4,305694986855367E+004	1,1109325E+000	1,1103606E+000	-6,219908960330935E-002	1,000000000000000E+000	-1,7102848E-001	41	-6,9063419E-005
2	0	0	1	0	4,311692586866533E+004	1,0989373E+000	1,0983635E+000	-6,132552050947290E-002	1,000000000000000E+000	-1,7473453E-001	41	-6,7357716E-005
2	0	0	1	0	4,317690216877704E+004	1,0869420E+000	1,0863675E+000	-6,046976239425894E-002	1,000000000000000E+000	-1,7838944E-001	41	-6,5692380E-005
2	0	0	1	0	4,323687786888878E+004	1,0749469E+000	1,0743918E+000	-5,973773803448587E-002	1,000000000000000E+000	-1,8199657E-001	41	-6,4181739E-005
2	0	0	1	0	4,329685386900068E+004	1,0629517E+000	1,0624082E+000	-5,900088617771670E-002	1,000000000000000E+000	-1,8556112E-001	41	-6,2683022E-005
2	0	0	1	0	4,335682986911223E+004	1,0509564E+000	1,0504031E+000	-5,837403647398007E-002	1,000000000000000E+000	-1,8908460E-001	41	-6,1316270E-005
2	0	0	1	0	4,341680556922400E+004	1,0389613E+000	1,0384133E+000	-5,777275117439507E-002	1,000000000000000E+000	-1,9257088E-001	41	-5,9991991E-005
2	0	0	1	0	4,347678156933567E+004	1,0269661E+000	1,0263755E+000	-5,724937563979204E-002	1,000000000000000E+000	-1,9602343E-001	41	-5,8759357E-005
2	0	0	1	0	4,353675756944736E+004	1,0149709E+000	1,0144055E+000	-5,677780953495470E-002	1,000000000000000E+000	-1,9944556E-001	41	-5,7595720E-005
2	0	0	1	0	4,359673356955906E+004	1,0029757E+000	1,0024164E+000	-5,634305031740960E-002	1,000000000000000E+000	-2,0283969E-001	41	-5,6479195E-005
2	0	0	1	0	4,364921406965685E+004	1,0075738E+000	1,0069792E+000	-5,018195157108514E-002	1,000000000000000E+000	-2,0564698E-001	41	-5,0532184E-005
2	0	0	1	0	4,370919006976858E+004	1,0195689E+000	1,0189979E+000	-4,531745706227797E-002	1,000000000000000E+000	-2,0849785E-001	41	-4,6178393E-005
2	0	0	1	0	4,376916636988020E+004	1,0315641E+000	1,0309839E+000	-4,155830008133543E-002	1,000000000000000E+000	-2,1109512E-001	41	-4,2845939E-005
2	0	0	1	0	4,382914276999200E+004	1,0435594E+000	1,0429518E+000	-3,848061745088852E-002	1,000000000000000E+000	-2,1348937E-001	41	-4,0133429E-005
2	0	0	1	0	4,388911867010384E+004	1,0555546E+000	1,0549690E+000	-3,579663483765280E-002	1,000000000000000E+000	-2,1571082E-001	41	-3,7764337E-005
2	0	0	1	0	4,394909467021539E+004	1,0675498E+000	1,0669450E+000	-3,344569635270905E-002	1,000000000000000E+000	-2,1778135E-001	41	-3,5684716E-005
2	0	0	1	0	4,400907057032717E+004	1,0795450E+000	1,0789570E+000	-3,131348129646117E-002	1,000000000000000E+000	-2,1971799E-001	41	-3,3785898E-005
2	0	0	1	0	4,406904697043888E+004	1,0915402E+000	1,0909313E+000	-2,939660910898689E-002	1,000000000000000E+000	-2,2153370E-001	41	-3,2069682E-005
2	0	0	1	0	4,412902297055058E+004	1,1035354E+000	1,1029431E+000	-2,756874424831735E-002	1,000000000000000E+000	-2,2323792E-001	41	-3,0406754E-005
2	0	0	1	0	4,418899897066224E+004	1,1155307E+000	1,1149396E+000	-2,591533285075132E-002	1,000000000000000E+000	-2,2483793E-001	41	-2,8894030E-005
2	0	0	1	0	4,424897537077405E+004	1,1275257E+000	1,1269335E+000	-2,437982756858637E-002	1,000000000000000E+000	-2,2634247E-001	41	-2,7474443E-005
2	0	0	1	0	4,430895137088571E+004	1,1395210E+000	1,1389118E+000	-2,294898913685511E-002	1,000000000000000E+000	-2,2775796E-001	41	-2,6136875E-005
2	0	0	1	0	4,436892767099757E+004	1,1515163E+000	1,1509148E+000	-2,159921394664449E-002	1,000000000000000E+000	-2,2908986E-001	41	-2,4858855E-005
2	0	0	1	0	4,442890397110931E+004	1,1635115E+000	1,1628895E+000	-2,035490242693908E-002	1,000000000000000E+000	-2,3034434E-001	41	-2,3670502E-005
2	0	0	1	0	4,448887997122086E+004	1,1755066E+000	1,1749206E+000	-1,918638521707844E-002	1,000000000000000E+000	-2,3152654E-001	41	-2,2542479E-005
2	0	0	1	0	4,454885587133258E+004	1,1875019E+000	1,1868963E+000	-1,809930545881161E-002	1,000000000000000E+000	-2,3264107E-001	41	-2,1481999E-005
2	0	0	1	0	4,460883217144429E+004	1,1994971E+000	1,1988916E+000	-1,706967074639498E-002	1,000000000000000E+000	-2,3369241E-001	41	-2,0464686E-005
2	0	0	1	0	4,466880857155597E+004	1,2114923E+000	1,2108823E+000	-1,607822291482713E-002	1,000000000000000E+000	-2,3468287E-001	41	-1,9468836E-005
2	0	0	1	0	4,472878457166767E+004	1,2234875E+000	1,2228669E+000	-1,516622783354184E-002	1,000000000000000E+000	-2,3561634E-001	41	-1,8546278E-005
2	0	0	1	0	4,478876057177945E+004	1,2354827E+000	1,2348713E+000	-1,428042623574559E-002	1,000000000000000E+000	-2,3649566E-001	41	-1,7634487E-005
2	0	0	1	0	4,484873697189114E+004	1,2474780E+000	1,2468674E+000	-1,342045710344560E-002	1,000000000000000E+000	-2,3732322E-001	41	-1,6733531E-005
2	0	0	1	0	4,490871297200292E+004	1,2594731E+000	1,2588384E+000	-1,262062003661171E-002	1,000000000000000E+000	-2,3810127E-001	41	-1,5887321E-005
2	0	0	1	0	4,496868897211459E+004	1,2714683E+000	1,2708366E+000	-1,183008745163366E-002	1,000000000000000E+000	-2,3883128E-001	41	-1,5034108E-005
2	0	0	1	0	4,502866527222632E+004	1,2834636E+000	1,2828668E+000	-1,108257037354984E-002	1,000000000000000E+000	-2,3951559E-001	41	-1,4217462E-005
2	0	0	1	0	4,508864127233799E+004	1,2954588E+000	1,2948500E+000	-1,036249721387206E-002	1,000000000000000E+000	-2,4015558E-001	41	-1,3417879E-005
2	0	0	1	0	4,514861747244967E+004	1,3074540E+000	1,3068175E+000	-9,656440523819955E-003	1,000000000000000E+000	-2,4075304E-001	41	-1,2619205E-005
2	0	0	1	0	4,520859347256136E+004	1,3194492E+000	1,3188261E+000	-8,962600159046596E-003	1,000000000000000E+000	-2,4130823E-001	41	-1,1820111E-005
2	0	0	1	0	4,526856987267316E+004	1,3314443E+000	1,3308188E+000	-8,279306118293556E-003	1,000000000000000E+000	-2,4182224E-001	41	-1,1018256E-005
2	0	0	1	0	4,532854587278492E+004	1,3434395E+000	1,3427993E+000	-7,605093401337804E-003	1,000000000000000E+000	-2,4229537E-001	41	-1,0212114E-005
2	0	0	1	0	4,538852217289666E+004	1,3554347E+000	1,3547907E+000	-6,945210938027625E-003	1,000000000000000E+000	-2,4272853E-001	41	-9,4093075E-006
2	0	0	1	0	4,544849857300846E+004	1,3674299E+000	1,3668165E+000	-6,283226080626078E-003	1,000000000000000E+000	-2,4312188E-001	41	-8,5880174E-006
2	0	0	1	0	4,550847457312001E+004	1,3794250E+000	1,3788242E+000	-5,597074354657033E-003	1,000000000000000E+000	-2,4347512E-001	41	-7,7173818E-006
2	0	0	1	0	4,556845047323173E+004	1,3914202E+000	1,3908499E+000	-4,911183727600660E-003	1,000000000000000E+000	-2,4378783E-001	41	-6,8307195E-006
2	0	0	1	0	4,562842687334330E+004	1,4034156E+000	1,4028654E+000	-4,239212197544001E-003	1,000000000000000E+000	-2,4405932E-001	42	-5,9470440E-006
2	0	0	1	0	4,568840277345508E+004	1,4154106E+000	1,4148375E+000	-3,531900096505905E-003	1,000000000000000E+000	-2,4428929E-001	42	-4,9970645E-006
2	0	0	1	0	4,574837877356689E+004	1,4274058E+000	1,4268140E+000	-2,818818723512074E-003	1,000000000000000E+000	-2,4447626E-001	42	-4,0219297E-006
2	0	0	1	0	4,580835477367858E+004	1,4394011E+000	1,4387993E+000	-2,051567823607978E-003	1,000000000000000E+000	-2,4461961E-001	42	-2,9517942E-006
2	0	0	1	0	4,586833117379027E+004	1,4513962E+000	1,4507725E+000	-1,281945076771263E-003	1,000000000000000E+000	-2,4471706E-001	42	-1,8598107E-006
2	0	0	1	0	4,592830747390212E+004	1,4633915E+000	1,4628415E+000	-4,483280109088793E-004	1,000000000000000E+000	-2,4476653E-001	43	-6,5583282E-007
2	1	0	1	0	4,598828347401368E+004	1,4753869E+000	1,4747282E+000	3,802263804024600E-004	1,000000000000000E+000	-2,4476647E-001	43	5,6073060E-007
2	1	0	1	0	4,604825987412548E+004	1,4873819E+000	1,4867815E+000	1,303406579614384E-003	1,000000000000000E+000	-2,4471337E-001	42	1,9378808E-006
2	1	0	1	0	4,610823587423703E+004	1,4993771E+000	1,4987184E+000	2,275325758508230E-003	1,000000000000000E+000	-2,4460323E-001	42	3,4100726E-006
2	1	0	1	0	4,616821207434894E+004	1,5113724E+000	1,5106949E+000	3,335753163500647E-003	1,000000000000000E+000	-2,4443224E-001	42	5,0393051E-006
2	1	0	1	0	4,622818837446062E+004	1,5233675E+000	1,5227313E+000	4,550816838551963E-003	1,000000000000000E+000	-2,4419349E-001	42	6,9296711E-006
2	1	0	1	0	4,628816437457228E+004	1,5353628E+000	1,5346665E+000	5,917834234769728E-003	1,000000000000000E+000	-2,4387814E-001	42	9,0819021E-006
2	1	0	1	0	4,634814037468398E+004	1,5473580E+000	1,5466716E+000	7,615555067068642E-003	1,000000000000000E+000	-2,4347053E-001	42	1,1778763E-005
2	1	0	1	0	4,640811637479567E+004	1,5593531E+000	1,5586503E+000	9,474380642661262E-003	1,000000000000000E+000	-2,4295540E-001	42	1,4767245E-005
2	1	0	1	0	4,646809277490736E+004	1,5713484E+000	1,5707221E+000	1,178625797074109E-002	1,000000000000000E+000	-2,4231720E-001	41	1,8512936E-005
2	1	0	1	0	4,652806877501914E+004	1,5833436E+000	1,5827155E+000	1,543700144152679E-002	1,000000000000000E+000	-2,4150783E-001	41	2,4432382E-005
2	1	0	1	0	4,658804477513069E+004	1,5953386E+000	1,5947216E+000	2,132784542949037E-002	1,000000000000000E+000	-2,4041152E-001	41	3,4011973E-005
2	1	0	1	0	4,664802117524249E+004	1,6073340E+000	1,6066962E+000	2,847658135806250E-002	1,000000000000000E+000	-2,3891829E-001	41	4,5753215E-005
2	1	0	1	0	4,670799737535440E+004	1,6193293E+000	1,6186554E+000	3,608835952336881E-002	1,000000000000000E+000	-2,3697941E-001	41	5,8414618E-005
2	1	0	1	0	4,676797337546601E+004	1,6313244E+000	1,6306676E+000	4,387815726754640E-002	1,000000000000000E+000	-2,3457710E-001	41	7,1550690E-005
2	1	0	1	0	4,682794967557769E+004	1,6433196E+000	1,6426750E+000	5,159470695533497E-002	1,000000000000000E+000	-2,3170972E-001	41	8,4753337E-005
2	1	0	1	0	4,688792567568936E+004	1,6553148E+000	1,6546090E+000	5,902238173469800E-002	1,000000000000000E+000	-2,2838715E-001	41	9,7658965E-005
2	1	0	1	0	4,694790197580107E+004	1,6673101E+000	1,6666051E+000	6,615403750466609E-002	1,000000000000000E+000	-2,2462741E-001	41	1,1025266E-004
2	1	0	1	0	4,700787797591288E+004	1,6793053E+000	1,6786300E+000	7,285880039789294E-002	1,000000000000000E+000	-2,2045341E-001	41	1,2230297E-004
2	1	0	1	0	4,706785437602457E+004	1,6913004E+000	1,6906183E+000	7,907688715052597E-002	1,000000000000000E+000	-2,1589127E-001	41	1,3368882E-004
2	1	0	1	0	4,712783037613623E+004	1,7032956E+000	1,7026134E+000	8,472471063117415E-002	1,000000000000000E+000	-2,1097271E-001	41	1,4425343E-004
2	1	0	1	0	4,718780667624809E+004	1,7152909E+000	1,7145962E+000	8,984414225155346E-002	1,000000000000000E+000	-2,0573117E-001	41	1,5404641E-004
2	1	0	1	0	4,724778297635983E+004	1,7272861E+000	1,7265573E+000	9,443820386605450E-002	1,000000000000000E+000	-2,0019799E-001	41	1,6305297E-004
2	1	0	1	0	4,730775897647138E+004	1,7392813E+000	1,7385641E+000	9,848198784971984E-002	1,000000000000000E+000	-1,9440582E-001	41	1,7121725E-004
2	1	0	1	0	4,736773487658310E+004	1,7512764E+000	1,7505680E+000	1,019355977852250E-001	1,000000000000000E+000	-1,8838914E-001	41	1,7844520E-004
2	1	0	1	0	4,742771157669480E+004	1,7632718E+000	1,7626477E+000	1,047666353103888E-001	1,000000000000000E+000	-1,8218441E-001	40	1,8466667E-004
2	1	0	1	0	4,748768757680661E+004	1,7752669E+000	1,7746307E+000	1,071203223169317E-001	1,000000000000000E+000	-1,7582440E-001	40	1,9009900E-004
2	1	0	1	0	4,754766357691830E+004	1,7872620E+000	1,7866192E+000	1,089005117729303E-001	1,000000000000000E+000	-1,6934048E-001	40	1,9456375E-004
2	1	0	1	0	4,760763957702997E+004	1,7992572E+000	1,7986498E+000	1,101005683224421E-001	1,000000000000000E+000	-1,6276747E-001	40	1,9803236E-004
2	1	0	1	0	4,766761597714166E+004	1,8112525E+000	1,8106209E+000	1,107728839307209E-001	1,000000000000000E+000	-1,5613799E-001	40	2,0056769E-004
2	1	0	1	0	4,772759197725356E+004	1,8232476E+000	1,8226093E+000	1,109116815803641E-001	1,000000000000000E+000	-1,4948457E-001	40	2,0214866E-004
2	1	0	1	0	4,778756797736511E+004	1,8352427E+000	1,8346305E+000	1,105000557315228E-001	1,000000000000000E+000	-1,4283907E-001	40	2,0272678E-004
2	1	0	1	0	4,784754427747685E+004	1,8472381E+000	1,8466046E+000	1,095343648049341E-001	1,000000000000000E+000	-1,3623488E-001	40	2,0226666E-004
2	1	0	1	0	4,790752017758851E+004	1,8592331E+000	1,8586034E+000	1,080391597708255E-001	1,000000000000000E+000	-1,2970440E-001	40	2,0080195E-004
2	1	0	1	0	4,796749647770030E+004	1,8712285E+000	1,8705918E+000	1,059585378897681E-001	1,000000000000000E+000	-1,2328092E-001	40	1,9820516E-004
2	1	0	1	0	4,802747287781199E+004	1,8832238E+000	1,8825985E+000	1,033100510621634E-001	1,000000000000000E+000	-1,1699939E-001	40	1,9449135E-004
2	1	0	1	0	4,808744887792369E+004	1,8952190E+000	1,8945894E+000	1,000441245504494E-001	1,000000000000000E+000	-1,1089648E-001	40	1,8954254E-004
2	1	0	1	0	4,814742487803544E+004	1,9072140E+000	1,9065809E+000	9,632604388993227E-002	1,000000000000000E+000	-1,0500354E-001	40	1,8365339E-004
2	1	0	1	0	4,820740117814718E+004	1,9192092E+000	1,9185991E+000	9,207409571704411E-002	1,000000000000000E+000	-9,9349543E-002	40	1,7665328E-004
2	1	0	1	0	4,826737757825898E+004	1,9312044E+000	1,9306108E+000	8,745647162555109E-002	1,000000000000000E+000	-9,3961306E-002	40	1,6884440E-004
2	1	0	1	0	4,832735357837053E+004	1,9431995E+000	1,9425652E+000	8,237332580768419E-002	1,000000000000000E+000	-8,8864826E-002	40	1,6001555E-004
2	1	0	1	0	4,838732947848225E+004	1,9551950E+000	1,9545797E+000	7,688081445125383E-002	1,000000000000000E+000	-8,4085613E-002	40	1,5026968E-004
2	1	0	1	0	4,844730577859399E+004	1,9671900E+000	1,9665737E+000	7,104126610241268E-002	1,000000000000000E+000	-7,9644613E-002	40	1,3970789E-004
2	1	0	1	0	4,850728177870571E+004	1,9791853E+000	1,9785515E+000	6,490442389240303E-002	1,000000000000000E+000	-7,5564906E-002	40	1,2841675E-004
2	1	0	1	0	4,856725777881741E+004	1,9911804E+000	1,9906043E+000	5,909487861032159E-002	1,000000000000000E+000	-7,1846589E-002	40	1,1763452E-004
2	1	0	1	0	4,862723507892911E+004	2,0031755E+000	2,0025535E+000	5,389951642229041E-002	1,000000000000000E+000	-6,8458147E-002	40	1,0793666E-004
2	1	0	1	0	4,868721107904080E+004	2,0151706E+000	2,0145772E+000	4,930476705462816E-002	1,000000000000000E+000	-6,5362610E-002	40	9,9328259E-005
2	1	0	1	0	4,874768707915355E+004	2,0272658E+000	2,0266414E+000	4,529802204131178E-002	1,000000000000000E+000	-6,2500305E-002	41	9,1802845E-005
2	1	0	1	0	4,880766307926527E+004	2,0392611E+000	2,0385935E+000	4,177205517599547E-002	1,000000000000000E+000	-5,9889331E-002	41	8,5156244E-005
2	1	0	1	0	4,886763947937696E+004	2,0512562E+000	2,0506148E+000	3,880589177372584E-002	1,000000000000000E+000	-5,7472400E-002	41	7,9575941E-005
2	1	0	1	0	4,892761547948874E+004	2,0632515E+000	2,0626144E+000	3,629948967859783E-002	1,000000000000000E+000	-5,5219021E-002	41	7,4871852E-005
2	1	0	1	0	4,898759147960041E+004	2,0752466E+000	2,0746202E+000	3,412254434038842E-002	1,000000000000000E+000	-5,3105906E-002	41	7,0791320E-005
2	1	0	1	0	4,904756787971221E+004	2,0872421E+000	2,0866346E+000	3,225723644342329E-002	1,000000000000000E+000	-5,1114246E-002	41	6,7309069E-005
2	1	0	1	0	4,910754447982367E+004	2,0992374E+000	2,0985823E+000	3,061303550087985E-002	1,000000000000000E+000	-4,9227364E-002	41	6,4243970E-005
2	1	0	1	0	4,916752037993557E+004	2,1112325E+000	2,1106133E+000	2,920064918470278E-002	1,000000000000000E+000	-4,7431301E-002	41	6,1631283E-005
2	1	0	1	0	4,922749668004725E+004	2,1232276E+000	2,1226399E+000	2,791633156764972E-002	1,000000000000000E+000	-4,5716107E-002	41	5,9256319E-005
2	1	0	1	0	4,928747268015894E+004	2,1352227E+000	2,1345870E+000	2,678999311542885E-002	1,000000000000000E+000	-4,4073209E-002	41	5,7185571E-005
2	1	0	1	0	4,934744868027064E+004	2,1472182E+000	2,1466103E+000	2,574862011858267E-002	1,000000000000000E+000	-4,2495601E-002	41	5,5272252E-005
2	1	0	1	0	4,940742468038236E+004	2,1592133E+000	2,1586001E+000	2,480917166495084E-002	1,000000000000000E+000	-4,0976413E-002	41	5,3553082E-005
2	1	0	1	0	4,946740108049393E+004	2,1712084E+000	2,1705887E+000	2,392094015360520E-002	1,000000000000000E+000	-3,9512973E-002	41	5,1922521E-005
2	1	0	1	0	4,952737708060583E+004	2,1832035E+000	2,1825926E+000	2,309735477852606E-002	1,000000000000000E+000	-3,8099255E-002	41	5,0412116E-005
2	1	0	1	0	4,958735308071738E+004	2,1951990E+000	2,1946161E+000	2,236626073583367E-002	1,000000000000000E+000	-3,6732610E-002	41	4,9085356E-005
2	1	0	1	0	4,964732948082930E+004	2,2071939E+000	2,2066245E+000	2,166527699245693E-002	1,000000000000000E+000	-3,5410155E-002	41	4,7807131E-005
2	1	0	1	0	4,970730538094096E+004	2,2191889E+000	2,2185802E+000	2,103163631869234E-002	1,000000000000000E+000	-3,4127463E-002	41	4,6660374E-005
2	1	0	1	0	4,976728198105266E+004	2,2311845E+000	2,2306061E+000	2,041738352156658E-002	1,000000000000000E+000	-3,2882109E-002	41	4,5543140E-005
2	1	0	1	0	4,982725768116434E+004	2,2431796E+000	2,2425647E+000	1,981807121925602E-002	1,000000000000000E+000	-3,1672332E-002	41	4,4443306E-005
2	1	0	1	0	4,988723428127600E+004	2,2551749E+000	2,2545655E+000	1,928888932559331E-002	1,000000000000000E+000	-3,0496424E-002	41	4,3488064E-005
2	1	0	1	0	4,994720968138764E+004	2,2671702E+000	2,2665527E+000	1,876879868325793E-002	1,000000000000000E+000	-2,9352771E-002	41	4,2540472E-005
2	1	0	1	0	5,000718628149945E+004	2,2791653E+000	2,2785549E+000	1,828295492420889E-002	1,000000000000000E+000	-2,8238673E-002	41	4,1658717E-005
2	1	0	1	0	5,006716268161125E+004	2,2911603E+000	2,2905245E+000	1,782563349133159E-002	1,000000000000000E+000	-2,7152805E-002	41	4,0830051E-005
2	1	0	1	0	5,012713868172292E+004	2,3031557E+000	2,3025458E+000	1,741164230335235E-002	1,000000000000000E+000	-2,6092369E-002	41	4,0091105E-005
2	1	0	1	0	5,018711468183470E+004	2,3151507E+000	2,3145506E+000	1,702332994363270E-002	1,000000000000000E+000	-2,5056778E-002	41	3,9401359E-005
2	1	0	1	0	5,024709108194616E+004	2,3271461E+000	2,3265364E+000	1,665200318250351E-002	1,000000000000000E+000	-2,4044020E-002	41	3,8741491E-005
2	1	0	1	0	5,030706698205805E+004	2,3391411E+000	2,3385496E+000	1,630699756454129E-002	1,000000000000000E+000	-2,3052635E-002	41	3,8134724E-005
2	1	0	1	0	5,036704288216971E+004	2,3511364E+000	2,3505323E+000	1,599486777740872E-002	1,000000000000000E+000	-2,2081269E-002	41	3,7596452E-005
2	1	0	1	0	5,042701928228157E+004	2,3631313E+000	2,3625467E+000	1,570159319099912E-002	1,000000000000000E+000	-2,1127995E-002	41	3,7095746E-005
2	1	0	1	0	5,048699528239324E+004	2,3751268E+000	2,3745279E+000	1,538852035065134E-002	1,000000000000000E+000	-2,0192705E-002	41	3,6540470E-005
2	1	0	1	0	5,054697188250493E+004	2,3871222E+000	2,3865407E+000	1,511841394346941E-002	1,000000000000000E+000	-1,9274645E-002	41	3,6080710E-005
2	1	0	1	0	5,060694728261663E+004	2,3991172E+000	2,3985138E+000	1,488267815962654E-002	1,000000000000000E+000	-1,8371649E-002	41	3,5696310E-005
2	1	0	1	0	5,066692428272835E+004	2,4111125E+000	2,4105160E+000	1,469771855661961E-002	1,000000000000000E+000	-1,7481534E-002	41	3,5429086E-005
2	1	0	1	0	5,072690028284001E+004	2,4231076E+000	2,4225037E+000	1,450516416155162E-002	1,000000000000000E+000	-1,6603157E-002	41	3,5138815E-005
2	1	0	1	0	5,078687628295179E+004	2,4351029E+000	2,4345276E+000	1,435009594137010E-002	1,000000000000000E+000	-1,5734673E-002	41	3,4935707E-005
2	1	0	1	0	5,084685258306342E+004	2,4470980E+000	2,4465010E+000	1,417153690108269E-002	1,000000000000000E+000	-1,4875905E-002	41	3,4670680E-005
2	1	0	1	0	5,090682858317526E+004	2,4590933E+000	2,4585102E+000	1,400017564307471E-002	1,000000000000000E+000	-1,4027357E-002	41	3,4419572E-005
2	1	0	1	0	5,096680448328696E+004	2,4710882E+000	2,4705069E+000	1,380094944809759E-002	1,000000000000000E+000	-1,3190515E-002	41	3,4095341E-005
2	1	0	1	0	5,102678088339863E+004	2,4830835E+000	2,4824975E+000	1,360363545995583E-002	1,000000000000000E+000	-1,2365670E-002	41	3,3770990E-005
2	1	0	1	0	5,108675688351033E+004	2,4950786E+000	2,4944992E+000	1,339408071191706E-002	1,000000000000000E+000	-1,1552894E-002	41	3,3411525E-005
2	1	0	1	0	5,114673288362205E+004	2,5070741E+000	2,5064719E+000	1,317109099707731E-002	1,000000000000000E+000	-1,0753085E-002	41	3,3012970E-005
2	1	0	1	0	5,120670948373387E+004	2,5190692E+000	2,5185022E+000	1,294154509912787E-002	1,000000000000000E+000	-9,9664601E-003	41	3,2593311E-005
2	1	0	1	0	5,126668528384552E+004	2,5310643E+000	2,5304756E+000	1,274005246218493E-002	1,000000000000000E+000	-9,1930870E-003	41	3,2238393E-005
2	1	0	1	0	5,132666188395722E+004	2,5430598E+000	2,5424864E+000	1,251179131434024E-002	1,000000000000000E+000	-8,4326090E-003	41	3,1811058E-005
2	1	0	1	0	5,138663778406894E+004	2,5550549E+000	2,5544856E+000	1,227839605155615E-002	1,000000000000000E+000	-7,6859547E-003	41	3,1364987E-005
2	1	0	1	0	5,144661418418074E+004	2,5670502E+000	2,5664635E+000	1,204800890733511E-002	1,000000000000000E+000	-6,9531389E-003	41	3,0920775E-005
2	1	0	1	0	5,150659008429237E+004	2,5790453E+000	2,5784626E+000	1,180221378910759E-002	1,000000000000000E+000	-6,2350566E-003	41	3,0431567E-005
2	1	0	1	0	5,156656608440404E+004	2,5910406E+000	2,5904355E+000	1,155797382297011E-002	1,000000000000000E+000	-5,5310004E-003	41	2,9940185E-005
2	1	0	1	0	5,162654248451575E+004	2,6030357E+000	2,6024275E+000	1,137089934348651E-002	1,000000000000000E+000	-4,8406357E-003	41	2,9591942E-005
2	1	0	1	0	5,168651848462760E+004	2,6150308E+000	2,6144660E+000	1,121544921675387E-002	1,000000000000000E+000	-4,1607898E-003	41	2,9322409E-005
2	1	0	1	0	5,174649448473938E+004	2,6270258E+000	2,6264451E+000	1,106351351418246E-002	1,000000000000000E+000	-3,4898892E-003	41	2,9057710E-005
2	1	0	1	0	5,180647048485093E+004	2,6390216E+000	2,6384468E+000	1,090780087999266E-002	1,000000000000000E+000	-2,8278129E-003	41	2,8779652E-005
2	1	0	1	0	5,186644688496273E+004	2,6510165E+000	2,6504376E+000	1,075030038186429E-002	1,000000000000000E+000	-2,1750855E-003	41	2,8493001E-005
2	1	0	1	0	5,192642288507428E+004	2,6630116E+000	2,6624241E+000	1,057492178056296E-002	1,000000000000000E+000	-1,5327159E-003	41	2,8154927E-005
2	1	0	1	0	5,198639938518615E+004	2,6750069E+000	2,6744223E+000	1,038901610001896E-002	1,000000000000000E+000	-9,0113649E-004	41	2,7784616E-005
2	1	0	1	0	5,204637508529774E+004	2,6870022E+000	2,6864030E+000	1,022019392895313E-002	1,000000000000000E+000	-2,8026162E-004	41	2,7455560E-005
2	1	0	1	0	5,210635168540943E+004	2,6989973E+000	2,6984391E+000	1,005334227944496E-002	1,000000000000000E+000	3,3032650E-004	41	2,7128332E-005
2	1	0	1	0	5,216632768552128E+004	2,7109926E+000	2,7104259E+000	9,891320242255988E-003	1,000000000000000E+000	9,3113916E-004	41	2,6809690E-005
2	1	0	1	0	5,222630408563296E+004	2,7229879E+000	2,7223973E+000	9,708080580027312E-003	1,000000000000000E+000	1,5221817E-003	41	2,6429252E-005
2	1	0	1	0	5,228628008574469E+004	2,7349830E+000	2,7344303E+000	9,579663960766704E-003	1,000000000000000E+000	2,1044440E-003	41	2,6194924E-005
2	1	0	1	0	5,234625608585635E+004	2,7469780E+000	2,7464128E+000	9,464345896281588E-003	1,000000000000000E+000	2,6789140E-003	41	2,5993000E-005
2	1	0	1	0	5,240623208596813E+004	2,7589731E+000	2,7584205E+000	9,368399123635213E-003	1,000000000000000E+000	3,2467600E-003	41	2,5841984E-005
2	1	0	1	0	5,246620848607970E+004	2,7709689E+000	2,7703865E+000	9,312558194598697E-003	1,000000000000000E+000	3,8101536E-003	41	2,5799385E-005
2	1	0	1	0	5,252618438619148E+004	2,7829638E+000	2,7823739E+000	9,271741868319647E-003	1,000000000000000E+000	4,3706344E-003	41	2,5797453E-005
2	1	0	1	0	5,258616038630315E+004	2,7949591E+000	2,7943857E+000	9,267425145870065E-003	1,000000000000000E+000	4,9298801E-003	41	2,5896759E-005
2	1	0	1	0	5,264613668641499E+004	2,8069539E+000	2,8063598E+000	9,314014753859790E-003	1,000000000000000E+000	5,4904423E-003	41	2,6138476E-005
2	1	0	1	0	5,270611268652667E+004	2,8189495E+000	2,8184004E+000	9,373739649374296E-003	1,000000000000000E+000	6,0539837E-003	41	2,6418951E-005
2	1	0	1	0	5,276608928663837E+004	2,8309445E+000	2,8303809E+000	9,402903828749282E-003	1,000000000000000E+000	6,6203466E-003	41	2,6613799E-005
2	1	0	1	0	5,282606508674996E+004	2,8429396E+000	2,8423464E+000	9,439713595698063E-003	1,000000000000000E+000	7,1890885E-003	41	2,6830936E-005
2	1	0	1	0	5,288604168686178E+004	2,8549352E+000	2,8543794E+000	9,438673318038326E-003	1,000000000000000E+000	7,7585061E-003	41	2,6941554E-005
2	1	0	1	0	5,294601768697344E+004	2,8669300E+000	2,8663568E+000	9,399171940136449E-003	1,000000000000000E+000	8,3265398E-003	41	2,6941381E-005
2	1	0	1	0	5,300599368708534E+004	2,8789256E+000	2,8783286E+000	9,318474374621771E-003	1,000000000000000E+000	8,8911578E-003	41	2,6821632E-005
2	1	0	1	0	5,306596998719685E+004	2,8909206E+000	2,8903596E+000	9,228807635686953E-003	1,000000000000000E+000	9,4503779E-003	41	2,6674574E-005
2	1	0	1	0	5,312594598730869E+004	2,9029157E+000	2,9023447E+000	9,099129006761936E-003	1,000000000000000E+000	1,0003080E-002	41	2,6408808E-005
2	1	0	1	0	5,318592188742038E+004	2,9149106E+000	2,9143586E+000	8,974148748761318E-003	1,000000000000000E+000	1,0548095E-002	41	2,6153888E-005
2	1	0	1	0	5,324589828753207E+004	2,9269061E+000	2,9263649E+000	8,882958511996018E-003	1,000000000000000E+000	1,1086727E-002	41	2,5994777E-005
2	1	0	1	0	5,330587428764376E+004	2,9389012E+000	2,9383318E+000	8,818761829816835E-003	1,000000000000000E+000	1,1620861E-002	41	2,5912448E-005
2	1	0	1	0	5,336585028775549E+004	2,9508967E+000	2,9503634E+000	8,791910759853194E-003	1,000000000000000E+000	1,2151828E-002	41	2,5939331E-005
2	1	0	1	0	5,342582668786729E+004	2,9628916E+000	2,9623463E+000	8,757647748759756E-003	1,000000000000000E+000	1,2681016E-002	41	2,5943185E-005
2	1	0	1	0	5,348580268797884E+004	2,9748869E+000	2,9743254E+000	8,758299283688792E-003	1,000000000000000E+000	1,3209228E-002	41	2,6050033E-005
2	1	0	1	0	5,354577928809077E+004	2,9868822E+000	2,9863105E+000	8,778499200013168E-003	1,000000000000000E+000	1,3738239E-002	41	2,6215324E-005
2	1	0	1	0	5,360575468820240E+004	2,9988775E+000	2,9982970E+000	8,831508823291256E-003	1,000000000000000E+000	1,4268860E-002	41	2,6479485E-005
2	1	0	1	1	5,365923338830203E+004	2,9904807E+000	2,9899104E+000	6,524427969177835E-003	1,000000000000000E+000	1,4659316E-002	41	1,9507455E-005
2	1	0	1	1	5,371920928841375E+004	2,9784856E+000	2,9779229E+000	5,482445483384861E-003	1,000000000000000E+000	1,5013479E-002	41	1,6326299E-005
2	1	0	1	1	5,377918528852542E+004	2,9664903E+000	2,9659042E+000	4,735750926343402E-003	1,000000000000000E+000	1,5315558E-002	42	1,4045784E-005
2	1	0	1	1	5,383916188863711E+004	2,9544952E+000	2,9539013E+000	4,158490146030022E-003	1,000000000000000E+000	1,5578271E-002	42	1,2283769E-005
2	1	0	1	1	5,389913728874887E+004	2,9425001E+000	2,9418941E+000	3,674637711985288E-003	1,000000000000000E+000	1,5809361E-002	42	1,0810395E-005
2	1	0	1	1	5,395911388886056E+004	2,9305050E+000	2,9299219E+000	3,271674029597290E-003	1,000000000000000E+000	1,6014224E-002	42	9,5857495E-006
2	1	0	1	1	5,401908908897225E+004	2,9185092E+000	2,9179139E+000	2,936982035775412E-003	1,000000000000000E+000	1,6197043E-002	42	8,5698612E-006
2	1	0	1	1	5,407906508908386E+004	2,9065142E+000	2,9059162E+000	2,626236133876511E-003	1,000000000000000E+000	1,6360469E-002	42	7,6316219E-006
2	1	0	1	1	5,413904108919576E+004	2,8945189E+000	2,8939416E+000	2,369011031917166E-003	1,000000000000000E+000	1,6507415E-002	42	6,8557797E-006
2	1	0	1	1	5,419901658930746E+004	2,8825240E+000	2,8819194E+000	2,148799262316876E-003	1,000000000000000E+000	1,6639756E-002	42	6,1926662E-006
2	1	0	1	1	5,425899218941908E+004	2,8705289E+000	2,8699737E+000	1,934022057174613E-003	1,000000000000000E+000	1,6758831E-002	42	5,5505925E-006
2	1	0	1	1	5,431896808953077E+004	2,8585336E+000	2,8579319E+000	1,749211579439565E-003	1,000000000000000E+000	1,6865680E-002	42	4,9991277E-006
2	1	0	1	1	5,437894408964261E+004	2,8465383E+000	2,8458982E+000	1,567350048729047E-003	1,000000000000000E+000	1,6961725E-002	42	4,4605185E-006
2	1	0	1	1	5,443891928975424E+004	2,8345432E+000	2,8339550E+000	1,408309825555041E-003	1,000000000000000E+000	1,7047867E-002	42	3,9910869E-006
2	1	0	1	1	5,449889528986602E+004	2,8225479E+000	2,8219604E+000	1,273990186331099E-003	1,000000000000000E+000	1,7125355E-002	42	3,5951500E-006
2	1	0	1	1	5,455887128997769E+004	2,8105528E+000	2,8099728E+000	1,161567056072572E-003	1,000000000000000E+000	1,7195309E-002	42	3,2639718E-006
2	1	0	1	1	5,461884709008940E+004	2,7985575E+000	2,7979684E+000	1,061761414769507E-003	1,000000000000000E+000	1,7258571E-002	42	2,9707749E-006
2	1	0	1	1	5,467882249020122E+004	2,7865627E+000	2,7859590E+000	9,682334590130418E-004	1,000000000000000E+000	1,7316127E-002	42	2,6974587E-006
2	1	0	1	1	5,473879909031279E+004	2,7745671E+000	2,7739694E+000	8,851085293506231E-004	1,000000000000000E+000	1,7368507E-002	42	2,4552639E-006
2	1	0	1	1	5,479877469042456E+004	2,7625716E+000	2,7619462E+000	8,149572881313277E-004	1,000000000000000E+000	1,7416276E-002	42	2,2508682E-006
2	1	0	1	1	5,485875019053620E+004	2,7505765E+000	2,7499802E+000	7,455518874498693E-004	1,000000000000000E+000	1,7459922E-002	42	2,0502530E-006
2	1	0	1	1	5,491872619064790E+004	2,7385812E+000	2,7379160E+000	6,747862744112916E-004	1,000000000000000E+000	1,7499596E-002	43	1,8475081E-006
2	1	0	1	1	5,497870209075976E+004	2,7265866E+000	2,7259176E+000	6,195102378023136E-004	1,000000000000000E+000	1,7535804E-002	43	1,6887338E-006
2	1	0	1	1	5,503867729087127E+004	2,7145908E+000	2,7139378E+000	5,586064544417296E-004	1,000000000000000E+000	1,7568586E-002	43	1,5160232E-006
2	1	0	1	1	5,509865329098329E+004	2,7025959E+000	2,7019398E+000	4,967245443783207E-004	1,000000000000000E+000	1,7597822E-002	43	1,3421198E-006
2	1	0	1	1	5,515862929109487E+004	2,6906004E+000	2,6899559E+000	4,455965610042599E-004	1,000000000000000E+000	1,7623512E-002	43	1,1986351E-006
2	1	0	1	1	5,521860449120658E+004	2,6786056E+000	2,6779814E+000	3,913435631438134E-004	1,000000000000000E+000	1,7645555E-002	43	1,0480107E-006
2	1	0	1	1	5,527858049131837E+004	2,6666102E+000	2,6659808E+000	3,009966271512957E-004	1,000000000000000E+000	1,7663486E-002	43	8,0245121E-007
2	1	0	1	1	5,533855649142992E+004	2,6546154E+000	2,6540031E+000	2,237316926358320E-004	1,000000000000000E+000	1,7676843E-002	43	5,9378459E-007
2	1	0	1	1	5,539853269154183E+004	2,6426196E+000	2,6420102E+000	1,344794408019627E-004	1,000000000000000E+000	1,7685005E-002	43	3,5529607E-007
2	1	0	1	1	5,545900769165429E+004	2,6305244E+000	2,6299431E+000	3,163681447929145E-005	1,000000000000000E+000	1,7686933E-002	44	8,3203020E-008
2	0	0	1	1	5,551898369176599E+004	2,6185298E+000	2,6179881E+000	-9,493849454978495E-005	1,000000000000000E+000	1,7681707E-002	43	-2,4854785E-007
2	0	0	1	1	5,557895969187783E+004	2,6065342E+000	2,6059506E+000	-2,060668505351896E-004	1,000000000000000E+000	1,7669832E-002	43	-5,3700001E-007
2	0	0	1	1	5,563893489198945E+004	2,5945392E+000	2,5939951E+000	-2,679413610553320E-004	1,000000000000000E+000	1,7652867E-002	43	-6,9503858E-007
2	0	0	1	1	5,569891089210112E+004	2,5825436E+000	2,5819798E+000	-3,206613580875491E-004	1,000000000000000E+000	1,7632294E-002	43	-8,2794111E-007
2	0	0	1	1	5,575888679221290E+004	2,5705488E+000	2,5699832E+000	-3,680269020391144E-004	1,000000000000000E+000	1,7609052E-002	43	-9,4582299E-007
2	0	0	1	1	5,581886259232461E+004	2,5585535E+000	2,5579944E+000	-4,139698501630538E-004	1,000000000000000E+000	1,7583193E-002	43	-1,0589325E-006
2	0	0	1	1	5,587883789243642E+004	2,5465586E+000	2,5459964E+000	-4,669487970989364E-004	1,000000000000000E+000	1,7554272E-002	43	-1,1888500E-006
2	0	0	1	1	5,593881449254800E+004	2,5345628E+000	2,5340326E+000	-5,231840196662326E-004	1,000000000000000E+000	1,7521964E-002	43	-1,3257653E-006
2	0	0	1	1	5,599879009265976E+004	2,5225680E+000	2,5220492E+000	-5,896893457361272E-004	1,000000000000000E+000	1,7485922E-002	43	-1,4872255E-006
2	0	0	1	1	5,605876569277141E+004	2,5105727E+000	2,5100758E+000	-6,557280786664114E-004	1,000000000000000E+000	1,7446129E-002	43	-1,6459272E-006
2	0	0	1	1	5,611874169288314E+004	2,4985774E+000	2,4980979E+000	-7,194300780094445E-004	1,000000000000000E+000	1,7402286E-002	43	-1,7972068E-006
2	0	0	1	1	5,617871769299486E+004	2,4865825E+000	2,4860568E+000	-7,854393205838396E-004	1,000000000000000E+000	1,7354544E-002	43	-1,9526467E-006
2	0	0	1	1	5,623869289310649E+004	2,4745870E+000	2,4741209E+000	-8,430431418200964E-004	1,000000000000000E+000	1,7303022E-002	43	-2,0857906E-006
2	0	0	1	1	5,629866889321827E+004	2,4625919E+000	2,4620426E+000	-9,077350385624204E-004	1,000000000000000E+000	1,7247293E-002	42	-2,2348822E-006
2	0	0	1	1	5,635864479333008E+004	2,4505968E+000	2,4499984E+000	-9,776039614201289E-004	1,000000000000000E+000	1,7187895E-002	42	-2,3951281E-006
2	0	0	1	1	5,641861999344174E+004	2,4386015E+000	2,4380298E+000	-1,029258612502797E-003	1,000000000000000E+000	1,7124534E-002	42	-2,5093632E-006
2	0	0	1	1	5,647859599355352E+004	2,4266062E+000	2,4260449E+000	-1,107493207534567E-003	1,000000000000000E+000	1,7057139E-002	42	-2,6868283E-006
2	0	0	1	1	5,653857189366501E+004	2,4146113E+000	2,4140308E+000	-1,152894820347920E-003	1,000000000000000E+000	1,6986046E-002	42	-2,7831236E-006
2	0	0	1	1	5,659854809377692E+004	2,4026155E+000	2,4020290E+000	-1,209624182755633E-003	1,000000000000000E+000	1,6911814E-002	42	-2,9055525E-006
2	0	0	1	1	5,665852369388859E+004	2,3906205E+000	2,3900204E+000	-1,245383483632075E-003	1,000000000000000E+000	1,6834883E-002	42	-2,9764919E-006
2	0	0	1	1	5,671849969400026E+004	2,3786254E+000	2,3780293E+000	-1,293064585490574E-003	1,000000000000000E+000	1,6755586E-002	42	-3,0749454E-006
2	0	0	1	1	5,677847569411196E+004	2,3666303E+000	2,3660612E+000	-1,326262744783693E-003	1,000000000000000E+000	1,6673952E-002	42	-3,1380189E-006
2	0	0	1	1	5,683845089422376E+004	2,3546350E+000	2,3540523E+000	-1,370429716501483E-003	1,000000000000000E+000	1,6589893E-002	42	-3,2260632E-006
2	0	0	1	1	5,689842689433543E+004	2,3426397E+000	2,3420689E+000	-1,411106639383205E-003	1,000000000000000E+000	1,6503336E-002	42	-3,3049089E-006
2	0	0	1	1	5,695840289444721E+004	2,3306446E+000	2,3300462E+000	-1,454601626462528E-003	1,000000000000000E+000	1,6414072E-002	42	-3,3892888E-006
2	0	0	1	1	5,701837799455889E+004	2,3186495E+000	2,3180923E+000	-1,503960560230512E-003	1,000000000000000E+000	1,6321899E-002	42	-3,4863194E-006
2	0	0	1	1	5,707835399467056E+004	2,3066540E+000	2,3061028E+000	-1,568809605252209E-003	1,000000000000000E+000	1,6226498E-002	42	-3,6178362E-006
2	0	0	1	1	5,713832989478228E+004	2,2946587E+000	2,2940798E+000	-1,621143917785674E-003	1,000000000000000E+000	1,6127648E-002	42	-3,7190334E-006
2	0	0	1	1	5,719830549489404E+004	2,2826638E+000	2,2820935E+000	-1,685319467132994E-003	1,000000000000000E+000	1,6025035E-002	42	-3,8460566E-006
2	0	0	1	1	5,725828169500572E+004	2,2706687E+000	2,2700891E+000	-1,754090459623204E-003	1,000000000000000E+000	1,5918272E-002	42	-3,9819415E-006
2	0	0	1	1	5,731825709511741E+004	2,2586737E+000	2,2580738E+000	-1,835934066899688E-003	1,000000000000000E+000	1,5807262E-002	42	-4,1456747E-006
2	0	0	1	1	5,737823369522911E+004	2,2466781E+000	2,2460775E+000	-1,917308107473814E-003	1,000000000000000E+000	1,5691465E-002	42	-4,3064229E-006
2	0	0	1	1	5,743820889534103E+004	2,2346828E+000	2,2340951E+000	-2,006784836408100E-003	1,000000000000000E+000	1,5570612E-002	42	-4,4833482E-006
2	0	0	1	1	5,749818489545258E+004	2,2226880E+000	2,2221012E+000	-2,101201529957717E-003	1,000000000000000E+000	1,5444338E-002	42	-4,6690825E-006
2	0	0	1	1	5,755816089556424E+004	2,2106926E+000	2,2100956E+000	-2,197994240364917E-003	1,000000000000000E+000	1,5312281E-002	42	-4,8577776E-006
2	0	0	1	1	5,761813599567604E+004	2,1986973E+000	2,1981063E+000	-2,306006234053852E-003	1,000000000000000E+000	1,5173899E-002	42	-5,0688468E-006
2	0	0	1	1	5,767811199578771E+004	2,1867020E+000	2,1861193E+000	-2,423048961074360E-003	1,000000000000000E+000	1,5028711E-002	42	-5,2970740E-006
2	0	0	1	1	5,773808789589955E+004	2,1747069E+000	2,1741049E+000	-2,545163677580693E-003	1,000000000000000E+000	1,4876362E-002	42	-5,5334531E-006
2	0	0	1	1	5,779806349601119E+004	2,1627121E+000	2,1621675E+000	-2,673409498694240E-003	1,000000000000000E+000	1,4716450E-002	42	-5,7803591E-006
2	0	0	1	1	5,785803909612284E+004	2,1507165E+000	2,1501691E+000	-2,816270877753262E-003	1,000000000000000E+000	1,4548392E-002	42	-6,0554589E-006
2	0	0	1	1	5,791801509623457E+004	2,1387215E+000	2,1381531E+000	-2,969419250710183E-003	1,000000000000000E+000	1,4371638E-002	42	-6,3490729E-006
2	0	0	1	1	5,797799109634629E+004	2,1267262E+000	2,1261542E+000	-3,127147723628858E-003	1,000000000000000E+000	1,4185554E-002	42	-6,6487983E-006
2	0	0	1	1	5,803796689645806E+004	2,1147308E+000	2,1141741E+000	-3,291768402082465E-003	1,000000000000000E+000	1,3989612E-002	42	-6,9593716E-006
2	0	0	1	1	5,809794229656970E+004	2,1027358E+000	2,1021769E+000	-3,476256442258949E-003	1,000000000000000E+000	1,3783588E-002	42	-7,3077058E-006
2	0	0	1	1	5,815791889668140E+004	2,0907407E+000	2,0901730E+000	-3,659591357377923E-003	1,000000000000000E+000	1,3566528E-002	42	-7,6491788E-006
2	0	0	1	1	5,821789409679320E+004	2,0787454E+000	2,0781794E+000	-3,844706214503099E-003	1,000000000000000E+000	1,3338186E-002	42	-7,9899892E-006
2	0	0	1	1	5,827786999690486E+004	2,0667500E+000	2,0661912E+000	-4,061096708284966E-003	1,000000000000000E+000	1,3097913E-002	42	-8,3910027E-006
2	0	0	1	1	5,833784599701676E+004	2,0547550E+000	2,0541892E+000	-4,267559951894984E-003	1,000000000000000E+000	1,2845092E-002	42	-8,7663757E-006
2	0	0	1	1	5,839782149712835E+004	2,0427597E+000	2,0421982E+000	-4,483688976491061E-003	1,000000000000000E+000	1,2579419E-002	42	-9,1565817E-006
2	0	0	1	1	5,845779709724002E+004	2,0307643E+000	2,0302339E+000	-4,702044071311945E-003	1,000000000000000E+000	1,2300393E-002	42	-9,5462492E-006
2	0	0	1	1	5,851777309735169E+004	2,0187695E+000	2,0181794E+000	-4,934499635124989E-003	1,000000000000000E+000	1,2007779E-002	42	-9,9587060E-006
2	0	0	1	1	5,857774969746338E+004	2,0067742E+000	2,0062180E+000	-5,157992285304985E-003	1,000000000000000E+000	1,1701806E-002	42	-1,0348057E-005
2	0	0	1	1	5,863772489757510E+004	1,9947791E+000	1,9942435E+000	-5,378710101201071E-003	1,000000000000000E+000	1,1382417E-002	42	-1,0726458E-005
2	0	0	1	1	5,869770089768688E+004	1,9827839E+000	1,9822031E+000	-5,611339507525411E-003	1,000000000000000E+000	1,1049330E-002	42	-1,1122815E-005
2	0	0	1	1	5,875767689779866E+004	1,9707886E+000	1,9702303E+000	-5,860853678006081E-003	1,000000000000000E+000	1,0702201E-002	42	-1,1547232E-005
2	0	0	1	1	5,881765299791034E+004	1,9587934E+000	1,9582449E+000	-6,106168002552134E-003	1,000000000000000E+000	1,0340074E-002	42	-1,1957372E-005
2	0	0	1	1	5,887762889802203E+004	1,9467984E+000	1,9462200E+000	-6,367653669282318E-003	1,000000000000000E+000	9,9627506E-003	42	-1,2392855E-005
2	0	0	1	1	5,893760489813372E+004	1,9348031E+000	1,9342519E+000	-6,642771801136593E-003	1,000000000000000E+000	9,5690629E-003	42	-1,2848794E-005
2	0	0	1	1	5,899758079824550E+004	1,9228078E+000	1,9222445E+000	-6,950576671405778E-003	1,000000000000000E+000	9,1579016E-003	42	-1,3360708E-005
2	0	0	1	1	5,905755659835716E+004	1,9108127E+000	1,9102874E+000	-7,255387802968638E-003	1,000000000000000E+000	8,7286755E-003	42	-1,3859876E-005
2	0	0	1	1	5,911753259846894E+004	1,8988173E+000	1,8982812E+000	-7,587592941564331E-003	1,000000000000000E+000	8,2800835E-003	42	-1,4403385E-005
2	0	0	1	1	5,917750859858055E+004	1,8868222E+000	1,8862898E+000	-7,932201552734608E-003	1,000000000000000E+000	7,8108846E-003	42	-1,4962431E-005
2	0	0	1	1	5,923748439869224E+004	1,8748270E+000	1,8743267E+000	-8,297683123123373E-003	1,000000000000000E+000	7,3206434E-003	42	-1,5552569E-005
2	0	0	1	1	5,929746039880405E+004	1,8628317E+000	1,8623170E+000	-8,676853832788295E-003	1,000000000000000E+000	6,8081412E-003	42	-1,6159052E-005
2	0	0	1	1	5,935743669891573E+004	1,8508366E+000	1,8503485E+000	-9,079814108448242E-003	1,000000000000000E+000	6,2722308E-003	42	-1,6800821E-005
2	0	0	1	1	5,941741249902733E+004	1,8388416E+000	1,8383492E+000	-9,498910811358494E-003	1,000000000000000E+000	5,7116128E-003	42	-1,7462315E-005
2	0	0	1	1	5,947738839913928E+004	1,8268462E+000	1,8263245E+000	-9,956604667958016E-003	1,000000000000000E+000	5,1250681E-003	42	-1,8183991E-005
2	0	0	1	1	5,953736439925083E+004	1,8148509E+000	1,8142473E+000	-1,045870802322903E-002	1,000000000000000E+000	4,5084371E-003	41	-1,8974682E-005
2	0	0	1	1	5,959734059936256E+004	1,8028556E+000	1,8022090E+000	-1,100829207298359E-002	1,000000000000000E+000	3,8612392E-003	41	-1,9839243E-005
2	0	0	1	1	5,965731639947425E+004	1,7908605E+000	1,7902406E+000	-1,159822282802737E-002	1,000000000000000E+000	3,1800601E-003	41	-2,0763609E-005
2	0	0	1	1	5,971729239958595E+004	1,7788655E+000	1,7782376E+000	-1,223534552184379E-002	1,000000000000000E+000	2,4617233E-003	41	-2,1757351E-005
2	0	0	1	1	5,977726839969773E+004	1,7668701E+000	1,7662269E+000	-1,289216404523735E-002	1,000000000000000E+000	1,7049527E-003	41	-2,2770486E-005
2	0	0	1	1	5,983724419980950E+004	1,7548749E+000	1,7542543E+000	-1,356249106069406E-002	1,000000000000000E+000	9,0796180E-004	41	-2,3792059E-005
2	0	0	1	1	5,989722019992117E+004	1,7428797E+000	1,7422426E+000	-1,427801964116254E-002	1,000000000000000E+000	6,9431175E-005	41	-2,4875773E-005
2	0	0	1	1	5,995719620003289E+004	1,7308844E+000	1,7302815E+000	-1,499328329741659E-002	1,000000000000000E+000	-8,1198715E-004	41	-2,5942600E-005
2	0	0	1	1	6,000038180011325E+004	1,7222385E+000	1,7216356E+000	-1,556595783260615E-002	1,000000000000000E+000	-1,4742801E-003	41	-2,6798907E-005