File: Dati/210311/CV_LTO_MX_10 layer_grafite nuova_0.1_1mVs_01_CV_C03.mpt
EC-Lab ASCII FILE
Nb header lines : 57

Cyclic Voltammetry

Run on channel : 3 (SN 6807)
User :
Electrode connection : standard
Ewe ctrl range : min = 0,00 V, max = 5,00 V
Ewe,I filtering : 50 kHz
Safety Limits :
	Do not start on E overload
Channel : Grounded
Acquisition started on : 03/11/2021 17:24:33
Saved on :
	File : CV_LTO_MX_10 layer_grafite nuova_0.1_1mVs_01_CV_C03.mpr
	Directory : C:\Users\labsuperfici\Desktop\Biologic\Users\Prisca Viviani\210311\
	Host : 169.254.114.127
Device : VSP-300 (SN 0638)
Address : USB
EC-Lab for windows v11.31 (software)
Internet server v11.30 (firmware)
Command interpretor v11.31 (firmware)
Electrode material :
Initial state :
Electrolyte :
Comments :
Cable : standard
Reference electrode : SCE Saturated Calomel Electrode (0,241 V)
Electrode surface area : 0,001 cm²
Characteristic mass : 0,001 g
Equivalent Weight : 0,000 g/eq.
Density : 0,000 g/cm3
Cycle Definition : Charge/Discharge alternance
Ei (V)              0,000
vs.                 Eoc
dE/dt               0,100
dE/dt unit          mV/s
E1 (V)              1,000
vs.                 Ref
Step percent        50
N                   10
E range min (V)     0,000
E range max (V)     5,000
I Range             Auto
I Range min         Unset
I Range max         Unset
I Range init        Unset
Bandwidth           8
E2 (V)              3,000
vs.                 Ref
nc cycles           0
Reverse Scan        1
Ef (V)              0,000
vs.                 Eoc

mode	ox/red	error	control changes	counter inc.	time/s	control/V	Ewe/V	<I>/mA	cycle number	(Q-Qo)/C	I Range	P/W
2	0	1	0	0	0,000000000000000E+000	1,7222385E+000	1,7217158E+000	-6,160395569168031E-004	1,000000000000000E+000	0,0000000E+000	43	-1,0606450E-006
2	0	0	1	0	1,154536970833942E+002	1,7106926E+000	1,7101158E+000	-4,547448508965504E-003	1,000000000000000E+000	-3,6443339E-004	42	-7,7766636E-006
2	0	0	1	0	2,354053940531594E+002	1,6986974E+000	1,6981746E+000	-5,964628129343438E-003	1,000000000000000E+000	-1,0085517E-003	42	-1,0128980E-005
2	0	0	1	0	3,553573910229170E+002	1,6867023E+000	1,6861622E+000	-6,923088909868272E-003	1,000000000000000E+000	-1,7899268E-003	42	-1,1673451E-005
2	0	0	1	0	4,753091879926797E+002	1,6747069E+000	1,6741786E+000	-7,758630335762323E-003	1,000000000000000E+000	-2,6766495E-003	42	-1,2989333E-005
2	0	0	1	0	5,952606849624499E+002	1,6627119E+000	1,6621850E+000	-8,594019875342279E-003	1,000000000000000E+000	-3,6626949E-003	42	-1,4284850E-005
2	0	0	1	0	7,152122819322176E+002	1,6507165E+000	1,6501986E+000	-9,495883634749597E-003	1,000000000000000E+000	-4,7522853E-003	42	-1,5670093E-005
2	0	0	1	0	8,351633789019979E+002	1,6387215E+000	1,6381189E+000	-1,050534380490697E-002	1,000000000000000E+000	-5,9573031E-003	41	-1,7209002E-005
2	0	0	1	0	9,551153758717555E+002	1,6267262E+000	1,6260716E+000	-1,159835427432528E-002	1,000000000000000E+000	-7,2872406E-003	41	-1,8859755E-005
2	0	0	1	0	1,075066572841533E+003	1,6147310E+000	1,6140943E+000	-1,283555425270100E-002	1,000000000000000E+000	-8,7558385E-003	41	-2,0717795E-005
2	0	0	1	0	1,195018669811288E+003	1,6027359E+000	1,6021353E+000	-1,421928070569056E-002	1,000000000000000E+000	-1,0381750E-002	41	-2,2781212E-005
2	0	0	1	0	1,314970266781056E+003	1,5907407E+000	1,5901167E+000	-1,583189250729461E-002	1,000000000000000E+000	-1,2188536E-002	41	-2,5174557E-005
2	0	0	1	0	1,434921363750836E+003	1,5787454E+000	1,5781296E+000	-1,768087164053123E-002	1,000000000000000E+000	-1,4201800E-002	41	-2,7902708E-005
2	0	0	1	0	1,554873960720579E+003	1,5667502E+000	1,5661513E+000	-1,977551751296096E-002	1,000000000000000E+000	-1,6451648E-002	41	-3,0971452E-005
2	0	0	1	0	1,674825157690357E+003	1,5547549E+000	1,5541451E+000	-2,233598000564344E-002	1,000000000000000E+000	-1,8978564E-002	41	-3,4713354E-005
2	0	0	1	0	1,794776754660124E+003	1,5427598E+000	1,5421515E+000	-2,549569694110390E-002	1,000000000000000E+000	-2,1847242E-002	41	-3,9318227E-005
2	0	0	1	0	1,914728251629895E+003	1,5307646E+000	1,5301323E+000	-2,956462033114848E-002	1,000000000000000E+000	-2,5146881E-002	41	-4,5237779E-005
2	0	0	1	0	2,034679448599672E+003	1,5187693E+000	1,5181960E+000	-3,442236120133840E-002	1,000000000000000E+000	-2,8984783E-002	41	-5,2259889E-005
2	0	0	1	0	2,154631345569433E+003	1,5067742E+000	1,5061928E+000	-3,961982288090010E-002	1,000000000000000E+000	-3,3433300E-002	41	-5,9675091E-005
2	0	0	1	0	2,274582542539225E+003	1,4947790E+000	1,4941800E+000	-4,452623019456634E-002	1,000000000000000E+000	-3,8492110E-002	41	-6,6530200E-005
2	0	0	1	0	2,394534139508978E+003	1,4827839E+000	1,4822086E+000	-4,879017544021641E-002	1,000000000000000E+000	-4,4102930E-002	41	-7,2317220E-005
2	0	0	1	0	2,514485636478748E+003	1,4707886E+000	1,4702027E+000	-5,224004222460765E-002	1,000000000000000E+000	-5,0176341E-002	41	-7,6803452E-005
2	0	0	1	0	2,634436833448526E+003	1,4587933E+000	1,4582022E+000	-5,493619986986265E-002	1,000000000000000E+000	-5,6618810E-002	41	-8,0108090E-005
2	0	0	1	0	2,754389330418271E+003	1,4467981E+000	1,4462321E+000	-5,690218694118121E-002	1,000000000000000E+000	-6,3340001E-002	41	-8,2293765E-005
2	0	0	1	0	2,874340527388049E+003	1,4348029E+000	1,4342066E+000	-5,819831118619440E-002	1,000000000000000E+000	-7,0255443E-002	41	-8,3468403E-005
2	0	0	1	0	2,994292524357807E+003	1,4228078E+000	1,4222502E+000	-5,890931765392149E-002	1,000000000000000E+000	-7,7289663E-002	41	-8,3783787E-005
2	0	0	1	0	3,114243621327587E+003	1,4108125E+000	1,4102485E+000	-5,919064156647513E-002	1,000000000000000E+000	-8,4383249E-002	41	-8,3473511E-005
2	0	0	1	0	3,234195418297350E+003	1,3988172E+000	1,3982384E+000	-5,918978042680045E-002	1,000000000000000E+000	-9,1492876E-002	41	-8,2761428E-005
2	0	0	1	0	3,354147315267124E+003	1,3868222E+000	1,3862582E+000	-5,907700278174810E-002	1,000000000000000E+000	-9,8594062E-002	41	-8,1895982E-005
2	0	0	1	0	3,474098512236887E+003	1,3748270E+000	1,3742603E+000	-5,884096855368004E-002	1,000000000000000E+000	-1,0567624E-001	41	-8,0862810E-005
2	0	0	1	0	3,594050509206645E+003	1,3628317E+000	1,3622576E+000	-5,801753581209945E-002	1,000000000000000E+000	-1,1269876E-001	41	-7,9034828E-005
2	0	0	1	0	3,714001706176423E+003	1,3508364E+000	1,3502587E+000	-5,651297737463812E-002	1,000000000000000E+000	-1,1957914E-001	41	-7,6307137E-005
2	0	0	1	0	3,833952803146203E+003	1,3388413E+000	1,3382648E+000	-5,471994205894726E-002	1,000000000000000E+000	-1,2625836E-001	41	-7,3229770E-005
2	0	0	1	0	3,953904800115961E+003	1,3268462E+000	1,3262662E+000	-5,296500933646620E-002	1,000000000000000E+000	-1,3272214E-001	41	-7,0245704E-005
2	0	0	1	0	4,073855897085741E+003	1,3148509E+000	1,3142679E+000	-5,134967096137566E-002	1,000000000000000E+000	-1,3898389E-001	41	-6,7487221E-005
2	0	0	1	0	4,193807895342165E+003	1,3028557E+000	1,3022771E+000	-4,986811725151385E-002	1,000000000000000E+000	-1,4506009E-001	41	-6,4942105E-005
2	0	0	1	0	4,313759693889864E+003	1,2908605E+000	1,2902939E+000	-4,848456364762105E-002	1,000000000000000E+000	-1,5096381E-001	41	-6,2559338E-005
2	0	0	1	0	4,433710792437603E+003	1,2788652E+000	1,2782733E+000	-4,712478143695892E-002	1,000000000000000E+000	-1,5670429E-001	41	-6,0238352E-005
2	0	0	1	0	4,553662790985341E+003	1,2668703E+000	1,2662778E+000	-4,586668747683309E-002	1,000000000000000E+000	-1,6228791E-001	41	-5,8079968E-005
2	0	0	1	0	4,673613889533066E+003	1,2548749E+000	1,2542769E+000	-4,463076875092281E-002	1,000000000000000E+000	-1,6772205E-001	41	-5,5979341E-005
2	0	0	1	0	4,793566488080760E+003	1,2428797E+000	1,2422681E+000	-4,347164329614073E-002	1,000000000000000E+000	-1,7301051E-001	41	-5,4003434E-005
2	0	0	1	0	4,913517686628482E+003	1,2308844E+000	1,2302687E+000	-4,233649890345570E-002	1,000000000000000E+000	-1,7816097E-001	41	-5,2085270E-005
2	0	0	1	0	5,033468785176228E+003	1,2188894E+000	1,2182930E+000	-4,127536618187611E-002	1,000000000000000E+000	-1,8318081E-001	41	-5,0285489E-005
2	0	0	1	0	5,153420783723945E+003	1,2068939E+000	1,2062967E+000	-4,027261597913892E-002	1,000000000000000E+000	-1,8807691E-001	41	-4,8580721E-005
2	0	0	1	0	5,273371882271676E+003	1,1948988E+000	1,1942807E+000	-3,932527988066348E-002	1,000000000000000E+000	-1,9285695E-001	41	-4,6965426E-005
2	0	0	1	0	5,393323880819400E+003	1,1829038E+000	1,1823165E+000	-3,842787684635429E-002	1,000000000000000E+000	-1,9752531E-001	41	-4,5433913E-005
2	0	0	1	0	5,513275079367129E+003	1,1709085E+000	1,1703287E+000	-3,752123310288402E-002	1,000000000000000E+000	-2,0208658E-001	41	-4,3912176E-005
2	0	0	1	0	5,633226177914854E+003	1,1589133E+000	1,1582906E+000	-3,671202309594201E-002	1,000000000000000E+000	-2,0654452E-001	41	-4,2523192E-005
2	0	0	1	0	5,753178176462548E+003	1,1469181E+000	1,1463064E+000	-3,592343792526376E-002	1,000000000000000E+000	-2,1090618E-001	41	-4,1179268E-005
2	0	0	1	0	5,873129875010272E+003	1,1349229E+000	1,1343242E+000	-3,517936789558618E-002	1,000000000000000E+000	-2,1517631E-001	41	-3,9904808E-005
2	0	0	1	0	5,993081873558011E+003	1,1229278E+000	1,1223117E+000	-3,451284495251394E-002	1,000000000000000E+000	-2,1936323E-001	41	-3,8734172E-005
2	0	0	1	0	6,113033072105740E+003	1,1109324E+000	1,1103346E+000	-3,387484324906424E-002	1,000000000000000E+000	-2,2347124E-001	41	-3,7612412E-005
2	0	0	1	0	6,232984270653462E+003	1,0989373E+000	1,0983245E+000	-3,331302205282172E-002	1,000000000000000E+000	-2,2750805E-001	41	-3,6588510E-005
2	0	0	1	0	6,352936769201173E+003	1,0869420E+000	1,0863322E+000	-3,275589991333813E-002	1,000000000000000E+000	-2,3147662E-001	41	-3,5583787E-005
2	0	0	1	0	6,472887867748883E+003	1,0749468E+000	1,0743395E+000	-3,226557262210838E-002	1,000000000000000E+000	-2,3538253E-001	41	-3,4664179E-005
2	0	0	1	0	6,592839866296606E+003	1,0629517E+000	1,0623403E+000	-3,179429884566509E-002	1,000000000000000E+000	-2,3922887E-001	41	-3,3776363E-005
2	0	0	1	0	6,712791064844336E+003	1,0509564E+000	1,0503656E+000	-3,136854585141818E-002	1,000000000000000E+000	-2,4302320E-001	41	-3,2948439E-005
2	0	0	1	0	6,832742263392065E+003	1,0389612E+000	1,0383574E+000	-3,099608870623249E-002	1,000000000000000E+000	-2,4676980E-001	41	-3,2185017E-005
2	0	0	1	0	6,952694161939799E+003	1,0269660E+000	1,0263330E+000	-3,066024685040325E-002	1,000000000000000E+000	-2,5047573E-001	41	-3,1467622E-005
2	0	0	1	0	7,072645360487528E+003	1,0149708E+000	1,0143770E+000	-3,039409442719807E-002	1,000000000000000E+000	-2,5414413E-001	41	-3,0831070E-005
2	0	0	1	0	7,192597259035232E+003	1,0029756E+000	1,0023315E+000	-3,017582309481354E-002	1,000000000000000E+000	-2,5778332E-001	41	-3,0246178E-005
2	0	0	1	0	7,297557657764468E+003	1,0075738E+000	1,0069412E+000	-2,620975611653376E-002	1,000000000000000E+000	-2,6075327E-001	41	-2,6391683E-005
2	0	0	1	0	7,417509556312187E+003	1,0195689E+000	1,0189450E+000	-2,326621007681190E-002	1,000000000000000E+000	-2,6370323E-001	41	-2,3706987E-005
2	0	0	1	0	7,537462454859880E+003	1,0315644E+000	1,0309376E+000	-2,105079231517537E-002	1,000000000000000E+000	-2,6634961E-001	41	-2,1702052E-005
2	0	0	1	0	7,657414853407608E+003	1,0435594E+000	1,0429136E+000	-1,922141768747852E-002	1,000000000000000E+000	-2,6875487E-001	41	-2,0046276E-005
2	0	0	1	0	7,777366851955332E+003	1,0555547E+000	1,0549283E+000	-1,766009119389944E-002	1,000000000000000E+000	-2,7095798E-001	41	-1,8630129E-005
2	0	0	1	0	7,897319150503041E+003	1,0675497E+000	1,0669280E+000	-1,632864573622768E-002	1,000000000000000E+000	-2,7298880E-001	41	-1,7421489E-005
2	0	0	1	0	8,017271149050765E+003	1,0795450E+000	1,0789099E+000	-1,513602410982362E-002	1,000000000000000E+000	-2,7486780E-001	41	-1,6330407E-005
2	0	0	1	0	8,137223447598473E+003	1,0915403E+000	1,0909213E+000	-1,408324987451964E-002	1,000000000000000E+000	-2,7661276E-001	41	-1,5363717E-005
2	0	0	1	0	8,257175846146158E+003	1,1035354E+000	1,1029141E+000	-1,311875384373834E-002	1,000000000000000E+000	-2,7823809E-001	41	-1,4468858E-005
2	0	0	1	0	8,377127844693881E+003	1,1155306E+000	1,1148762E+000	-1,226123820387204E-002	1,000000000000000E+000	-2,7976134E-001	41	-1,3669762E-005
2	0	0	1	0	8,497080143241597E+003	1,1275258E+000	1,1268830E+000	-1,146241286187907E-002	1,000000000000000E+000	-2,8117642E-001	41	-1,2916798E-005
2	0	0	1	0	8,617032141789306E+003	1,1395210E+000	1,1388667E+000	-1,072384318083961E-002	1,000000000000000E+000	-2,8249916E-001	41	-1,2213028E-005
2	0	0	1	0	8,736985040336993E+003	1,1515162E+000	1,1508601E+000	-1,004370286270904E-002	1,000000000000000E+000	-2,8373721E-001	41	-1,1558896E-005
2	0	0	1	0	8,856937438884728E+003	1,1635114E+000	1,1628408E+000	-9,418665988571967E-003	1,000000000000000E+000	-2,8489658E-001	41	-1,0952410E-005
2	0	0	1	0	8,976889437432445E+003	1,1755066E+000	1,1748781E+000	-8,806688432054233E-003	1,000000000000000E+000	-2,8598163E-001	41	-1,0346786E-005
2	0	0	1	0	9,096841735980168E+003	1,1875018E+000	1,1868645E+000	-8,249346433538834E-003	1,000000000000000E+000	-2,8699747E-001	41	-9,7908560E-006
2	0	0	1	0	9,216794234527857E+003	1,1994971E+000	1,1988434E+000	-7,720766905958187E-003	1,000000000000000E+000	-2,8794852E-001	41	-9,2559903E-006
2	0	0	1	0	9,336746633075585E+003	1,2114923E+000	1,2108569E+000	-7,205209794429679E-003	1,000000000000000E+000	-2,8883684E-001	41	-8,7244780E-006
2	0	0	1	0	9,456699031623299E+003	1,2234875E+000	1,2228351E+000	-6,707491656979300E-003	1,000000000000000E+000	-2,8966528E-001	41	-8,2021561E-006
2	0	0	1	0	9,576650930171047E+003	1,2354827E+000	1,2348040E+000	-6,242437697448453E-003	1,000000000000000E+000	-2,9043636E-001	41	-7,7081877E-006
2	0	0	1	0	9,696603328718731E+003	1,2474779E+000	1,2468410E+000	-5,812950827463921E-003	1,000000000000000E+000	-2,9115283E-001	41	-7,2478251E-006
2	0	0	1	0	9,816555227266450E+003	1,2594730E+000	1,2588079E+000	-5,381266514326168E-003	1,000000000000000E+000	-2,9181752E-001	41	-6,7739807E-006
2	0	0	1	0	9,936507625814163E+003	1,2714683E+000	1,2708684E+000	-4,951959791480803E-003	1,000000000000000E+000	-2,9243195E-001	42	-6,2932895E-006
2	0	0	1	0	1,005646002436188E+004	1,2834635E+000	1,2828469E+000	-4,572764377355987E-003	1,000000000000000E+000	-2,9299724E-001	42	-5,8661567E-006
2	0	0	1	0	1,017641192290960E+004	1,2954586E+000	1,2948501E+000	-4,185267304919721E-003	1,000000000000000E+000	-2,9351628E-001	42	-5,4192938E-006
2	0	0	1	0	1,029636492145734E+004	1,3074539E+000	1,3068522E+000	-3,816665746457643E-003	1,000000000000000E+000	-2,9398993E-001	42	-4,9878181E-006
2	0	0	1	0	1,041631682000507E+004	1,3194492E+000	1,3188125E+000	-3,452560432123716E-003	1,000000000000000E+000	-2,9441985E-001	42	-4,5532797E-006
2	0	0	1	0	1,053626921855274E+004	1,3314443E+000	1,3308151E+000	-3,097047316545227E-003	1,000000000000000E+000	-2,9480639E-001	42	-4,1215972E-006
2	0	0	1	0	1,065622161710045E+004	1,3434393E+000	1,3428061E+000	-2,737376771686340E-003	1,000000000000000E+000	-2,9515001E-001	42	-3,6757663E-006
2	0	0	1	0	1,077617411564820E+004	1,3554347E+000	1,3547845E+000	-2,387123138713886E-003	1,000000000000000E+000	-2,9545110E-001	42	-3,2340374E-006
2	0	0	1	0	1,089612641419587E+004	1,3674299E+000	1,3667945E+000	-2,026008360421938E-003	1,000000000000000E+000	-2,9570967E-001	42	-2,7691369E-006
2	0	0	1	0	1,101607841274363E+004	1,3794252E+000	1,3787987E+000	-1,676537004867855E-003	1,000000000000000E+000	-2,9592502E-001	42	-2,3116070E-006
2	0	0	1	0	1,113603081129130E+004	1,3914202E+000	1,3907560E+000	-1,302527301572518E-003	1,000000000000000E+000	-2,9609707E-001	42	-1,8114977E-006
2	0	0	1	0	1,125598310983903E+004	1,4034154E+000	1,4027618E+000	-9,259025850899862E-004	1,000000000000000E+000	-2,9622439E-001	42	-1,2988208E-006
2	0	0	1	0	1,137593510838677E+004	1,4154108E+000	1,4148258E+000	-5,161788888756241E-004	1,000000000000000E+000	-2,9630524E-001	43	-7,3030321E-007
2	0	0	1	0	1,149588740693449E+004	1,4274058E+000	1,4267676E+000	-1,275490053751062E-004	1,000000000000000E+000	-2,9633874E-001	43	-1,8198278E-007
2	1	0	1	0	1,161583940548217E+004	1,4394011E+000	1,4387190E+000	2,827024345689036E-004	1,000000000000000E+000	-2,9632381E-001	43	4,0672938E-007
2	1	0	1	0	1,173579180402988E+004	1,4513963E+000	1,4506686E+000	7,145179557874453E-004	1,000000000000000E+000	-2,9625824E-001	43	1,0365287E-006
2	1	0	1	0	1,185574470257756E+004	1,4633915E+000	1,4627270E+000	1,181273937129447E-003	1,000000000000000E+000	-2,9613820E-001	42	1,7278812E-006
2	1	0	1	0	1,197569670112530E+004	1,4753867E+000	1,4747080E+000	1,663497695373328E-003	1,000000000000000E+000	-2,9596245E-001	42	2,4531732E-006
2	1	0	1	0	1,209564899967302E+004	1,4873819E+000	1,4867227E+000	2,161824308526072E-003	1,000000000000000E+000	-2,9572749E-001	42	3,2140333E-006
2	1	0	1	0	1,221560099822073E+004	1,4993771E+000	1,4986905E+000	2,715093161904610E-003	1,000000000000000E+000	-2,9542953E-001	42	4,0690843E-006
2	1	0	1	0	1,233555399676843E+004	1,5113724E+000	1,5106825E+000	3,328040483335756E-003	1,000000000000000E+000	-2,9506245E-001	42	5,0276126E-006
2	1	0	1	0	1,245550629531615E+004	1,5233675E+000	1,5226882E+000	4,041201540231534E-003	1,000000000000000E+000	-2,9461622E-001	42	6,1534897E-006
2	1	0	1	0	1,257545829386392E+004	1,5353628E+000	1,5346640E+000	4,964646502171682E-003	1,000000000000000E+000	-2,9407337E-001	42	7,6190645E-006
2	1	0	1	0	1,269541059241159E+004	1,5473579E+000	1,5466187E+000	6,178191684953344E-003	1,000000000000000E+000	-2,9339999E-001	42	9,5553069E-006
2	1	0	1	0	1,281536259095930E+004	1,5593531E+000	1,5586118E+000	7,549364288948035E-003	1,000000000000000E+000	-2,9257280E-001	42	1,1766528E-005
2	1	0	1	0	1,293531488950702E+004	1,5713483E+000	1,5706407E+000	9,916123905438716E-003	1,000000000000000E+000	-2,9153880E-001	42	1,5574667E-005
2	1	0	1	0	1,305526728805475E+004	1,5833435E+000	1,5826620E+000	1,534186619387062E-002	1,000000000000000E+000	-2,9004911E-001	41	2,4280989E-005
2	1	0	1	0	1,317521918660245E+004	1,5953388E+000	1,5946524E+000	2,290629201644613E-002	1,000000000000000E+000	-2,8775686E-001	41	3,6527574E-005
2	1	0	1	0	1,329517158515021E+004	1,6073340E+000	1,6066316E+000	3,099842956269183E-002	1,000000000000000E+000	-2,8451750E-001	41	4,9803057E-005
2	1	0	1	0	1,341512418369789E+004	1,6193292E+000	1,6186439E+000	3,904630293528921E-002	1,000000000000000E+000	-2,8030625E-001	41	6,3202060E-005
2	1	0	1	0	1,353507648224564E+004	1,6313243E+000	1,6305938E+000	4,669314529182678E-002	1,000000000000000E+000	-2,7515128E-001	41	7,6137549E-005
2	1	0	1	0	1,365502888079331E+004	1,6433197E+000	1,6426442E+000	5,377039665143996E-002	1,000000000000000E+000	-2,6911202E-001	41	8,8325629E-005
2	1	0	1	0	1,377498077934107E+004	1,6553147E+000	1,6545997E+000	6,007103828166094E-002	1,000000000000000E+000	-2,6227051E-001	41	9,9393517E-005
2	1	0	1	0	1,389493377788877E+004	1,6673101E+000	1,6665959E+000	6,556187411391723E-002	1,000000000000000E+000	-2,5472140E-001	41	1,0926515E-004
2	1	0	1	0	1,401488577643645E+004	1,6793053E+000	1,6786015E+000	7,024279486836882E-002	1,000000000000000E+000	-2,4656190E-001	41	1,1790966E-004
2	1	0	1	0	1,413483807498417E+004	1,6913003E+000	1,6905932E+000	7,406475873909879E-002	1,000000000000000E+000	-2,3789142E-001	41	1,2521338E-004
2	1	0	1	0	1,425479037353187E+004	1,7032957E+000	1,7025959E+000	7,706580900456583E-002	1,000000000000000E+000	-2,2881141E-001	41	1,3121193E-004
2	1	0	1	0	1,437474297207959E+004	1,7152907E+000	1,7145554E+000	7,924692030295200E-002	1,000000000000000E+000	-2,1942256E-001	41	1,3587324E-004
2	1	0	1	0	1,449469537062731E+004	1,7272860E+000	1,7265629E+000	8,060965698097666E-002	1,000000000000000E+000	-2,0982100E-001	41	1,3917765E-004
2	1	0	1	0	1,461464736917503E+004	1,7392812E+000	1,7385371E+000	8,119049853276283E-002	1,000000000000000E+000	-2,0010267E-001	41	1,4115269E-004
2	1	0	1	0	1,473459966772274E+004	1,7512764E+000	1,7505451E+000	8,106890598676486E-002	1,000000000000000E+000	-1,9035615E-001	41	1,4191477E-004
2	1	0	1	0	1,485455256627047E+004	1,7632717E+000	1,7625320E+000	8,024316343423465E-002	1,000000000000000E+000	-1,8066932E-001	41	1,4143114E-004
2	1	0	1	0	1,497450456481820E+004	1,7752669E+000	1,7745428E+000	7,872990675689184E-002	1,000000000000000E+000	-1,7112321E-001	41	1,3970959E-004
2	1	0	1	0	1,509445696336588E+004	1,7872618E+000	1,7865436E+000	7,668037424541563E-002	1,000000000000000E+000	-1,6179313E-001	41	1,3699284E-004
2	1	0	1	0	1,521440886191360E+004	1,7992570E+000	1,7985690E+000	7,403058588826550E-002	1,000000000000000E+000	-1,5274681E-001	41	1,3314911E-004
2	1	0	1	0	1,533436126046131E+004	1,8112522E+000	1,8105321E+000	7,092224383738732E-002	1,000000000000000E+000	-1,4404483E-001	41	1,2840700E-004
2	1	0	1	0	1,545431355900902E+004	1,8232477E+000	1,8225352E+000	6,741780601767799E-002	1,000000000000000E+000	-1,3573949E-001	41	1,2287132E-004
2	1	0	1	0	1,557426555755675E+004	1,8352429E+000	1,8345574E+000	6,372805944787685E-002	1,000000000000000E+000	-1,2786803E-001	41	1,1691279E-004
2	1	0	1	0	1,569421795610443E+004	1,8472379E+000	1,8465180E+000	5,989882811068137E-002	1,000000000000000E+000	-1,2044802E-001	41	1,1060427E-004
2	1	0	1	0	1,581416985465217E+004	1,8592333E+000	1,8585391E+000	5,593662600235594E-002	1,000000000000000E+000	-1,1349747E-001	41	1,0396041E-004
2	1	0	1	0	1,593412275319989E+004	1,8712285E+000	1,8705357E+000	5,200193611771298E-002	1,000000000000000E+000	-1,0701956E-001	41	9,7271477E-005
2	1	0	1	0	1,605407515174759E+004	1,8832235E+000	1,8825514E+000	4,822658104515221E-002	1,000000000000000E+000	-1,0100049E-001	41	9,0789021E-005
2	1	0	1	0	1,617402715029531E+004	1,8952187E+000	1,8945501E+000	4,403457407499587E-002	1,000000000000000E+000	-9,5456868E-002	41	8,3425708E-005
2	1	0	1	0	1,629397954884303E+004	1,9072140E+000	1,9065292E+000	3,967001701127035E-002	1,000000000000000E+000	-9,0434782E-002	41	7,5632044E-005
2	1	0	1	0	1,641393204739076E+004	1,9192091E+000	1,9185323E+000	3,574793886458671E-002	1,000000000000000E+000	-8,5914992E-002	41	6,8583577E-005
2	1	0	1	0	1,653388434593845E+004	1,9312046E+000	1,9305454E+000	3,250468428545561E-002	1,000000000000000E+000	-8,1822142E-002	41	6,2751773E-005
2	1	0	1	0	1,665383674448624E+004	1,9431996E+000	1,9425102E+000	2,978309347436553E-002	1,000000000000000E+000	-7,8085825E-002	41	5,7853966E-005
2	1	0	1	0	1,677378874303389E+004	1,9551950E+000	1,9545323E+000	2,751029843228124E-002	1,000000000000000E+000	-7,4648321E-002	41	5,3769767E-005
2	1	0	1	0	1,689374104158161E+004	1,9671899E+000	1,9665450E+000	2,559279759045341E-002	1,000000000000000E+000	-7,1460627E-002	41	5,0329389E-005
2	1	0	1	0	1,701369304012932E+004	1,9791853E+000	1,9785126E+000	2,393260740395675E-002	1,000000000000000E+000	-6,8482190E-002	41	4,7350968E-005
2	1	0	1	0	1,713364533867710E+004	1,9911804E+000	1,9905690E+000	2,251413794378690E-002	1,000000000000000E+000	-6,5692954E-002	41	4,4815944E-005
2	1	0	1	0	1,725359953722472E+004	2,0031755E+000	2,0025330E+000	2,121701042975155E-002	1,000000000000000E+000	-6,3066632E-002	41	4,2487762E-005
2	1	0	1	0	1,737355153577239E+004	2,0151703E+000	2,0145335E+000	2,007863663303514E-002	1,000000000000000E+000	-6,0585357E-002	41	4,0449086E-005
2	1	0	1	0	1,749350383432016E+004	2,0271657E+000	2,0265529E+000	1,909591980060059E-002	1,000000000000000E+000	-5,8231309E-002	41	3,8698890E-005
2	1	0	1	0	1,761345693286786E+004	2,0391612E+000	2,0385475E+000	1,820498595989201E-002	1,000000000000000E+000	-5,5989243E-002	41	3,7111728E-005
2	1	0	1	0	1,773340813141558E+004	2,0511563E+000	2,0505319E+000	1,741303210460649E-002	1,000000000000000E+000	-5,3847317E-002	41	3,5705976E-005
2	1	0	1	0	1,785336172996330E+004	2,0631516E+000	2,0625007E+000	1,669372504916838E-002	1,000000000000000E+000	-5,1797118E-002	41	3,4430821E-005
2	1	0	1	0	1,797331362851104E+004	2,0751467E+000	2,0745227E+000	1,603329172962615E-002	1,000000000000000E+000	-4,9829070E-002	41	3,3261429E-005
2	1	0	1	0	1,809326602705874E+004	2,0871420E+000	2,0865297E+000	1,543816400647818E-002	1,000000000000000E+000	-4,7936916E-002	41	3,2212189E-005
2	1	0	1	0	1,821321792560647E+004	2,0991371E+000	2,0985196E+000	1,490110148139490E-002	1,000000000000000E+000	-4,6112828E-002	41	3,1270254E-005
2	1	0	1	0	1,833317032415417E+004	2,1111326E+000	2,1105237E+000	1,434784298196461E-002	1,000000000000000E+000	-4,4353258E-002	41	3,0281462E-005
2	1	0	1	0	1,845312272270190E+004	2,1231272E+000	2,1225038E+000	1,387336951678995E-002	1,000000000000000E+000	-4,2654432E-002	41	2,9446279E-005
2	1	0	1	0	1,857307462124960E+004	2,1351228E+000	2,1344810E+000	1,342758342894963E-002	1,000000000000000E+000	-4,1011579E-002	41	2,8660921E-005
2	1	0	1	0	1,869302701979733E+004	2,1471179E+000	2,1465180E+000	1,301202603002716E-002	1,000000000000000E+000	-3,9420247E-002	41	2,7930548E-005
2	1	0	1	0	1,881297891834503E+004	2,1591132E+000	2,1584752E+000	1,259306101008309E-002	1,000000000000000E+000	-3,7879314E-002	41	2,7181810E-005
2	1	0	1	0	1,893293251689267E+004	2,1711085E+000	2,1704814E+000	1,222235133031806E-002	1,000000000000000E+000	-3,6385469E-002	41	2,6528387E-005
2	1	0	1	0	1,905288371544052E+004	2,1831036E+000	2,1824765E+000	1,185614226550558E-002	1,000000000000000E+000	-3,4935512E-002	41	2,5875752E-005
2	1	0	1	0	1,917283681398816E+004	2,1950989E+000	2,1944788E+000	1,150931606204613E-002	1,000000000000000E+000	-3,3528026E-002	41	2,5256950E-005
2	1	0	1	0	1,929278911253589E+004	2,2070940E+000	2,2064812E+000	1,118776309676933E-002	1,000000000000000E+000	-3,2160513E-002	41	2,4685589E-005
2	1	0	1	0	1,941274111108365E+004	2,2190893E+000	2,2184627E+000	1,088478045363680E-002	1,000000000000000E+000	-3,0831356E-002	41	2,4147479E-005
2	1	0	1	0	1,953269350963132E+004	2,2310843E+000	2,2305119E+000	1,059352755324028E-002	1,000000000000000E+000	-2,9537071E-002	41	2,3628989E-005
2	1	0	1	0	1,965264580817905E+004	2,2430799E+000	2,2424412E+000	1,031637012116613E-002	1,000000000000000E+000	-2,8277447E-002	41	2,3133853E-005
2	1	0	1	0	1,977259780672682E+004	2,2550747E+000	2,2544622E+000	1,005592838078638E-002	1,000000000000000E+000	-2,7050763E-002	41	2,2670711E-005
2	1	0	1	0	1,989255010527442E+004	2,2670698E+000	2,2664971E+000	9,797602917652078E-003	1,000000000000000E+000	-2,5855269E-002	41	2,2206239E-005
2	1	0	1	0	2,001250210382219E+004	2,2790651E+000	2,2784698E+000	9,555106319069473E-003	1,000000000000000E+000	-2,4688004E-002	41	2,1771020E-005
2	1	0	1	0	2,013245450236986E+004	2,2910604E+000	2,2904165E+000	9,343400816209671E-003	1,000000000000000E+000	-2,3547983E-002	41	2,1400279E-005
2	1	0	1	0	2,025240800091757E+004	2,3030558E+000	2,3024714E+000	9,136745913859781E-003	1,000000000000000E+000	-2,2433702E-002	41	2,1037096E-005
2	1	0	1	0	2,037235879946529E+004	2,3150508E+000	2,3144598E+000	8,942292246550035E-003	1,000000000000000E+000	-2,1344127E-002	41	2,0696576E-005
2	1	0	1	0	2,049231229801300E+004	2,3270462E+000	2,3264315E+000	8,764283347799107E-003	1,000000000000000E+000	-2,0276582E-002	41	2,0389505E-005
2	1	0	1	0	2,061226429656078E+004	2,3390410E+000	2,3384616E+000	8,607354587777838E-003	1,000000000000000E+000	-1,9229820E-002	41	2,0127969E-005
2	1	0	1	0	2,073221669510844E+004	2,3510363E+000	2,3504117E+000	8,494608940624926E-003	1,000000000000000E+000	-1,8198872E-002	41	1,9965828E-005
2	1	0	1	0	2,085216899365617E+004	2,3630314E+000	2,3624444E+000	8,293445445868519E-003	1,000000000000000E+000	-1,7185429E-002	41	1,9592804E-005
2	1	0	1	0	2,097212089220386E+004	2,3750272E+000	2,3744292E+000	8,115229214335867E-003	1,000000000000000E+000	-1,6197294E-002	41	1,9269037E-005
2	1	0	1	0	2,109207329075161E+004	2,3870220E+000	2,3864121E+000	7,986935981398838E-003	1,000000000000000E+000	-1,5226407E-002	41	1,9060120E-005
2	1	0	1	0	2,121202528929930E+004	2,3990171E+000	2,3984079E+000	7,888558597679562E-003	1,000000000000000E+000	-1,4268795E-002	41	1,8919982E-005
2	1	0	1	0	2,133197758784704E+004	2,4110122E+000	2,4104137E+000	7,798157462425570E-003	1,000000000000000E+000	-1,3323028E-002	41	1,8796785E-005
2	1	0	1	0	2,145192998639474E+004	2,4230077E+000	2,4224145E+000	7,720022969351106E-003	1,000000000000000E+000	-1,2386792E-002	41	1,8701096E-005
2	1	0	1	0	2,157188188494247E+004	2,4350026E+000	2,4344153E+000	7,669156060419360E-003	1,000000000000000E+000	-1,1458440E-002	41	1,8669911E-005
2	1	0	1	0	2,169183428349017E+004	2,4469981E+000	2,4463975E+000	7,589730972771935E-003	1,000000000000000E+000	-1,0537683E-002	41	1,8567500E-005
2	1	0	1	0	2,181178748203788E+004	2,4589934E+000	2,4583774E+000	7,515329034077665E-003	1,000000000000000E+000	-9,6258475E-003	41	1,8475515E-005
2	1	0	1	0	2,193173858058560E+004	2,4709885E+000	2,4703667E+000	7,444976291613781E-003	1,000000000000000E+000	-8,7233102E-003	41	1,8391822E-005
2	1	0	1	0	2,205169207913330E+004	2,4829836E+000	2,4823656E+000	7,373145038277018E-003	1,000000000000000E+000	-7,8290673E-003	41	1,8302842E-005
2	1	0	1	0	2,217164407768103E+004	2,4949784E+000	2,4943671E+000	7,287982572367596E-003	1,000000000000000E+000	-6,9442047E-003	41	1,8178904E-005
2	1	0	1	0	2,229159647622867E+004	2,5069740E+000	2,5063829E+000	7,163705180934482E-003	1,000000000000000E+000	-6,0720523E-003	41	1,7954988E-005
2	1	0	1	0	2,241154847477647E+004	2,5189691E+000	2,5183773E+000	7,027252532044549E-003	1,000000000000000E+000	-5,2147647E-003	41	1,7697274E-005
2	1	0	1	0	2,253150077332417E+004	2,5309649E+000	2,5303602E+000	6,905748824458505E-003	1,000000000000000E+000	-4,3731001E-003	41	1,7474033E-005
2	1	0	1	0	2,265145307187192E+004	2,5429592E+000	2,5423887E+000	6,755952805635339E-003	1,000000000000000E+000	-3,5486547E-003	41	1,7176259E-005
2	1	0	1	0	2,277140507041966E+004	2,5549550E+000	2,5543482E+000	6,612746664420244E-003	1,000000000000000E+000	-2,7414795E-003	41	1,6891257E-005
2	1	0	1	0	2,289135746896733E+004	2,5669498E+000	2,5663447E+000	6,472177780108631E-003	1,000000000000000E+000	-1,9509565E-003	41	1,6609840E-005
2	1	0	1	0	2,301130936751503E+004	2,5789454E+000	2,5783720E+000	6,339014058315853E-003	1,000000000000000E+000	-1,1770464E-003	41	1,6344336E-005
2	1	0	1	0	2,313126296606276E+004	2,5909407E+000	2,5903559E+000	6,232206655556391E-003	1,000000000000000E+000	-4,1757975E-004	41	1,6143633E-005
2	1	0	1	0	2,325121406461048E+004	2,6029358E+000	2,6023173E+000	6,147255923573319E-003	1,000000000000000E+000	3,3056797E-004	41	1,5997111E-005
2	1	0	1	0	2,337116726315813E+004	2,6149309E+000	2,6143370E+000	6,071068284641976E-003	1,000000000000000E+000	1,0686665E-003	41	1,5871818E-005
2	1	0	1	0	2,349111846170586E+004	2,6269264E+000	2,6263556E+000	6,007283507172848E-003	1,000000000000000E+000	1,7983820E-003	41	1,5777263E-005
2	1	0	1	0	2,361107156025368E+004	2,6389215E+000	2,6383395E+000	5,924247340249891E-003	1,000000000000000E+000	2,5188925E-003	41	1,5630176E-005
2	1	0	1	0	2,373102395880129E+004	2,6509163E+000	2,6503289E+000	5,835562523301994E-003	1,000000000000000E+000	3,2296332E-003	41	1,5466159E-005
2	1	0	1	0	2,385097625734902E+004	2,6629117E+000	2,6623023E+000	5,744357933726171E-003	1,000000000000000E+000	3,9294716E-003	41	1,5293217E-005
2	1	0	1	0	2,397092825589678E+004	2,6749067E+000	2,6743114E+000	5,656947092006814E-003	1,000000000000000E+000	4,6183793E-003	41	1,5128438E-005
2	1	0	1	0	2,409088065444444E+004	2,6869023E+000	2,6862707E+000	5,563627565063685E-003	1,000000000000000E+000	5,2960659E-003	41	1,4945410E-005
2	1	0	1	0	2,421083255299227E+004	2,6988971E+000	2,6983171E+000	5,503462450049096E-003	1,000000000000000E+000	5,9646000E-003	41	1,4850087E-005
2	1	0	1	0	2,433078485153988E+004	2,7108924E+000	2,7103171E+000	5,440778223926510E-003	1,000000000000000E+000	6,6260132E-003	41	1,4746234E-005
2	1	0	1	0	2,445073725008755E+004	2,7228873E+000	2,7223010E+000	5,405459399439164E-003	1,000000000000000E+000	7,2812061E-003	41	1,4715288E-005
2	1	0	1	0	2,457068924863530E+004	2,7348828E+000	2,7343142E+000	5,365003786571721E-003	1,000000000000000E+000	7,9317037E-003	41	1,4669606E-005
2	1	0	1	0	2,469064154718304E+004	2,7468779E+000	2,7462802E+000	5,346409877985195E-003	1,000000000000000E+000	8,5788872E-003	41	1,4682740E-005
2	1	0	1	0	2,481059354573074E+004	2,7588732E+000	2,7582684E+000	5,346051724825468E-003	1,000000000000000E+000	9,2254644E-003	41	1,4745845E-005
2	1	0	1	0	2,493054704427844E+004	2,7708688E+000	2,7702641E+000	5,381133703443369E-003	1,000000000000000E+000	9,8736761E-003	41	1,4907162E-005
2	1	0	1	0	2,505049824282617E+004	2,7828639E+000	2,7822571E+000	5,439915286143973E-003	1,000000000000000E+000	1,0527537E-002	41	1,5135242E-005
2	1	0	1	0	2,517045144137388E+004	2,7948589E+000	2,7942729E+000	5,533858336966943E-003	1,000000000000000E+000	1,1190889E-002	41	1,5463111E-005
2	1	0	1	0	2,529040373992163E+004	2,8068540E+000	2,8062358E+000	5,661100073083854E-003	1,000000000000000E+000	1,1867684E-002	41	1,5886382E-005
2	1	0	1	0	2,541035573846931E+004	2,8188493E+000	2,8182690E+000	5,796652911899000E-003	1,000000000000000E+000	1,2561271E-002	41	1,6336528E-005
2	1	0	1	0	2,553030803701706E+004	2,8308444E+000	2,8302457E+000	5,891132192021815E-003	1,000000000000000E+000	1,3268308E-002	41	1,6673352E-005
2	1	0	1	0	2,565026043556473E+004	2,8428397E+000	2,8422260E+000	5,906871096757950E-003	1,000000000000000E+000	1,3981777E-002	41	1,6788663E-005
2	1	0	1	0	2,577021243411247E+004	2,8548348E+000	2,8542745E+000	5,859900088773767E-003	1,000000000000000E+000	1,4693607E-002	41	1,6725764E-005
2	1	0	1	0	2,589016473266017E+004	2,8668306E+000	2,8662543E+000	5,774502688971266E-003	1,000000000000000E+000	1,5396900E-002	41	1,6551194E-005
2	1	0	1	0	2,601011673120791E+004	2,8788252E+000	2,8782263E+000	5,664528641182193E-003	1,000000000000000E+000	1,6088093E-002	41	1,6303795E-005
2	1	0	1	0	2,613006902975560E+004	2,8908205E+000	2,8902390E+000	5,544991882206612E-003	1,000000000000000E+000	1,6765365E-002	41	1,6026352E-005
2	1	0	1	0	2,625002142830336E+004	2,9028153E+000	2,9022326E+000	5,443859845796473E-003	1,000000000000000E+000	1,7428970E-002	41	1,5799347E-005
2	1	0	1	0	2,636997342685098E+004	2,9148114E+000	2,9142432E+000	5,376297217206644E-003	1,000000000000000E+000	1,8083017E-002	41	1,5667838E-005
2	1	0	1	0	2,648992692539876E+004	2,9268062E+000	2,9262540E+000	5,350420332571562E-003	1,000000000000000E+000	1,8731810E-002	41	1,5656689E-005
2	1	0	1	0	2,660987762394646E+004	2,9388013E+000	2,9382246E+000	5,388450688483731E-003	1,000000000000000E+000	1,9381011E-002	41	1,5832478E-005
2	1	0	1	0	2,672983122249419E+004	2,9507966E+000	2,9502161E+000	5,434022698247866E-003	1,000000000000000E+000	2,0035123E-002	41	1,6031541E-005
2	1	0	1	0	2,684978362104192E+004	2,9627917E+000	2,9622128E+000	5,490229120446041E-003	1,000000000000000E+000	2,0695200E-002	41	1,6263228E-005
2	1	0	1	0	2,696973551958968E+004	2,9747870E+000	2,9741979E+000	5,573914893416014E-003	1,000000000000000E+000	2,1363858E-002	41	1,6577926E-005
2	1	0	1	0	2,708968791813729E+004	2,9867818E+000	2,9862168E+000	5,684100471625701E-003	1,000000000000000E+000	2,2044618E-002	41	1,6973956E-005
2	1	0	1	0	2,720963981668511E+004	2,9987776E+000	2,9982088E+000	5,766524202960532E-003	1,000000000000000E+000	2,2737132E-002	41	1,7289243E-005
2	1	0	1	1	2,731759601537799E+004	2,9904809E+000	2,9898615E+000	4,328110716432063E-003	1,000000000000000E+000	2,3261394E-002	42	1,2940452E-005
2	1	0	1	1	2,743754801392573E+004	2,9784853E+000	2,9778950E+000	3,586091052114937E-003	1,000000000000000E+000	2,3727797E-002	42	1,0679003E-005
2	1	0	1	1	2,755750001247341E+004	2,9664903E+000	2,9658904E+000	3,051092532885637E-003	1,000000000000000E+000	2,4119141E-002	42	9,0492058E-006
2	1	0	1	1	2,767745111102115E+004	2,9544952E+000	2,9539204E+000	2,634542089909351E-003	1,000000000000000E+000	2,4453532E-002	42	7,7822278E-006
2	1	0	1	1	2,779740090956888E+004	2,9425001E+000	2,9419045E+000	2,294594020572770E-003	1,000000000000000E+000	2,4743283E-002	42	6,7504766E-006
2	1	0	1	1	2,791735300811660E+004	2,9305048E+000	2,9299171E+000	2,023638907464518E-003	1,000000000000000E+000	2,4996052E-002	42	5,9290942E-006
2	1	0	1	1	2,803730300666438E+004	2,9185092E+000	2,9179122E+000	1,779616635474979E-003	1,000000000000000E+000	2,5218330E-002	42	5,1927650E-006
2	1	0	1	1	2,815725500521209E+004	2,9065142E+000	2,9059353E+000	1,591809587259171E-003	1,000000000000000E+000	2,5415003E-002	42	4,6256955E-006
2	1	0	1	1	2,827720500375985E+004	2,8945189E+000	2,8939452E+000	1,410530911455904E-003	1,000000000000000E+000	2,5589550E-002	42	4,0819991E-006
2	1	0	1	1	2,839715590230754E+004	2,8825240E+000	2,8819208E+000	1,252396278284230E-003	1,000000000000000E+000	2,5744330E-002	42	3,6093070E-006
2	1	0	1	1	2,851710690085532E+004	2,8705287E+000	2,8699658E+000	1,125856495261295E-003	1,000000000000000E+000	2,5881702E-002	42	3,2311696E-006
2	1	0	1	1	2,863705679940301E+004	2,8585336E+000	2,8579626E+000	9,978214849458676E-004	1,000000000000000E+000	2,6003443E-002	42	2,8517366E-006
2	1	0	1	1	2,875700879795075E+004	2,8465381E+000	2,8459957E+000	8,862253545530961E-004	1,000000000000000E+000	2,6111126E-002	42	2,5221934E-006
2	1	0	1	1	2,887695879649847E+004	2,8345430E+000	2,8339748E+000	7,893851624688831E-004	1,000000000000000E+000	2,6206454E-002	42	2,2370978E-006
2	1	0	1	1	2,899690979504620E+004	2,8225477E+000	2,8219829E+000	7,100674606613754E-004	1,000000000000000E+000	2,6290938E-002	42	2,0037983E-006
2	1	0	1	1	2,911686069359403E+004	2,8105528E+000	2,8099327E+000	6,232133693128564E-004	1,000000000000000E+000	2,6365828E-002	43	1,7511876E-006
2	1	0	1	1	2,923681189214165E+004	2,7985575E+000	2,7979195E+000	5,679002732475926E-004	1,000000000000000E+000	2,6432775E-002	43	1,5889392E-006
2	1	0	1	1	2,935676259068935E+004	2,7865624E+000	2,7859290E+000	5,061577715569851E-004	1,000000000000000E+000	2,6492545E-002	43	1,4101196E-006
2	1	0	1	1	2,947671378923720E+004	2,7745669E+000	2,7739666E+000	4,614892703834628E-004	1,000000000000000E+000	2,6546130E-002	43	1,2801557E-006
2	1	0	1	1	2,959666478778486E+004	2,7625716E+000	2,7619178E+000	4,185696191243288E-004	1,000000000000000E+000	2,6594058E-002	43	1,1560549E-006
2	1	0	1	1	2,971661578633258E+004	2,7505767E+000	2,7499826E+000	3,830517108644269E-004	1,000000000000000E+000	2,6637303E-002	43	1,0533855E-006
2	1	0	1	1	2,983656568488036E+004	2,7385812E+000	2,7379720E+000	3,449194463316005E-004	1,000000000000000E+000	2,6676305E-002	43	9,4437979E-007
2	1	0	1	1	2,995651768342805E+004	2,7265863E+000	2,7259567E+000	3,119608610637906E-004	1,000000000000000E+000	2,6711384E-002	43	8,5039181E-007
2	1	0	1	1	3,007646758197574E+004	2,7145910E+000	2,7139630E+000	2,838888784853161E-004	1,000000000000000E+000	2,6742475E-002	43	7,7046394E-007
2	1	0	1	1	3,019641858052346E+004	2,7025957E+000	2,7019989E+000	2,513898628045573E-004	1,000000000000000E+000	2,6769973E-002	43	6,7925515E-007
2	1	0	1	1	3,031636957907130E+004	2,6906004E+000	2,6900134E+000	2,197555814195135E-004	1,000000000000000E+000	2,6793724E-002	43	5,9114547E-007
2	1	0	1	1	3,043631957761903E+004	2,6786056E+000	2,6780231E+000	1,853463812654691E-004	1,000000000000000E+000	2,6813498E-002	43	4,9636191E-007
2	1	0	1	1	3,055627147616670E+004	2,6666102E+000	2,6660326E+000	1,499697085049768E-004	1,000000000000000E+000	2,6828945E-002	43	3,9982413E-007
2	1	0	1	1	3,067622147471446E+004	2,6546152E+000	2,6540711E+000	1,129772104121241E-004	1,000000000000000E+000	2,6839353E-002	43	2,9984955E-007
2	1	0	1	1	3,079617357326217E+004	2,6426198E+000	2,6420152E+000	4,986498327766453E-005	1,000000000000000E+000	2,6843950E-002	44	1,3174405E-007
2	1	0	1	1	3,091612337180992E+004	2,6306248E+000	2,6300488E+000	-1,105381484664621E-005	1,000000000000000E+000	2,6841477E-002	44	-2,9072073E-008
2	0	0	1	1	3,103607457035765E+004	2,6186292E+000	2,6180708E+000	-7,476255049828229E-005	1,000000000000000E+000	2,6831424E-002	43	-1,9573365E-007
2	0	0	1	1	3,115602536890537E+004	2,6066344E+000	2,6060698E+000	-1,260048143712540E-004	1,000000000000000E+000	2,6814273E-002	43	-3,2837735E-007
2	0	0	1	1	3,127597646745310E+004	2,5946393E+000	2,5940597E+000	-1,709582077252061E-004	1,000000000000000E+000	2,6791787E-002	43	-4,4347578E-007
2	0	0	1	1	3,139592746600084E+004	2,5826440E+000	2,5820713E+000	-1,917417533151700E-004	1,000000000000000E+000	2,6765568E-002	43	-4,9509089E-007
2	0	0	1	1	3,151587836454855E+004	2,5706487E+000	2,5700922E+000	-2,175530201720816E-004	1,000000000000000E+000	2,6736554E-002	43	-5,5913131E-007
2	0	0	1	1	3,163582836309634E+004	2,5586534E+000	2,5580685E+000	-2,436957782700911E-004	1,000000000000000E+000	2,6704509E-002	43	-6,2339052E-007
2	0	0	1	1	3,175578036164405E+004	2,5466583E+000	2,5461059E+000	-2,752510530990159E-004	1,000000000000000E+000	2,6669210E-002	43	-7,0081830E-007
2	0	0	1	1	3,187573036019181E+004	2,5346627E+000	2,5341232E+000	-3,065300622527778E-004	1,000000000000000E+000	2,6629953E-002	43	-7,7678493E-007
2	0	0	1	1	3,199568125873953E+004	2,5226681E+000	2,5221128E+000	-3,425558140080628E-004	1,000000000000000E+000	2,6586279E-002	43	-8,6396443E-007
2	0	0	1	1	3,211563225728727E+004	2,5106726E+000	2,5101402E+000	-3,881292886287815E-004	1,000000000000000E+000	2,6538119E-002	43	-9,7425891E-007
2	0	0	1	1	3,223558215583497E+004	2,4986775E+000	2,4981530E+000	-4,202693216394816E-004	1,000000000000000E+000	2,6485216E-002	43	-1,0498970E-006
2	0	0	1	1	3,235553535438269E+004	2,4866822E+000	2,4861445E+000	-4,559570148240143E-004	1,000000000000000E+000	2,6427910E-002	43	-1,1335751E-006
2	0	0	1	1	3,247548415293042E+004	2,4746871E+000	2,4741812E+000	-4,935732603892104E-004	1,000000000000000E+000	2,6366465E-002	43	-1,2211897E-006
2	0	0	1	1	3,259543635147822E+004	2,4626918E+000	2,4621866E+000	-5,215688557074771E-004	1,000000000000000E+000	2,6301099E-002	43	-1,2841998E-006
2	0	0	1	1	3,271538725002599E+004	2,4506965E+000	2,4501574E+000	-5,582879631916586E-004	1,000000000000000E+000	2,6231693E-002	43	-1,3678933E-006
2	0	0	1	1	3,283533724951441E+004	2,4387012E+000	2,4381664E+000	-5,904697271675238E-004	1,000000000000000E+000	2,6158333E-002	43	-1,4396635E-006
2	0	0	1	1	3,295528914973786E+004	2,4267058E+000	2,4262171E+000	-6,138327802861273E-004	1,000000000000000E+000	2,6081117E-002	43	-1,4892915E-006
2	0	0	1	1	3,307523914996115E+004	2,4147110E+000	2,4141932E+000	-6,492731874508887E-004	1,000000000000000E+000	2,6000461E-002	43	-1,5674709E-006
2	0	0	1	1	3,319519015018467E+004	2,4027154E+000	2,4021888E+000	-6,721395738959368E-004	1,000000000000000E+000	2,5916869E-002	43	-1,6146062E-006
2	0	0	1	1	3,331514115040796E+004	2,3907206E+000	2,3902376E+000	-6,882511635556158E-004	1,000000000000000E+000	2,5830926E-002	43	-1,6450838E-006
2	0	0	1	1	3,343509105063137E+004	2,3787253E+000	2,3782053E+000	-7,038087409037080E-004	1,000000000000000E+000	2,5742736E-002	43	-1,6738016E-006
2	0	0	1	1	3,355504305085499E+004	2,3667300E+000	2,3662260E+000	-7,228618463379177E-004	1,000000000000000E+000	2,5652301E-002	43	-1,7104545E-006
2	0	0	1	1	3,367499295107840E+004	2,3547349E+000	2,3542323E+000	-7,453403589661950E-004	1,000000000000000E+000	2,5559310E-002	43	-1,7547044E-006
2	0	0	1	1	3,379494395130186E+004	2,3427398E+000	2,3422687E+000	-7,696967564365179E-004	1,000000000000000E+000	2,5463743E-002	43	-1,8028367E-006
2	0	0	1	1	3,391489615152543E+004	2,3307447E+000	2,3302388E+000	-7,999374545132523E-004	1,000000000000000E+000	2,5365133E-002	43	-1,8640453E-006
2	0	0	1	1	3,403484495174885E+004	2,3187494E+000	2,3182631E+000	-8,271554861215232E-004	1,000000000000000E+000	2,5263187E-002	43	-1,9175641E-006
2	0	0	1	1	3,415479805197218E+004	2,3067541E+000	2,3062444E+000	-8,722565960283812E-004	1,000000000000000E+000	2,5157709E-002	43	-2,0116370E-006
2	0	0	1	1	3,427474805219565E+004	2,2947590E+000	2,2941630E+000	-8,883293375887905E-004	1,000000000000000E+000	2,5047835E-002	42	-2,0379723E-006
2	0	0	1	1	3,439469895241890E+004	2,2827637E+000	2,2821629E+000	-9,257034532359426E-004	1,000000000000000E+000	2,4933683E-002	42	-2,1126061E-006
2	0	0	1	1	3,451464995264239E+004	2,2707682E+000	2,2701602E+000	-9,674154236817018E-004	1,000000000000000E+000	2,4814654E-002	42	-2,1961880E-006
2	0	0	1	1	3,463459995286586E+004	2,2587736E+000	2,2581954E+000	-1,015601601818655E-003	1,000000000000000E+000	2,4690466E-002	42	-2,2934269E-006
2	0	0	1	1	3,475455195308919E+004	2,2467780E+000	2,2461860E+000	-1,065510445904348E-003	1,000000000000000E+000	2,4560483E-002	42	-2,3933346E-006
2	0	0	1	1	3,487450185331260E+004	2,2347829E+000	2,2342024E+000	-1,119773984175149E-003	1,000000000000000E+000	2,4424305E-002	42	-2,5018016E-006
2	0	0	1	1	3,499445385353605E+004	2,2227876E+000	2,2222104E+000	-1,178312346591523E-003	1,000000000000000E+000	2,4281314E-002	42	-2,6184580E-006
2	0	0	1	1	3,511440375375957E+004	2,2107925E+000	2,2102401E+000	-1,240706289671032E-003	1,000000000000000E+000	2,4130985E-002	42	-2,7422589E-006
2	0	0	1	1	3,523435495398298E+004	2,1987975E+000	2,1982272E+000	-1,307591282405502E-003	1,000000000000000E+000	2,3972755E-002	42	-2,8743827E-006
2	0	0	1	1	3,535430575420661E+004	2,1868021E+000	2,1862326E+000	-1,382023830083422E-003	1,000000000000000E+000	2,3805937E-002	42	-3,0214255E-006
2	0	0	1	1	3,547425695442990E+004	2,1748068E+000	2,1741910E+000	-1,462804762327088E-003	1,000000000000000E+000	2,3629978E-002	42	-3,1804170E-006
2	0	0	1	1	3,559420885465341E+004	2,1628118E+000	2,1622324E+000	-1,541788606573058E-003	1,000000000000000E+000	2,3444306E-002	42	-3,3337053E-006
2	0	0	1	1	3,571415885487664E+004	2,1508164E+000	2,1502342E+000	-1,631014564393869E-003	1,000000000000000E+000	2,3248244E-002	42	-3,5070634E-006
2	0	0	1	1	3,583410875510005E+004	2,1388211E+000	2,1382489E+000	-1,730004899900004E-003	1,000000000000000E+000	2,3041343E-002	42	-3,6991812E-006
2	0	0	1	1	3,595406075532350E+004	2,1268263E+000	2,1262598E+000	-1,824070851995804E-003	1,000000000000000E+000	2,2823108E-002	42	-3,8784488E-006
2	0	0	1	1	3,607401075554686E+004	2,1148307E+000	2,1142664E+000	-1,929926792952326E-003	1,000000000000000E+000	2,2592699E-002	42	-4,0803793E-006
2	0	0	1	1	3,619396275577042E+004	2,1028357E+000	2,1022799E+000	-2,031975406075743E-003	1,000000000000000E+000	2,2349905E-002	42	-4,2717811E-006
2	0	0	1	1	3,631391265599383E+004	2,0908403E+000	2,0902565E+000	-2,145937164191866E-003	1,000000000000000E+000	2,2094192E-002	42	-4,4855592E-006
2	0	0	1	1	3,643386265621724E+004	2,0788453E+000	2,0782714E+000	-2,253537796929266E-003	1,000000000000000E+000	2,1825114E-002	42	-4,6834630E-006
2	0	0	1	1	3,655381575644063E+004	2,0668502E+000	2,0662918E+000	-2,370623373954429E-003	1,000000000000000E+000	2,1542162E-002	42	-4,8983998E-006
2	0	0	1	1	3,667376455666404E+004	2,0548549E+000	2,0542901E+000	-2,492925458637794E-003	1,000000000000000E+000	2,1244913E-002	42	-5,1211919E-006
2	0	0	1	1	3,679371775688743E+004	2,0428598E+000	2,0422702E+000	-2,619227008473120E-003	1,000000000000000E+000	2,0932909E-002	42	-5,3491694E-006
2	0	0	1	1	3,691366775711087E+004	2,0308642E+000	2,0303049E+000	-2,741074009249986E-003	1,000000000000000E+000	2,0606186E-002	42	-5,5652158E-006
2	0	0	1	1	3,703361765733431E+004	2,0188692E+000	2,0182903E+000	-2,869818196312289E-003	1,000000000000000E+000	2,0264179E-002	42	-5,7921261E-006
2	0	0	1	1	3,715356965755770E+004	2,0068738E+000	2,0063121E+000	-2,998209885565574E-003	1,000000000000000E+000	1,9907067E-002	42	-6,0153448E-006
2	0	0	1	1	3,727352015778120E+004	1,9948789E+000	1,9943244E+000	-3,125631426035114E-003	1,000000000000000E+000	1,9534420E-002	42	-6,2335230E-006
2	0	0	1	1	3,739347215800459E+004	1,9828836E+000	1,9823152E+000	-3,256637177287934E-003	1,000000000000000E+000	1,9146103E-002	42	-6,4556812E-006
2	0	0	1	1	3,751342335822806E+004	1,9708884E+000	1,9703094E+000	-3,396376232044026E-003	1,000000000000000E+000	1,8741466E-002	42	-6,6919119E-006
2	0	0	1	1	3,763337445845146E+004	1,9588934E+000	1,9583104E+000	-3,544286969157595E-003	1,000000000000000E+000	1,8319884E-002	42	-6,9408138E-006
2	0	0	1	1	3,775332645867486E+004	1,9468982E+000	1,9462940E+000	-3,704383680473735E-003	1,000000000000000E+000	1,7880168E-002	42	-7,2098196E-006
2	0	0	1	1	3,787327755889826E+004	1,9349030E+000	1,9343352E+000	-3,862598676285427E-003	1,000000000000000E+000	1,7421044E-002	42	-7,4715608E-006
2	0	0	1	1	3,799323015912174E+004	1,9229079E+000	1,9223535E+000	-4,039261961071211E-003	1,000000000000000E+000	1,6941898E-002	42	-7,7648892E-006
2	0	0	1	1	3,811318135934509E+004	1,9109125E+000	1,9103658E+000	-4,220729836955470E-003	1,000000000000000E+000	1,6441412E-002	42	-8,0631380E-006
2	0	0	1	1	3,823313255956862E+004	1,8989172E+000	1,8983693E+000	-4,410123011182711E-003	1,000000000000000E+000	1,5918430E-002	42	-8,3720424E-006
2	0	0	1	1	3,835308445979201E+004	1,8869220E+000	1,8863677E+000	-4,605446422276033E-003	1,000000000000000E+000	1,5371864E-002	42	-8,6875652E-006
2	0	0	1	1	3,847303626001556E+004	1,8749269E+000	1,8743575E+000	-4,828048489961365E-003	1,000000000000000E+000	1,4800432E-002	42	-9,0494887E-006
2	0	0	1	1	3,859298816023889E+004	1,8629316E+000	1,8623490E+000	-5,041010835472620E-003	1,000000000000000E+000	1,4203031E-002	42	-9,3881217E-006
2	0	0	1	1	3,871293936046236E+004	1,8509364E+000	1,8503600E+000	-5,270125421190819E-003	1,000000000000000E+000	1,3579023E-002	42	-9,7516295E-006
2	0	0	1	1	3,883289056068572E+004	1,8389413E+000	1,8384018E+000	-5,508756280549818E-003	1,000000000000000E+000	1,2926839E-002	42	-1,0127307E-005
2	0	0	1	1	3,895284246090916E+004	1,8269461E+000	1,8264036E+000	-5,778868182802890E-003	1,000000000000000E+000	1,2244748E-002	42	-1,0554546E-005
2	0	0	1	1	3,907279366113269E+004	1,8149507E+000	1,8144275E+000	-6,061414370704746E-003	1,000000000000000E+000	1,1529465E-002	42	-1,0997996E-005
2	0	0	1	1	3,919274556135602E+004	1,8029557E+000	1,8024228E+000	-6,399966712364674E-003	1,000000000000000E+000	1,0776632E-002	42	-1,1535446E-005
2	0	0	1	1	3,931269676157949E+004	1,7909604E+000	1,7903910E+000	-6,760808948010899E-003	1,000000000000000E+000	9,9821817E-003	42	-1,2104491E-005
2	0	0	1	1	3,943264796180284E+004	1,7789652E+000	1,7784352E+000	-7,121931057745973E-003	1,000000000000000E+000	9,1442391E-003	42	-1,2665893E-005
2	0	0	1	1	3,955260046202631E+004	1,7669699E+000	1,7664497E+000	-7,503660922005773E-003	1,000000000000000E+000	8,2610846E-003	42	-1,3254839E-005
2	0	0	1	1	3,967255166224972E+004	1,7549747E+000	1,7544564E+000	-7,908811553349909E-003	1,000000000000000E+000	7,3314644E-003	42	-1,3875665E-005
2	0	0	1	1	3,979250356247317E+004	1,7429796E+000	1,7424676E+000	-8,316284132865205E-003	1,000000000000000E+000	6,3531320E-003	42	-1,4490856E-005
2	0	0	1	1	3,991245476269675E+004	1,7309847E+000	1,7304881E+000	-8,741272441774292E-003	1,000000000000000E+000	5,3243907E-003	42	-1,5126668E-005
2	0	0	0	1	3,999982496285933E+004	1,7222385E+000	1,7217768E+000	-9,065309775956376E-003	1,000000000000000E+000	4,5427643E-003	42	-1,5608441E-005