File: Dati/210311/CV_LTO_MX_10 layer_grafite nuova_0.1_1mVs_07_CV_C03.mpt
EC-Lab ASCII FILE
Nb header lines : 57

Cyclic Voltammetry

Run on channel : 3 (SN 6807)
User :
Electrode connection : standard
Ewe ctrl range : min = 0,00 V, max = 5,00 V
Ewe,I filtering : 50 kHz
Safety Limits :
	Do not start on E overload
Channel : Grounded
Acquisition started on : 03/11/2021 17:24:33
Saved on :
	File : CV_LTO_MX_10 layer_grafite nuova_0.1_1mVs_07_CV_C03.mpr
	Directory : C:\Users\labsuperfici\Desktop\Biologic\Users\Prisca Viviani\210311\
	Host : 169.254.114.127
Device : VSP-300 (SN 0638)
Address : USB
EC-Lab for windows v11.31 (software)
Internet server v11.30 (firmware)
Command interpretor v11.31 (firmware)
Electrode material :
Initial state :
Electrolyte :
Comments :
Cable : standard
Reference electrode : SCE Saturated Calomel Electrode (0,241 V)
Electrode surface area : 0,001 cm²
Characteristic mass : 0,001 g
Equivalent Weight : 0,000 g/eq.
Density : 0,000 g/cm3
Cycle Definition : Charge/Discharge alternance
Ei (V)              0,000
vs.                 Eoc
dE/dt               0,700
dE/dt unit          mV/s
E1 (V)              1,000
vs.                 Ref
Step percent        50
N                   10
E range min (V)     0,000
E range max (V)     5,000
I Range             Auto
I Range min         Unset
I Range max         Unset
I Range init        Unset
Bandwidth           8
E2 (V)              3,000
vs.                 Ref
nc cycles           0
Reverse Scan        1
Ef (V)              0,000
vs.                 Eoc

mode	ox/red	error	control changes	counter inc.	time/s	control/V	Ewe/V	<I>/mA	cycle number	(Q-Qo)/C	I Range	P/W
2	0	0	1	0	9,800191213087121E+004	1,7222385E+000	1,7217616E+000	-3,435135260224342E-002	1,000000000000000E+000	0,0000000E+000	41	-5,9144841E-005
2	0	0	1	0	9,801840552695782E+004	1,7106926E+000	1,7101090E+000	-3,361156521583342E-002	1,000000000000000E+000	-5,3946604E-004	41	-5,7479439E-005
2	0	0	1	0	9,803554162293626E+004	1,6986972E+000	1,6981580E+000	-3,561333861493637E-002	1,000000000000000E+000	-1,1340654E-003	41	-6,0477076E-005
2	0	0	1	0	9,805267761886748E+004	1,6867021E+000	1,6861320E+000	-3,758076452637471E-002	1,000000000000000E+000	-1,7626872E-003	41	-6,3366126E-005
2	0	0	0	0	9,806981371479505E+004	1,6747071E+000	1,6741444E+000	-3,959238465402226E-002	1,000000000000000E+000	-2,4251225E-003	41	-6,6283370E-005
2	0	0	0	0	9,808694971077307E+004	1,6627117E+000	1,6621313E+000	-4,164637139863014E-002	1,000000000000000E+000	-3,1221246E-003	41	-6,9221736E-005
2	0	0	0	0	9,810408570670907E+004	1,6507167E+000	1,6501824E+000	-4,379225023525268E-002	1,000000000000000E+000	-3,8553386E-003	41	-7,2265197E-005
2	0	0	0	0	9,812122170263156E+004	1,6387215E+000	1,6381984E+000	-4,612199100128089E-002	1,000000000000000E+000	-4,6268739E-003	41	-7,5556971E-005
2	0	0	0	0	9,813835769860959E+004	1,6267262E+000	1,6261427E+000	-4,857289749555144E-002	1,000000000000000E+000	-5,4392610E-003	41	-7,8986464E-005
2	0	0	0	0	9,815549369455164E+004	1,6147311E+000	1,6141692E+000	-5,116569881601352E-002	1,000000000000000E+000	-6,2948368E-003	41	-8,2590101E-005
2	0	0	0	0	9,817262969046901E+004	1,6027356E+000	1,6021801E+000	-5,395990499942505E-002	1,000000000000000E+000	-7,1966099E-003	41	-8,6453489E-005
2	0	0	0	0	9,818976568644721E+004	1,5907406E+000	1,5901642E+000	-5,695301096115346E-002	1,000000000000000E+000	-8,1479326E-003	41	-9,0564638E-005
2	0	0	1	0	9,820690158239473E+004	1,5787454E+000	1,5781738E+000	-6,018522469716564E-002	1,000000000000000E+000	-9,1526303E-003	41	-9,4982744E-005
2	0	0	1	0	9,822403767830902E+004	1,5667500E+000	1,5662222E+000	-6,366244699600944E-002	1,000000000000000E+000	-1,0214823E-002	41	-9,9709534E-005
2	0	0	1	0	9,824117367428413E+004	1,5547549E+000	1,5541974E+000	-6,744503232138652E-002	1,000000000000000E+000	-1,1339244E-002	41	-1,0482290E-004
2	0	0	1	0	9,825830967023666E+004	1,5427598E+000	1,5422115E+000	-7,153720878825043E-002	1,000000000000000E+000	-1,2531308E-002	41	-1,1032551E-004
2	0	0	1	0	9,827544566615100E+004	1,5307646E+000	1,5302348E+000	-7,599568192968043E-002	1,000000000000000E+000	-1,3796621E-002	41	-1,1629124E-004
2	0	0	1	0	9,829258166212123E+004	1,5187691E+000	1,5182642E+000	-8,080671266897710E-002	1,000000000000000E+000	-1,5141195E-002	41	-1,2268593E-004
2	0	0	1	0	9,830971765807946E+004	1,5067741E+000	1,5062407E+000	-8,603249974174010E-002	1,000000000000000E+000	-1,6571835E-002	41	-1,2958565E-004
2	0	0	1	0	9,832685365399439E+004	1,4947790E+000	1,4942433E+000	-9,166386765921630E-002	1,000000000000000E+000	-1,8095141E-002	41	-1,3696811E-004
2	0	0	1	0	9,834398964995937E+004	1,4827838E+000	1,4822994E+000	-9,761503627831125E-002	1,000000000000000E+000	-1,9717937E-002	41	-1,4469471E-004
2	0	0	1	0	9,836112564592285E+004	1,4707886E+000	1,4701616E+000	-1,040826010102035E-001	1,000000000000000E+000	-2,1446625E-002	40	-1,5301823E-004
2	0	0	0	0	9,837826164183719E+004	1,4587933E+000	1,4581753E+000	-1,105911089991101E-001	1,000000000000000E+000	-2,3287123E-002	40	-1,6126123E-004
2	0	0	0	0	9,839539763779630E+004	1,4467982E+000	1,4462031E+000	-1,171413321692134E-001	1,000000000000000E+000	-2,5239535E-002	40	-1,6941015E-004
2	0	0	1	0	9,841253353376454E+004	1,4348029E+000	1,4341875E+000	-1,235717863082511E-001	1,000000000000000E+000	-2,7303675E-002	40	-1,7722511E-004
2	0	0	1	0	9,842966952967900E+004	1,4228077E+000	1,4222003E+000	-1,297326692419752E-001	1,000000000000000E+000	-2,9476022E-002	40	-1,8450584E-004
2	0	0	1	0	9,844680552563275E+004	1,4108124E+000	1,4101982E+000	-1,355960115513470E-001	1,000000000000000E+000	-3,1751476E-002	40	-1,9121726E-004
2	0	0	1	0	9,846394162160694E+004	1,3988173E+000	1,3982229E+000	-1,410548051480647E-001	1,000000000000000E+000	-3,4124210E-002	40	-1,9722607E-004
2	0	0	1	0	9,848107761752157E+004	1,3868220E+000	1,3862143E+000	-1,461489318088958E-001	1,000000000000000E+000	-3,6587197E-002	40	-2,0259373E-004
2	0	0	1	0	9,849821361347102E+004	1,3748269E+000	1,3742187E+000	-1,507334883555607E-001	1,000000000000000E+000	-3,9133452E-002	40	-2,0714078E-004
2	0	0	1	0	9,851534960944834E+004	1,3628317E+000	1,3622376E+000	-1,549889031746186E-001	1,000000000000000E+000	-4,1755009E-002	40	-2,1113170E-004
2	0	0	1	0	9,853248560536478E+004	1,3508365E+000	1,3502380E+000	-1,587324106552204E-001	1,000000000000000E+000	-4,4445287E-002	40	-2,1432653E-004
2	0	0	1	0	9,854962150130817E+004	1,3388414E+000	1,3382434E+000	-1,621135357396242E-001	1,000000000000000E+000	-4,7196411E-002	40	-2,1694736E-004
2	0	0	1	0	9,856675749728596E+004	1,3268461E+000	1,3262563E+000	-1,651362466773258E-001	1,000000000000000E+000	-5,0002541E-002	40	-2,1901299E-004
2	0	0	1	0	9,858389349320671E+004	1,3148510E+000	1,3142132E+000	-1,678220594555093E-001	1,000000000000000E+000	-5,2857261E-002	40	-2,2055396E-004
2	0	0	1	0	9,860102948914480E+004	1,3028558E+000	1,3022413E+000	-1,701290269549101E-001	1,000000000000000E+000	-5,5754848E-002	40	-2,2154905E-004
2	0	0	1	0	9,861816548512306E+004	1,2908604E+000	1,2902305E+000	-1,722528908215755E-001	1,000000000000000E+000	-5,8690451E-002	40	-2,2224593E-004
2	0	0	1	0	9,863530148104997E+004	1,2788652E+000	1,2782222E+000	-1,739457685565086E-001	1,000000000000000E+000	-6,1658554E-002	40	-2,2234135E-004
2	0	0	1	0	9,865243747698283E+004	1,2668700E+000	1,2662866E+000	-1,751893654011552E-001	1,000000000000000E+000	-6,4651936E-002	40	-2,2183995E-004
2	0	0	1	0	9,866957347296132E+004	1,2548747E+000	1,2542710E+000	-1,758180836630521E-001	1,000000000000000E+000	-6,7661636E-002	40	-2,2052354E-004
2	0	0	1	0	9,868670956889261E+004	1,2428795E+000	1,2422634E+000	-1,758316342300768E-001	1,000000000000000E+000	-7,0676960E-002	40	-2,1842921E-004
2	0	0	1	0	9,870384556481952E+004	1,2308844E+000	1,2302713E+000	-1,755205650814200E-001	1,000000000000000E+000	-7,3688753E-002	40	-2,1593792E-004
2	0	0	1	0	9,872098146079760E+004	1,2188894E+000	1,2182597E+000	-1,749088358918907E-001	1,000000000000000E+000	-7,6692484E-002	40	-2,1308438E-004
2	0	0	1	0	9,873811745673412E+004	1,2068940E+000	1,2062672E+000	-1,741143193467254E-001	1,000000000000000E+000	-7,9684369E-002	40	-2,1002840E-004
2	0	0	1	0	9,875525345265586E+004	1,1948988E+000	1,1942884E+000	-1,731549643541885E-001	1,000000000000000E+000	-8,2661562E-002	40	-2,0679696E-004
2	0	0	1	0	9,877238944863412E+004	1,1829038E+000	1,1822937E+000	-1,721333460756358E-001	1,000000000000000E+000	-8,5621350E-002	40	-2,0351216E-004
2	0	0	1	0	9,878952544457698E+004	1,1709086E+000	1,1702987E+000	-1,710320871590792E-001	1,000000000000000E+000	-8,8563472E-002	40	-2,0015863E-004
2	0	0	1	0	9,880666134049394E+004	1,1589134E+000	1,1582735E+000	-1,699028802592615E-001	1,000000000000000E+000	-9,1485836E-002	40	-1,9679399E-004
2	0	0	1	0	9,882379733647226E+004	1,1469181E+000	1,1462966E+000	-1,686229420559571E-001	1,000000000000000E+000	-9,4387338E-002	40	-1,9329191E-004
2	0	0	1	0	9,884093343242025E+004	1,1349229E+000	1,1343288E+000	-1,673829521786669E-001	1,000000000000000E+000	-9,7268037E-002	40	-1,8986731E-004
2	0	0	1	0	9,885806942833448E+004	1,1229275E+000	1,1222799E+000	-1,661214581042643E-001	1,000000000000000E+000	-1,0012712E-001	40	-1,8643477E-004
2	0	0	1	0	9,887520532430941E+004	1,1109325E+000	1,1103212E+000	-1,649428350628828E-001	1,000000000000000E+000	-1,0296459E-001	40	-1,8313952E-004
2	0	0	1	0	9,889234132026229E+004	1,0989374E+000	1,0983317E+000	-1,637519352183356E-001	1,000000000000000E+000	-1,0578250E-001	40	-1,7985395E-004
2	0	0	1	0	9,890947741617647E+004	1,0869421E+000	1,0863274E+000	-1,624381217103452E-001	1,000000000000000E+000	-1,0857884E-001	40	-1,7646099E-004
2	0	0	1	0	9,892661341214622E+004	1,0749470E+000	1,0743066E+000	-1,612149471781568E-001	1,000000000000000E+000	-1,1135251E-001	40	-1,7319428E-004
2	0	0	1	0	9,894374940810498E+004	1,0629518E+000	1,0623339E+000	-1,599979877536473E-001	1,000000000000000E+000	-1,1410572E-001	40	-1,6997129E-004
2	0	0	1	0	9,896088540401962E+004	1,0509565E+000	1,0503339E+000	-1,588590285595151E-001	1,000000000000000E+000	-1,1683902E-001	40	-1,6685501E-004
2	0	0	1	0	9,897802139998437E+004	1,0389612E+000	1,0383384E+000	-1,577476885772386E-001	1,000000000000000E+000	-1,1955308E-001	40	-1,6379548E-004
2	0	0	1	0	9,899515739594784E+004	1,0269662E+000	1,0263397E+000	-1,567767696827047E-001	1,000000000000000E+000	-1,2224919E-001	40	-1,6090622E-004
2	0	0	1	0	9,901229329186236E+004	1,0149709E+000	1,0143393E+000	-1,558168937182431E-001	1,000000000000000E+000	-1,2492885E-001	40	-1,5805120E-004
2	0	0	1	0	9,902942928782088E+004	1,0029756E+000	1,0023407E+000	-1,549279225057688E-001	1,000000000000000E+000	-1,2759285E-001	40	-1,5529056E-004
2	0	0	1	0	9,904442408430018E+004	1,0075738E+000	1,0069314E+000	-1,415246467619951E-001	1,000000000000000E+000	-1,2982647E-001	40	-1,4250561E-004
2	0	0	1	0	9,906156008021487E+004	1,0195690E+000	1,0189681E+000	-1,298590245175348E-001	1,000000000000000E+000	-1,3214482E-001	40	-1,3232221E-004
2	0	0	1	0	9,907869617616024E+004	1,0315644E+000	1,0309361E+000	-1,205909493890173E-001	1,000000000000000E+000	-1,3428609E-001	40	-1,2432157E-004
2	0	0	1	0	9,909583217213862E+004	1,0435596E+000	1,0429224E+000	-1,126588924132781E-001	1,000000000000000E+000	-1,3628110E-001	40	-1,1749448E-004
2	0	0	1	0	9,911296816805709E+004	1,0555547E+000	1,0549486E+000	-1,057577096602427E-001	1,000000000000000E+000	-1,3814984E-001	40	-1,1156894E-004
2	0	0	1	0	9,913010406399798E+004	1,0675498E+000	1,0669276E+000	-9,952157352964930E-002	1,000000000000000E+000	-1,3990624E-001	40	-1,0618231E-004
2	0	0	1	0	9,914724005997647E+004	1,0795450E+000	1,0789386E+000	-9,391093853971644E-002	1,000000000000000E+000	-1,4156130E-001	40	-1,0132413E-004
2	0	0	1	0	9,916437605590071E+004	1,0915401E+000	1,0909476E+000	-8,879849305601302E-002	1,000000000000000E+000	-1,4312477E-001	40	-9,6874508E-005
2	0	0	1	0	9,918151205183566E+004	1,1035354E+000	1,1029050E+000	-8,403035910623347E-002	1,000000000000000E+000	-1,4460351E-001	40	-9,2677503E-005
2	0	0	1	0	9,919864804781397E+004	1,1155306E+000	1,1149017E+000	-7,969013625117372E-002	1,000000000000000E+000	-1,4600451E-001	40	-8,8846667E-005
2	0	0	1	0	9,921578404374328E+004	1,1275259E+000	1,1269262E+000	-7,561398452473034E-002	1,000000000000000E+000	-1,4733325E-001	40	-8,5211381E-005
2	0	0	1	0	9,923292003967229E+004	1,1395210E+000	1,1388830E+000	-7,177469628249389E-002	1,000000000000000E+000	-1,4859423E-001	40	-8,1742983E-005
2	0	0	1	0	9,925005613565061E+004	1,1515162E+000	1,1509137E+000	-6,822342491742178E-002	1,000000000000000E+000	-1,4979196E-001	40	-7,8519275E-005
2	0	0	0	0	9,926719223158550E+004	1,1635114E+000	1,1628805E+000	-6,485400127640184E-002	1,000000000000000E+000	-1,5093039E-001	40	-7,5417454E-005
2	0	0	1	0	9,928432812750991E+004	1,1755064E+000	1,1749057E+000	-6,164995456248235E-002	1,000000000000000E+000	-1,5201294E-001	40	-7,2432878E-005
2	0	0	1	0	9,930146412348840E+004	1,1875017E+000	1,1868957E+000	-5,859157578045937E-002	1,000000000000000E+000	-1,5304162E-001	40	-6,9542089E-005
2	0	0	0	0	9,931860021942854E+004	1,1994970E+000	1,1988792E+000	-5,568213380824373E-002	1,000000000000000E+000	-1,5401943E-001	40	-6,6756154E-005
2	0	0	0	0	9,933573621534719E+004	1,2114922E+000	1,2108990E+000	-5,289305527183119E-002	1,000000000000000E+000	-1,5494812E-001	40	-6,4048145E-005
2	0	0	0	0	9,935287221132545E+004	1,2234875E+000	1,2228709E+000	-5,021239155944091E-002	1,000000000000000E+000	-1,5582985E-001	40	-6,1403276E-005
2	0	0	0	0	9,937000820727041E+004	1,2354827E+000	1,2349100E+000	-4,754654619684090E-002	1,000000000000000E+000	-1,5666623E-001	41	-5,8715705E-005
2	0	0	0	0	9,938714420318557E+004	1,2474778E+000	1,2469009E+000	-4,508792658114930E-002	1,000000000000000E+000	-1,5745851E-001	41	-5,6220179E-005
2	0	0	0	0	9,940428019916208E+004	1,2594731E+000	1,2588707E+000	-4,269443202537559E-002	1,000000000000000E+000	-1,5820920E-001	41	-5,3746771E-005
2	0	0	1	0	9,942141619511321E+004	1,2714683E+000	1,2708920E+000	-4,037666020319702E-002	1,000000000000000E+000	-1,5891953E-001	41	-5,1314375E-005
2	0	0	1	0	9,943855219102744E+004	1,2834635E+000	1,2828695E+000	-3,812498896667577E-002	1,000000000000000E+000	-1,5959086E-001	41	-4,8909384E-005
2	0	0	1	0	9,945568818699999E+004	1,2954587E+000	1,2948531E+000	-3,592073470679696E-002	1,000000000000000E+000	-1,6022407E-001	41	-4,6512076E-005
2	0	0	1	0	9,947282428295654E+004	1,3074538E+000	1,3068721E+000	-3,378537299818182E-002	1,000000000000000E+000	-1,6082002E-001	41	-4,4153163E-005
2	0	0	1	0	9,948996027887083E+004	1,3194489E+000	1,3188478E+000	-3,168760699814049E-002	1,000000000000000E+000	-1,6137959E-001	41	-4,1791129E-005
2	0	0	1	0	9,950709627483739E+004	1,3314443E+000	1,3308442E+000	-2,960373225614471E-002	1,000000000000000E+000	-1,6190350E-001	41	-3,9397954E-005
2	0	0	1	0	9,952423227079888E+004	1,3434395E+000	1,3428290E+000	-2,756499395178741E-002	1,000000000000000E+000	-1,6239189E-001	41	-3,7015074E-005
2	0	0	1	0	9,954136836671294E+004	1,3554348E+000	1,3548203E+000	-2,551830637842034E-002	1,000000000000000E+000	-1,6284551E-001	41	-3,4572717E-005
2	0	0	1	0	9,955850436267420E+004	1,3674300E+000	1,3668635E+000	-2,348343162316774E-002	1,000000000000000E+000	-1,6326404E-001	41	-3,2098644E-005
2	0	0	1	0	9,957564035864070E+004	1,3794252E+000	1,3788418E+000	-2,145237164443214E-002	1,000000000000000E+000	-1,6364780E-001	41	-2,9579425E-005
2	0	0	1	0	9,959277635455551E+004	1,3914202E+000	1,3908243E+000	-1,943422047955956E-002	1,000000000000000E+000	-1,6399674E-001	41	-2,7029586E-005
2	0	0	1	0	9,960991235051153E+004	1,4034156E+000	1,4028586E+000	-1,734932684313449E-002	1,000000000000000E+000	-1,6431056E-001	41	-2,4338653E-005
2	0	0	1	0	9,962704834648385E+004	1,4154108E+000	1,4148130E+000	-1,525746793208632E-002	1,000000000000000E+000	-1,6458890E-001	41	-2,1586464E-005
2	0	0	1	0	9,964418434239831E+004	1,4274060E+000	1,4267734E+000	-1,311313180929018E-002	1,000000000000000E+000	-1,6483106E-001	41	-1,8709468E-005
2	0	0	1	0	9,966132033834857E+004	1,4394013E+000	1,4387941E+000	-1,093119261886638E-002	1,000000000000000E+000	-1,6503595E-001	41	-1,5727735E-005
2	0	0	1	0	9,967845633432502E+004	1,4513962E+000	1,4507650E+000	-8,662970002159681E-003	1,000000000000000E+000	-1,6520277E-001	41	-1,2567933E-005
2	0	0	1	0	9,969559243023989E+004	1,4633914E+000	1,4627723E+000	-6,321397683397061E-003	1,000000000000000E+000	-1,6533020E-001	41	-9,2467653E-006
2	0	0	1	0	9,971272842618520E+004	1,4753865E+000	1,4747972E+000	-3,868000346846042E-003	1,000000000000000E+000	-1,6541664E-001	42	-5,7045163E-006
2	0	0	1	0	9,972986442216346E+004	1,4873819E+000	1,4867879E+000	-1,364942798542042E-003	1,000000000000000E+000	-1,6546068E-001	42	-2,0293805E-006
2	1	0	1	0	9,974700041808252E+004	1,4993771E+000	1,4987537E+000	1,303010506714478E-003	1,000000000000000E+000	-1,6546071E-001	42	1,9528918E-006
2	1	0	1	0	9,976413651402295E+004	1,5113724E+000	1,5106903E+000	4,088193614560441E-003	1,000000000000000E+000	-1,6541375E-001	42	6,1759947E-006
2	1	0	1	0	9,978127251000149E+004	1,5233678E+000	1,5226666E+000	7,065470625793852E-003	1,000000000000000E+000	-1,6531725E-001	42	1,0758356E-005
2	1	0	1	0	9,979840850592591E+004	1,5353630E+000	1,5347252E+000	1,037253617225164E-002	1,000000000000000E+000	-1,6516769E-001	41	1,5918993E-005
2	1	0	1	0	9,981554450186063E+004	1,5473582E+000	1,5466946E+000	1,383166407589989E-002	1,000000000000000E+000	-1,6495945E-001	41	2,1393360E-005
2	1	0	1	0	9,983268039783876E+004	1,5593530E+000	1,5587007E+000	1,761894156016072E-002	1,000000000000000E+000	-1,6468918E-001	41	2,7462656E-005
2	1	0	1	0	9,984981639376841E+004	1,5713483E+000	1,5707222E+000	2,175741527028691E-002	1,000000000000000E+000	-1,6435120E-001	41	3,4174856E-005
2	1	0	0	0	9,986695248969714E+004	1,5833435E+000	1,5826788E+000	2,658650758513509E-002	1,000000000000000E+000	-1,6393700E-001	41	4,2077903E-005
2	1	0	0	0	9,988408848567540E+004	1,5953386E+000	1,5947031E+000	3,272438875327383E-002	1,000000000000000E+000	-1,6342960E-001	41	5,2185682E-005
2	1	0	0	0	9,990122448161058E+004	1,6073339E+000	1,6066765E+000	4,032609533587223E-002	1,000000000000000E+000	-1,6280434E-001	41	6,4790991E-005
2	1	0	0	0	9,991836047753436E+004	1,6193291E+000	1,6186668E+000	4,909279034923397E-002	1,000000000000000E+000	-1,6203809E-001	41	7,9464866E-005
2	1	0	0	0	9,993549647351308E+004	1,6313244E+000	1,6306310E+000	5,852141115057319E-002	1,000000000000000E+000	-1,6111518E-001	41	9,5426825E-005
2	1	0	0	0	9,995263246945344E+004	1,6433196E+000	1,6426569E+000	6,822268878831683E-002	1,000000000000000E+000	-1,6002816E-001	41	1,1206647E-004
2	1	0	0	0	9,996976846537227E+004	1,6553149E+000	1,6546220E+000	7,794863039821770E-002	1,000000000000000E+000	-1,5877435E-001	41	1,2897552E-004
2	1	0	1	0	9,998690456135047E+004	1,6673101E+000	1,6666206E+000	8,768049028967884E-002	1,000000000000000E+000	-1,5735371E-001	41	1,4613011E-004
2	1	0	1	0	1,000040405572958E+005	1,6793052E+000	1,6786332E+000	9,724948396116717E-002	1,000000000000000E+000	-1,5576769E-001	41	1,6324621E-004
2	1	0	1	0	1,000211765532107E+005	1,6913004E+000	1,6906869E+000	1,065748035484983E-001	1,000000000000000E+000	-1,5401943E-001	40	1,8018462E-004
2	1	0	1	0	1,000383125491870E+005	1,7032955E+000	1,7026716E+000	1,156659393294515E-001	1,000000000000000E+000	-1,5211335E-001	40	1,9694111E-004
2	1	0	1	0	1,000554485451384E+005	1,7152907E+000	1,7146739E+000	1,244557032488964E-001	1,000000000000000E+000	-1,5005393E-001	40	2,1340094E-004
2	1	0	1	0	1,000725846410529E+005	1,7272861E+000	1,7266475E+000	1,329253009280989E-001	1,000000000000000E+000	-1,4784652E-001	40	2,2951514E-004
2	1	0	1	0	1,000897206370248E+005	1,7392812E+000	1,7386483E+000	1,410114487642389E-001	1,000000000000000E+000	-1,4549759E-001	40	2,4516933E-004
2	1	0	1	0	1,001068566329819E+005	1,7512764E+000	1,7506384E+000	1,486502615467515E-001	1,000000000000000E+000	-1,4301346E-001	40	2,6023286E-004
2	1	0	1	0	1,001239926288962E+005	1,7632715E+000	1,7626281E+000	1,557285317602080E-001	1,000000000000000E+000	-1,4040329E-001	40	2,7449150E-004
2	1	0	1	0	1,001411286248625E+005	1,7752668E+000	1,7746246E+000	1,623258492563697E-001	1,000000000000000E+000	-1,3767584E-001	40	2,8806744E-004
2	1	0	1	0	1,001582646208237E+005	1,7872620E+000	1,7866069E+000	1,684767863069236E-001	1,000000000000000E+000	-1,3483967E-001	40	3,0100180E-004
2	1	0	1	0	1,001754006167380E+005	1,7992570E+000	1,7986672E+000	1,741115805609241E-001	1,000000000000000E+000	-1,3190232E-001	40	3,1316880E-004
2	1	0	1	0	1,001925366126988E+005	1,8112522E+000	1,8106090E+000	1,792028800932473E-001	1,000000000000000E+000	-1,2887323E-001	40	3,2446635E-004
2	1	0	1	0	1,002096726086657E+005	1,8232476E+000	1,8226156E+000	1,837504959140720E-001	1,000000000000000E+000	-1,2576127E-001	40	3,3490654E-004
2	1	0	1	0	1,002268086045801E+005	1,8352426E+000	1,8346082E+000	1,877275083630627E-001	1,000000000000000E+000	-1,2257650E-001	40	3,4440644E-004
2	1	0	1	0	1,002439446005359E+005	1,8472378E+000	1,8466185E+000	1,911775971173699E-001	1,000000000000000E+000	-1,1932831E-001	40	3,5303208E-004
2	1	0	1	0	1,002610805965089E+005	1,8592331E+000	1,8586088E+000	1,941569764603204E-001	1,000000000000000E+000	-1,1602489E-001	40	3,6086189E-004
2	1	0	1	0	1,002782166924230E+005	1,8712281E+000	1,8706112E+000	1,965927285904954E-001	1,000000000000000E+000	-1,1267482E-001	40	3,6774855E-004
2	1	0	1	0	1,002953526883735E+005	1,8832233E+000	1,8826088E+000	1,986845223722717E-001	1,000000000000000E+000	-1,0928633E-001	40	3,7404522E-004
2	1	0	1	0	1,003124886843502E+005	1,8952187E+000	1,8945922E+000	2,001328976952426E-001	1,000000000000000E+000	-1,0586717E-001	40	3,7917023E-004
2	1	0	1	0	1,003296246802653E+005	1,9072137E+000	1,9065586E+000	2,010970846392282E-001	1,000000000000000E+000	-1,0242760E-001	40	3,8340339E-004
2	1	0	1	0	1,003467607762101E+005	1,9192091E+000	1,9185547E+000	2,015109353420651E-001	1,000000000000000E+000	-9,8976083E-002	40	3,8660975E-004
2	1	0	1	0	1,003638967721884E+005	1,9312043E+000	1,9305663E+000	2,013557555967520E-001	1,000000000000000E+000	-9,5522612E-002	40	3,8873064E-004
2	1	0	0	0	1,003810327681078E+005	1,9431996E+000	1,9425282E+000	2,005501306841273E-001	1,000000000000000E+000	-9,2076890E-002	40	3,8957430E-004
2	1	0	0	0	1,003981687640480E+005	1,9551948E+000	1,9545501E+000	1,992180594353457E-001	1,000000000000000E+000	-8,8649660E-002	40	3,8938169E-004
2	1	0	0	0	1,004153047600265E+005	1,9671901E+000	1,9665601E+000	1,972773539445377E-001	1,000000000000000E+000	-8,5250393E-002	40	3,8795779E-004
2	1	0	0	0	1,004324407559517E+005	1,9791852E+000	1,9785435E+000	1,947069363145291E-001	1,000000000000000E+000	-8,1889659E-002	40	3,8523614E-004
2	1	0	0	0	1,004495767518855E+005	1,9911805E+000	1,9905918E+000	1,916443150381206E-001	1,000000000000000E+000	-7,8577533E-002	40	3,8148559E-004
2	1	0	1	0	1,004667128478637E+005	2,0031753E+000	2,0025489E+000	1,879592832592840E-001	1,000000000000000E+000	-7,5323313E-002	40	3,7639766E-004
2	1	0	1	0	1,004838488437934E+005	2,0151708E+000	2,0145187E+000	1,836298825200551E-001	1,000000000000000E+000	-7,2138108E-002	40	3,6992584E-004
2	1	0	1	0	1,005009848397216E+005	2,0271657E+000	2,0265677E+000	1,788486788211801E-001	1,000000000000000E+000	-6,9030546E-002	40	3,6244895E-004
2	1	0	1	0	1,005181210356997E+005	2,0391612E+000	2,0385394E+000	1,735813646139541E-001	1,000000000000000E+000	-6,6009082E-002	40	3,5385246E-004
2	1	0	1	0	1,005352568316353E+005	2,0511563E+000	2,0505304E+000	1,678978701405573E-001	1,000000000000000E+000	-6,3081488E-002	40	3,4427969E-004
2	1	0	1	0	1,005523930275594E+005	2,0631516E+000	2,0625086E+000	1,617571293291480E-001	1,000000000000000E+000	-6,0255185E-002	40	3,3362547E-004
2	1	0	1	0	1,005695290235379E+005	2,0751467E+000	2,0745366E+000	1,552744636842234E-001	1,000000000000000E+000	-5,7537448E-002	40	3,2212256E-004
2	1	0	1	0	1,005866650194788E+005	2,0871420E+000	2,0865221E+000	1,484749194599797E-001	1,000000000000000E+000	-5,4933682E-002	40	3,0979619E-004
2	1	0	1	0	1,006038010153971E+005	2,0991371E+000	2,0985284E+000	1,415302260555280E-001	1,000000000000000E+000	-5,2448187E-002	40	2,9700520E-004
2	1	0	1	0	1,006209370113752E+005	2,1111324E+000	2,1105485E+000	1,343998630557190E-001	1,000000000000000E+000	-5,0082158E-002	40	2,8365743E-004
2	1	0	1	0	1,006380730073210E+005	2,1231275E+000	2,1225188E+000	1,273893710168417E-001	1,000000000000000E+000	-4,7838397E-002	40	2,7038634E-004
2	1	0	1	0	1,006552090032357E+005	2,1351228E+000	2,1345274E+000	1,204506887255715E-001	1,000000000000000E+000	-4,5713350E-002	40	2,5710530E-004
2	1	0	1	0	1,006723449992118E+005	2,1471181E+000	2,1465464E+000	1,136518479316416E-001	1,000000000000000E+000	-4,3707252E-002	40	2,4395896E-004
2	1	0	1	0	1,006894809951638E+005	2,1591132E+000	2,1585183E+000	1,072255049556587E-001	1,000000000000000E+000	-4,1815139E-002	40	2,3144821E-004
2	1	0	1	0	1,007066171910781E+005	2,1711085E+000	2,1705215E+000	1,012155953209559E-001	1,000000000000000E+000	-4,0028408E-002	40	2,1969063E-004
2	1	0	1	0	1,007237529870500E+005	2,1831036E+000	2,1825483E+000	9,546133976122373E-002	1,000000000000000E+000	-3,8343851E-002	40	2,0834898E-004
2	1	0	1	0	1,007408890830071E+005	2,1950989E+000	2,1945269E+000	9,028729905797339E-002	1,000000000000000E+000	-3,6752127E-002	40	1,9813790E-004
2	1	0	1	0	1,007580251789215E+005	2,2070942E+000	2,2065494E+000	8,558096521155378E-002	1,000000000000000E+000	-3,5245184E-002	40	1,8883863E-004
2	1	0	1	0	1,007751610748873E+005	2,2190893E+000	2,2185018E+000	8,125242601732800E-002	1,000000000000000E+000	-3,3815507E-002	40	1,8025865E-004
2	1	0	1	0	1,007922971708489E+005	2,2310846E+000	2,2305350E+000	7,737580976619274E-002	1,000000000000000E+000	-3,2455992E-002	40	1,7258945E-004
2	1	0	1	0	1,008094330667630E+005	2,2430797E+000	2,2424970E+000	7,390933210858752E-002	1,000000000000000E+000	-3,1159392E-002	40	1,6574145E-004
2	1	0	1	0	1,008265690627234E+005	2,2550747E+000	2,2544947E+000	7,055973490669332E-002	1,000000000000000E+000	-2,9921461E-002	40	1,5907655E-004
2	1	0	1	0	1,008437050586911E+005	2,2670701E+000	2,2664890E+000	6,755970624241781E-002	1,000000000000000E+000	-2,8737361E-002	40	1,5312333E-004
2	1	0	1	0	1,008608410546056E+005	2,2790651E+000	2,2784884E+000	6,475096481986364E-002	1,000000000000000E+000	-2,7602892E-002	40	1,4753432E-004
2	1	0	1	0	1,008779771505613E+005	2,2910604E+000	2,2904744E+000	6,212616285612454E-002	1,000000000000000E+000	-2,6515204E-002	40	1,4229839E-004
2	1	0	1	0	1,008951132465345E+005	2,3030558E+000	2,3024919E+000	5,960790458409969E-002	1,000000000000000E+000	-2,5471440E-002	40	1,3724672E-004
2	1	0	1	0	1,009122490424489E+005	2,3150508E+000	2,3144951E+000	5,721109586167339E-002	1,000000000000000E+000	-2,4469458E-002	40	1,3241480E-004
2	1	0	1	0	1,009293852383988E+005	2,3270462E+000	2,3264697E+000	5,501878002891947E-002	1,000000000000000E+000	-2,3507062E-002	40	1,2799952E-004
2	1	0	1	0	1,009465211343758E+005	2,3390412E+000	2,3384757E+000	5,289464623837237E-002	1,000000000000000E+000	-2,2581637E-002	40	1,2369285E-004
2	1	0	1	0	1,009636572302911E+005	2,3510365E+000	2,3504446E+000	5,095750831302943E-002	1,000000000000000E+000	-2,1690791E-002	40	1,1977280E-004
2	1	0	1	0	1,009807931262355E+005	2,3630314E+000	2,3624761E+000	4,922982063881243E-002	1,000000000000000E+000	-2,0831436E-002	40	1,1630428E-004
2	1	0	1	0	1,009980719221804E+005	2,3751264E+000	2,3745015E+000	4,775702308814522E-002	1,000000000000000E+000	-1,9992894E-002	41	1,1339912E-004
2	1	0	1	0	1,010152081181004E+005	2,3871219E+000	2,3865211E+000	4,646526046065080E-002	1,000000000000000E+000	-1,9184748E-002	41	1,1089032E-004
2	1	0	1	0	1,010323439140400E+005	2,3991170E+000	2,3985214E+000	4,512984161743283E-002	1,000000000000000E+000	-1,8399553E-002	41	1,0824489E-004
2	1	0	1	0	1,010494801100180E+005	2,4111125E+000	2,4105053E+000	4,400042409159260E-002	1,000000000000000E+000	-1,7635018E-002	41	1,0606326E-004
2	1	0	1	0	1,010666161059428E+005	2,4231076E+000	2,4225011E+000	4,303862584913887E-002	1,000000000000000E+000	-1,6888252E-002	41	1,0426112E-004
2	1	0	1	0	1,010837521018768E+005	2,4351027E+000	2,4345059E+000	4,221283338586862E-002	1,000000000000000E+000	-1,6157009E-002	41	1,0276739E-004
2	1	0	1	0	1,011008880978546E+005	2,4470978E+000	2,4464805E+000	4,145470288928582E-002	1,000000000000000E+000	-1,5439318E-002	41	1,0141813E-004
2	1	0	1	0	1,011180240937843E+005	2,4590931E+000	2,4584777E+000	4,076411321207374E-002	1,000000000000000E+000	-1,4734035E-002	41	1,0021767E-004
2	1	0	1	0	1,011351600897131E+005	2,4710884E+000	2,4704866E+000	4,002686134023203E-002	1,000000000000000E+000	-1,4040869E-002	41	9,8885823E-005
2	1	0	1	0	1,011522960856913E+005	2,4830835E+000	2,4824569E+000	3,930780749891427E-002	1,000000000000000E+000	-1,3360122E-002	41	9,7579941E-005
2	1	0	1	0	1,011694320816272E+005	2,4950786E+000	2,4944630E+000	3,858958887367567E-002	1,000000000000000E+000	-1,2691387E-002	41	9,6260301E-005
2	1	0	1	0	1,011865680775512E+005	2,5070741E+000	2,5064626E+000	3,790363402586350E-002	1,000000000000000E+000	-1,2035005E-002	41	9,5004041E-005
2	1	0	1	0	1,012037041735293E+005	2,5190692E+000	2,5184805E+000	3,718333367442123E-002	1,000000000000000E+000	-1,1390659E-002	41	9,3645504E-005
2	1	0	1	0	1,012208400694700E+005	2,5310640E+000	2,5304465E+000	3,650072923270831E-002	1,000000000000000E+000	-1,0758428E-002	41	9,2363145E-005
2	1	0	1	0	1,012379761653881E+005	2,5430598E+000	2,5424805E+000	3,583250286309769E-002	1,000000000000000E+000	-1,0137666E-002	41	9,1103437E-005
2	1	0	1	0	1,012551121613658E+005	2,5550549E+000	2,5544550E+000	3,519161857631042E-002	1,000000000000000E+000	-9,5281415E-003	41	8,9895409E-005
2	1	0	1	0	1,012722482573120E+005	2,5670500E+000	2,5664327E+000	3,454506457959505E-002	1,000000000000000E+000	-8,9295516E-003	41	8,8657587E-005
2	1	0	1	0	1,012893842532270E+005	2,5790455E+000	2,5784569E+000	3,391318260044740E-002	1,000000000000000E+000	-8,3418563E-003	41	8,7443681E-005
2	1	0	1	0	1,013065201492033E+005	2,5910406E+000	2,5904534E+000	3,329259766533998E-002	1,000000000000000E+000	-7,7651297E-003	41	8,6242922E-005
2	1	0	1	0	1,013236562451553E+005	2,6030359E+000	2,6024363E+000	3,268781779913355E-002	1,000000000000000E+000	-7,1989116E-003	41	8,5067964E-005
2	1	0	1	0	1,013407921410701E+005	2,6150310E+000	2,6144490E+000	3,215353654329650E-002	1,000000000000000E+000	-6,6424268E-003	41	8,4063780E-005
2	1	0	1	0	1,013579282370413E+005	2,6270258E+000	2,6264508E+000	3,168263039903485E-002	1,000000000000000E+000	-6,0945381E-003	41	8,3212872E-005
2	1	0	1	0	1,013750641329980E+005	2,6390214E+000	2,6384339E+000	3,124613059515624E-002	1,000000000000000E+000	-5,5543589E-003	41	8,2440849E-005
2	1	0	1	0	1,013922001289125E+005	2,6510165E+000	2,6504195E+000	3,081259752032273E-002	1,000000000000000E+000	-5,0213747E-003	41	8,1666309E-005
2	1	0	1	0	1,014093361248776E+005	2,6630118E+000	2,6624045E+000	3,028940150965459E-002	1,000000000000000E+000	-4,4966345E-003	41	8,0642640E-005
2	1	0	1	0	1,014264723208398E+005	2,6750071E+000	2,6744242E+000	2,977446598341349E-002	1,000000000000000E+000	-3,9805919E-003	41	7,9629550E-005
2	1	0	1	0	1,014436081167540E+005	2,6870022E+000	2,6863952E+000	2,925878158233364E-002	1,000000000000000E+000	-3,4737773E-003	41	7,8600649E-005
2	1	0	1	0	1,014607442127147E+005	2,6989973E+000	2,6984298E+000	2,876686915261339E-002	1,000000000000000E+000	-2,9757421E-003	41	7,7625380E-005
2	1	0	1	0	1,014778803086828E+005	2,7109923E+000	2,7104006E+000	2,827148043242800E-002	1,000000000000000E+000	-2,4859933E-003	41	7,6627039E-005
2	1	0	1	0	1,014950163045974E+005	2,7229877E+000	2,7224081E+000	2,783440485434119E-002	1,000000000000000E+000	-2,0042188E-003	41	7,5776610E-005
2	1	0	1	0	1,015121522005526E+005	2,7349827E+000	2,7343993E+000	2,736364203361108E-002	1,000000000000000E+000	-1,5302347E-003	41	7,4823125E-005
2	1	0	1	0	1,015292882965258E+005	2,7469783E+000	2,7464051E+000	2,699081552739191E-002	1,000000000000000E+000	-1,0633031E-003	41	7,4127711E-005
2	1	0	1	0	1,015464241924402E+005	2,7589734E+000	2,7584069E+000	2,664194447871653E-002	1,000000000000000E+000	-6,0276809E-004	41	7,3489326E-005
2	1	0	1	0	1,015635602883897E+005	2,7709684E+000	2,7704105E+000	2,632506517278305E-002	1,000000000000000E+000	-1,4774714E-004	41	7,2931238E-005
2	1	0	1	0	1,015806961843666E+005	2,7829640E+000	2,7824008E+000	2,605466826653624E-002	1,000000000000000E+000	3,0226549E-004	41	7,2494528E-005
2	1	0	1	0	1,015978322802824E+005	2,7949588E+000	2,7944059E+000	2,586087255501501E-002	1,000000000000000E+000	7,4793957E-004	41	7,2265779E-005
2	1	0	1	0	1,016149681762268E+005	2,8069541E+000	2,8064051E+000	2,568059605871115E-002	1,000000000000000E+000	1,1905574E-003	41	7,2070157E-005
2	1	0	1	0	1,016321041722056E+005	2,8189490E+000	2,8183937E+000	2,556477776865784E-002	1,000000000000000E+000	1,6305973E-003	41	7,2051611E-005
2	1	0	1	0	1,016492403681251E+005	2,8309443E+000	2,8303907E+000	2,545353440111231E-002	1,000000000000000E+000	2,0689219E-003	41	7,2043447E-005
2	1	0	1	0	1,016663762640645E+005	2,8429394E+000	2,8423517E+000	2,536897690690276E-002	1,000000000000000E+000	2,5055245E-003	41	7,2107556E-005
2	1	0	1	0	1,016835123600427E+005	2,8549347E+000	2,8544006E+000	2,524764273864748E-002	1,000000000000000E+000	2,9403965E-003	41	7,2066890E-005
2	1	0	1	0	1,017006483559676E+005	2,8669300E+000	2,8663802E+000	2,511438198975913E-002	1,000000000000000E+000	3,3729407E-003	41	7,1987364E-005
2	1	0	1	0	1,017177843519007E+005	2,8789253E+000	2,8783693E+000	2,498472890663619E-002	1,000000000000000E+000	3,8033440E-003	41	7,1915274E-005
2	1	0	1	0	1,017349203478788E+005	2,8909204E+000	2,8903806E+000	2,486063120473225E-002	1,000000000000000E+000	4,2315680E-003	41	7,1856688E-005
2	1	0	1	0	1,017520563438091E+005	2,9029157E+000	2,9023468E+000	2,476186554509108E-002	1,000000000000000E+000	4,6579195E-003	41	7,1867522E-005
2	1	0	1	0	1,017691923397379E+005	2,9149110E+000	2,9143591E+000	2,467080509319614E-002	1,000000000000000E+000	5,0824466E-003	41	7,1899587E-005
2	1	0	1	0	1,017863283357163E+005	2,9269061E+000	2,9263566E+000	2,454833639448861E-002	1,000000000000000E+000	5,5054137E-003	41	7,1837188E-005
2	1	0	1	0	1,018034643316525E+005	2,9389014E+000	2,9383726E+000	2,434273130921860E-002	1,000000000000000E+000	5,9256707E-003	41	7,1528018E-005
2	1	0	1	0	1,018206003275759E+005	2,9508967E+000	2,9503648E+000	2,416449844648888E-002	1,000000000000000E+000	6,3424506E-003	41	7,1294089E-005
2	1	0	1	0	1,018377363235545E+005	2,9628918E+000	2,9623349E+000	2,392111923460220E-002	1,000000000000000E+000	6,7553832E-003	41	7,0862363E-005
2	1	0	1	0	1,018548723194955E+005	2,9748869E+000	2,9743521E+000	2,375468008989465E-002	1,000000000000000E+000	7,1649039E-003	41	7,0654780E-005
2	1	0	1	0	1,018720085154129E+005	2,9868820E+000	2,9863441E+000	2,364811059838123E-002	1,000000000000000E+000	7,5720591E-003	41	7,0621398E-005
2	1	0	1	0	1,018891443113913E+005	2,9988770E+000	2,9983270E+000	2,358878278033794E-002	1,000000000000000E+000	7,9777408E-003	41	7,0726885E-005
2	1	0	1	1	1,019044243077803E+005	2,9904804E+000	2,9899461E+000	1,745182970490483E-002	1,000000000000000E+000	8,2783187E-003	41	5,2180032E-005
2	1	0	1	1	1,019215603036946E+005	2,9784858E+000	2,9779632E+000	1,492984458060626E-002	1,000000000000000E+000	8,5530709E-003	41	4,4460528E-005
2	1	0	1	1	1,019386962996643E+005	2,9664903E+000	2,9659808E+000	1,314377405554467E-002	1,000000000000000E+000	8,7918192E-003	41	3,8984181E-005
2	1	0	1	1	1,019558324956230E+005	2,9544950E+000	2,9539638E+000	1,171497802229537E-002	1,000000000000000E+000	9,0032183E-003	41	3,4605622E-005
2	1	0	1	1	1,019729682915375E+005	2,9424999E+000	2,9419482E+000	1,052278211369095E-002	1,000000000000000E+000	9,1923140E-003	41	3,0957479E-005
2	1	0	1	1	1,019901044875016E+005	2,9305046E+000	2,9299941E+000	9,505378178621855E-003	1,000000000000000E+000	9,3626902E-003	41	2,7850701E-005
2	1	0	1	1	1,020072404834650E+005	2,9185092E+000	2,9179785E+000	8,621414163401158E-003	1,000000000000000E+000	9,5167933E-003	41	2,5157102E-005
2	1	0	1	1	1,020243764793791E+005	2,9065142E+000	2,9059615E+000	7,852157463668324E-003	1,000000000000000E+000	9,6568624E-003	41	2,2818067E-005
2	1	0	1	1	1,020415124753381E+005	2,8945189E+000	2,8940027E+000	7,158970103836447E-003	1,000000000000000E+000	9,7843567E-003	41	2,0718078E-005
2	1	0	1	1	1,020586484713074E+005	2,8825240E+000	2,8819497E+000	6,528316602501770E-003	1,000000000000000E+000	9,9005094E-003	41	1,8814280E-005
2	1	0	1	1	1,020757844672217E+005	2,8705285E+000	2,8699751E+000	5,987865328884050E-003	1,000000000000000E+000	1,0006653E-002	41	1,7185024E-005
2	1	0	1	1	1,020929204631757E+005	2,8585331E+000	2,8579853E+000	5,486845539290363E-003	1,000000000000000E+000	1,0103714E-002	41	1,5681324E-005
2	1	0	1	1	1,021100564591510E+005	2,8465383E+000	2,8459754E+000	5,025508336428919E-003	1,000000000000000E+000	1,0192649E-002	41	1,4302473E-005
2	1	0	1	1	1,021271920550654E+005	2,8345430E+000	2,8339479E+000	4,625294210249667E-003	1,000000000000000E+000	1,0274055E-002	42	1,3107843E-005
2	1	0	1	1	1,021443280510134E+005	2,8225479E+000	2,8219461E+000	4,267831308480774E-003	1,000000000000000E+000	1,0349103E-002	42	1,2043590E-005
2	1	0	1	1	1,021614640469914E+005	2,8105528E+000	2,8099930E+000	3,936246441273147E-003	1,000000000000000E+000	1,0418301E-002	42	1,1060825E-005
2	1	0	1	1	1,021786002429075E+005	2,7985573E+000	2,7979643E+000	3,638070379320679E-003	1,000000000000000E+000	1,0481952E-002	42	1,0179191E-005
2	1	0	1	1	1,021957360388500E+005	2,7865622E+000	2,7859690E+000	3,353542304415431E-003	1,000000000000000E+000	1,0540795E-002	42	9,3428653E-006
2	1	0	1	1	1,022128722348283E+005	2,7745669E+000	2,7739868E+000	3,110468287120076E-003	1,000000000000000E+000	1,0595194E-002	42	8,6283981E-006
2	1	0	1	1	1,022300082307501E+005	2,7625721E+000	2,7619739E+000	2,891806687998124E-003	1,000000000000000E+000	1,0645464E-002	42	7,9870942E-006
2	1	0	1	1	1,022471442266880E+005	2,7505765E+000	2,7499933E+000	2,650281091919095E-003	1,000000000000000E+000	1,0691912E-002	42	7,2882553E-006
2	1	0	1	1	1,022642802226665E+005	2,7385817E+000	2,7380319E+000	2,451942984242606E-003	1,000000000000000E+000	1,0734548E-002	42	6,7134979E-006
2	1	0	1	1	1,022814162185933E+005	2,7265859E+000	2,7260149E+000	2,252611602329885E-003	1,000000000000000E+000	1,0773683E-002	42	6,1406527E-006
2	1	0	1	1	1,022985522145252E+005	2,7145910E+000	2,7140093E+000	2,044407273924090E-003	1,000000000000000E+000	1,0809378E-002	42	5,5485402E-006
2	1	0	1	1	1,023156881105033E+005	2,7025959E+000	2,7020092E+000	1,830225909855515E-003	1,000000000000000E+000	1,0841754E-002	42	4,9452874E-006
2	1	0	1	1	1,023328238064353E+005	2,6906006E+000	2,6900270E+000	1,645844791989740E-003	1,000000000000000E+000	1,0870561E-002	42	4,4273670E-006
2	1	0	1	1	1,023499599023616E+005	2,6786056E+000	2,6780493E+000	1,417376121424448E-003	1,000000000000000E+000	1,0895656E-002	42	3,7958032E-006
2	1	0	1	1	1,023670957983402E+005	2,6666105E+000	2,6660354E+000	1,179131751619177E-003	1,000000000000000E+000	1,0916868E-002	42	3,1436070E-006
2	1	0	1	1	1,023842317942779E+005	2,6546152E+000	2,6540387E+000	9,197384990836605E-004	1,000000000000000E+000	1,0933788E-002	42	2,4410215E-006
2	1	0	1	1	1,024013679901993E+005	2,6426196E+000	2,6420009E+000	5,860670943051293E-004	1,000000000000000E+000	1,0946016E-002	42	1,5483898E-006
2	1	0	1	1	1,024185037861778E+005	2,6306245E+000	2,6300547E+000	2,949910789742096E-004	1,000000000000000E+000	1,0952854E-002	43	7,7584269E-007
2	1	0	1	1	1,024356399821211E+005	2,6186292E+000	2,6181004E+000	-1,415944032644317E-005	1,000000000000000E+000	1,0954309E-002	43	-3,7070837E-008
2	0	0	1	1	1,024527757780375E+005	2,6066341E+000	2,6060920E+000	-2,666200708651943E-004	1,000000000000000E+000	1,0950899E-002	43	-6,9483644E-007
2	0	0	1	1	1,024699119740152E+005	2,5946388E+000	2,5941331E+000	-4,579428262213546E-004	1,000000000000000E+000	1,0943719E-002	43	-1,1879647E-006
2	0	0	1	1	1,024870479699635E+005	2,5826437E+000	2,5821395E+000	-5,887017692680109E-004	1,000000000000000E+000	1,0933845E-002	43	-1,5201101E-006
2	0	0	1	1	1,025041839658776E+005	2,5706482E+000	2,5701582E+000	-7,377675472094844E-004	1,000000000000000E+000	1,0921726E-002	43	-1,8961794E-006
2	0	0	1	1	1,025213196618520E+005	2,5586536E+000	2,5581062E+000	-9,136218660699561E-004	1,000000000000000E+000	1,0906927E-002	42	-2,3371417E-006
2	0	0	1	1	1,025384556578058E+005	2,5466580E+000	2,5460985E+000	-1,059130574013599E-003	1,000000000000000E+000	1,0889208E-002	42	-2,6966507E-006
2	0	0	1	1	1,025555915537202E+005	2,5346632E+000	2,5341380E+000	-1,238202227069199E-003	1,000000000000000E+000	1,0868456E-002	42	-3,1377754E-006
2	0	0	1	1	1,025727276496894E+005	2,5226676E+000	2,5221491E+000	-1,434147984753675E-003	1,000000000000000E+000	1,0844545E-002	42	-3,6171350E-006
2	0	0	1	1	1,025898635456488E+005	2,5106728E+000	2,5101395E+000	-1,625248575973513E-003	1,000000000000000E+000	1,0817336E-002	42	-4,0796008E-006
2	0	0	1	1	1,026069996415631E+005	2,4986773E+000	2,4981599E+000	-1,794555553485582E-003	1,000000000000000E+000	1,0786919E-002	42	-4,4830867E-006
2	0	0	1	1	1,026241357375267E+005	2,4866819E+000	2,4861443E+000	-1,991916854903818E-003	1,000000000000000E+000	1,0753385E-002	42	-4,9521927E-006
2	0	0	1	1	1,026412716334906E+005	2,4746866E+000	2,4741480E+000	-2,181214673518138E-003	1,000000000000000E+000	1,0716622E-002	42	-5,3966478E-006
2	0	0	1	1	1,026584077294047E+005	2,4626915E+000	2,4621851E+000	-2,367647444401808E-003	1,000000000000000E+000	1,0676594E-002	42	-5,8295864E-006
2	0	0	1	1	1,026755437253632E+005	2,4506965E+000	2,4501700E+000	-2,574592291117637E-003	1,000000000000000E+000	1,0633052E-002	42	-6,3081889E-006
2	0	0	1	1	1,026926797213330E+005	2,4387014E+000	2,4381773E+000	-2,770730455356196E-003	1,000000000000000E+000	1,0586100E-002	42	-6,7555320E-006
2	0	0	1	1	1,027098157172473E+005	2,4267063E+000	2,4262178E+000	-2,967996570536348E-003	1,000000000000000E+000	1,0535816E-002	42	-7,2010062E-006
2	0	0	1	1	1,027269514132011E+005	2,4147110E+000	2,4141707E+000	-3,120666304017292E-003	1,000000000000000E+000	1,0482474E-002	42	-7,5338212E-006
2	0	0	1	1	1,027440875091766E+005	2,4027157E+000	2,4022021E+000	-3,263085268593695E-003	1,000000000000000E+000	1,0426706E-002	42	-7,8385901E-006
2	0	0	1	1	1,027612234050911E+005	2,3907206E+000	2,3901892E+000	-3,365368990835060E-003	1,000000000000000E+000	1,0368875E-002	42	-8,0438685E-006
2	0	0	1	1	1,027783594010385E+005	2,3787253E+000	2,3781893E+000	-3,473987138874968E-003	1,000000000000000E+000	1,0309212E-002	42	-8,2617989E-006
2	0	0	1	1	1,027954953970169E+005	2,3667302E+000	2,3662114E+000	-3,569856716339016E-003	1,000000000000000E+000	1,0247854E-002	42	-8,4470357E-006
2	0	0	1	1	1,028126312929332E+005	2,3547349E+000	2,3541892E+000	-3,692530901247992E-003	1,000000000000000E+000	1,0184615E-002	42	-8,6929158E-006
2	0	0	1	1	1,028297673888751E+005	2,3427398E+000	2,3422179E+000	-3,811425428059304E-003	1,000000000000000E+000	1,0119431E-002	42	-8,9271889E-006
2	0	0	1	1	1,028469034848535E+005	2,3307445E+000	2,3302157E+000	-3,928596784113211E-003	1,000000000000000E+000	1,0052184E-002	42	-9,1544780E-006
2	0	0	1	1	1,028640393807753E+005	2,3187494E+000	2,3182425E+000	-4,056964712583738E-003	1,000000000000000E+000	9,9827582E-003	42	-9,4050283E-006
2	0	0	1	1	1,028811754767126E+005	2,3067541E+000	2,3062513E+000	-4,208423357528968E-003	1,000000000000000E+000	9,9109253E-003	42	-9,7056818E-006
2	0	0	1	1	1,028983114726911E+005	2,2947590E+000	2,2942502E+000	-4,342620230188703E-003	1,000000000000000E+000	9,8366570E-003	42	-9,9630579E-006
2	0	0	1	1	1,029154473686183E+005	2,2827637E+000	2,2822645E+000	-4,504349166525250E-003	1,000000000000000E+000	9,7597763E-003	42	-1,0280116E-005
2	0	0	1	1	1,029325832645502E+005	2,2707684E+000	2,2702644E+000	-4,666654842365135E-003	1,000000000000000E+000	9,6800700E-003	42	-1,0594540E-005
2	0	0	1	1	1,029497191605284E+005	2,2587736E+000	2,2582557E+000	-4,859035658334329E-003	1,000000000000000E+000	9,5974384E-003	42	-1,0972945E-005
2	0	0	1	1	1,029668552564606E+005	2,2467782E+000	2,2462728E+000	-5,032316323266002E-003	1,000000000000000E+000	9,5117493E-003	42	-1,1303955E-005
2	0	0	1	1	1,029839911523868E+005	2,2347832E+000	2,2342863E+000	-5,217950730926964E-003	1,000000000000000E+000	9,4228620E-003	42	-1,1658396E-005
2	0	0	1	1	1,030011272483654E+005	2,2227876E+000	2,2222855E+000	-5,427897956111288E-003	1,000000000000000E+000	9,3306415E-003	42	-1,2062339E-005
2	0	0	1	1	1,030182631443036E+005	2,2107925E+000	2,2102857E+000	-5,631169621400797E-003	1,000000000000000E+000	9,2348186E-003	42	-1,2446493E-005
2	0	0	1	1	1,030353993402244E+005	2,1987972E+000	2,1982896E+000	-5,853408454466197E-003	1,000000000000000E+000	9,1353757E-003	42	-1,2867487E-005
2	0	0	1	1	1,030525351362028E+005	2,1868021E+000	2,1863151E+000	-6,084853612070007E-003	1,000000000000000E+000	9,0321098E-003	42	-1,3303407E-005
2	0	0	1	1	1,030696713321467E+005	2,1748068E+000	2,1742799E+000	-6,341123297239126E-003	1,000000000000000E+000	8,9246994E-003	42	-1,3787377E-005
2	0	0	1	1	1,030868072280628E+005	2,1628118E+000	2,1623042E+000	-6,584569245564040E-003	1,000000000000000E+000	8,8129947E-003	42	-1,4237841E-005
2	0	0	1	1	1,031039432240403E+005	2,1508162E+000	2,1503303E+000	-6,858522283199331E-003	1,000000000000000E+000	8,6968271E-003	42	-1,4748089E-005
2	0	0	1	1	1,031210790199887E+005	2,1388214E+000	2,1383145E+000	-7,133647983599944E-003	1,000000000000000E+000	8,5759051E-003	42	-1,5253982E-005
2	0	0	1	1	1,031382150159029E+005	2,1268258E+000	2,1263292E+000	-7,437103969158636E-003	1,000000000000000E+000	8,4499922E-003	42	-1,5813732E-005
2	0	0	1	1	1,031553510118767E+005	2,1148310E+000	2,1143458E+000	-7,752365126249147E-003	1,000000000000000E+000	8,3189057E-003	42	-1,6391181E-005
2	0	0	1	1	1,031724870078308E+005	2,1028354E+000	2,1023920E+000	-8,068210742696563E-003	1,000000000000000E+000	8,1824213E-003	42	-1,6962542E-005
2	0	0	1	1	1,031896230037452E+005	2,0908406E+000	2,0903955E+000	-8,411009082848878E-003	1,000000000000000E+000	8,0401441E-003	42	-1,7582335E-005
2	0	0	1	1	1,032067588997141E+005	2,0788453E+000	2,0783880E+000	-8,771164451295513E-003	1,000000000000000E+000	7,8918450E-003	42	-1,8229883E-005
2	0	0	1	1	1,032238950956739E+005	2,0668499E+000	2,0663838E+000	-9,135216823638215E-003	1,000000000000000E+000	7,7373153E-003	42	-1,8876864E-005
2	0	0	1	1	1,032410308915882E+005	2,0548549E+000	2,0544140E+000	-9,525107019360685E-003	1,000000000000000E+000	7,5763604E-003	42	-1,9568513E-005
2	0	0	1	1	1,032581670875517E+005	2,0428596E+000	2,0424306E+000	-9,949273206369347E-003	1,000000000000000E+000	7,4083912E-003	42	-2,0320700E-005
2	0	0	1	1	1,032753029835162E+005	2,0308645E+000	2,0303481E+000	-1,040359000771093E-002	1,000000000000000E+000	7,2325473E-003	41	-2,1122909E-005
2	0	0	1	1	1,032924390794303E+005	2,0188694E+000	2,0183151E+000	-1,087564131928564E-002	1,000000000000000E+000	7,0491517E-003	41	-2,1950471E-005
2	0	0	1	1	1,033095749753884E+005	2,0068743E+000	2,0063281E+000	-1,135002370180459E-002	1,000000000000000E+000	6,8576760E-003	41	-2,2771872E-005
2	0	0	1	1	1,033267108713586E+005	1,9948789E+000	1,9943392E+000	-1,183676877885997E-002	1,000000000000000E+000	6,6578900E-003	41	-2,3606532E-005
2	0	0	1	1	1,033438468672731E+005	1,9828838E+000	1,9822812E+000	-1,234762380362355E-002	1,000000000000000E+000	6,4495658E-003	41	-2,4476463E-005
2	0	0	1	1	1,033609828632261E+005	1,9708885E+000	1,9703066E+000	-1,283953564221568E-002	1,000000000000000E+000	6,2327036E-003	41	-2,5297823E-005
2	0	0	1	1	1,033781188592023E+005	1,9588933E+000	1,9583209E+000	-1,335867855051125E-002	1,000000000000000E+000	6,0072243E-003	41	-2,6160578E-005
2	0	0	1	1	1,033952548551166E+005	1,9468982E+000	1,9463263E+000	-1,386621273805988E-002	1,000000000000000E+000	5,7729953E-003	41	-2,6988175E-005
2	0	0	0	1	1,034123908510637E+005	1,9349030E+000	1,9343793E+000	-1,441533363656139E-002	1,000000000000000E+000	5,5296142E-003	41	-2,7884724E-005
2	0	0	0	1	1,034295268470417E+005	1,9229077E+000	1,9223660E+000	-1,501809034100310E-002	1,000000000000000E+000	5,2762008E-003	41	-2,8870267E-005
2	0	0	0	1	1,034466628429584E+005	1,9109125E+000	1,9103985E+000	-1,564032885153921E-002	1,000000000000000E+000	5,0124107E-003	41	-2,9879260E-005
2	0	0	0	1	1,034637988388999E+005	1,8989172E+000	1,8983868E+000	-1,628647135211991E-002	1,000000000000000E+000	4,7377399E-003	41	-3,0918021E-005
2	0	0	0	1	1,034809348348782E+005	1,8869221E+000	1,8864011E+000	-1,697520913234148E-002	1,000000000000000E+000	4,4515822E-003	41	-3,2022053E-005
2	0	0	1	1	1,034980709308003E+005	1,8749270E+000	1,8743721E+000	-1,769882091309855E-002	1,000000000000000E+000	4,1533927E-003	41	-3,3174176E-005
2	0	0	1	1	1,035152068267376E+005	1,8629318E+000	1,8623662E+000	-1,844151686888469E-002	1,000000000000000E+000	3,8427399E-003	41	-3,4344859E-005
2	0	0	1	1	1,035323428227162E+005	1,8509367E+000	1,8503699E+000	-1,923005053652502E-002	1,000000000000000E+000	3,5187877E-003	41	-3,5582707E-005
2	0	0	1	1	1,035494788186438E+005	1,8389412E+000	1,8383859E+000	-2,007137613104104E-002	1,000000000000000E+000	3,1808885E-003	41	-3,6898935E-005
2	0	0	1	1	1,035666148145753E+005	1,8269459E+000	1,8263934E+000	-2,095167533903119E-002	1,000000000000000E+000	2,8283393E-003	41	-3,8266000E-005
2	0	0	1	1	1,035837508105534E+005	1,8149507E+000	1,8144122E+000	-2,190930618717782E-002	1,000000000000000E+000	2,4600911E-003	41	-3,9752515E-005
2	0	0	1	1	1,036008868064862E+005	1,8029556E+000	1,8024019E+000	-2,294620529141403E-002	1,000000000000000E+000	2,0747990E-003	41	-4,1358286E-005
2	0	0	1	1	1,036180227024119E+005	1,7909606E+000	1,7903966E+000	-2,409546956937725E-002	1,000000000000000E+000	1,6707816E-003	41	-4,3140448E-005
2	0	0	1	1	1,036351586983902E+005	1,7789652E+000	1,7784109E+000	-2,532957650153581E-002	1,000000000000000E+000	1,2464586E-003	41	-4,5046396E-005
2	0	0	0	1	1,036522947943290E+005	1,7669700E+000	1,7664317E+000	-2,663371657918279E-002	1,000000000000000E+000	8,0022978E-004	41	-4,7046640E-005
2	0	0	0	1	1,036694307902495E+005	1,7549748E+000	1,7544259E+000	-2,801539242362461E-002	1,000000000000000E+000	3,3083631E-004	41	-4,9150931E-005
2	0	0	0	1	1,036865667862282E+005	1,7429795E+000	1,7424191E+000	-2,946921365905797E-002	1,000000000000000E+000	-1,6278926E-004	41	-5,1347721E-005
2	0	0	0	1	1,037037027821723E+005	1,7309846E+000	1,7304314E+000	-3,093917032305005E-002	1,000000000000000E+000	-6,8154256E-004	41	-5,3538111E-005
2	0	0	1	1	1,037161843791960E+005	1,7222385E+000	1,7216699E+000	-3,204017217596516E-002	1,000000000000000E+000	-1,0753506E-003	41	-5,5162600E-005