File: Dati/210311/CV_LTO_MX_10 layer_grafite nuova_0.1_1mVs_04_CV_C03.mpt
EC-Lab ASCII FILE
Nb header lines : 57

Cyclic Voltammetry

Run on channel : 3 (SN 6807)
User :
Electrode connection : standard
Ewe ctrl range : min = 0,00 V, max = 5,00 V
Ewe,I filtering : 50 kHz
Safety Limits :
	Do not start on E overload
Channel : Grounded
Acquisition started on : 03/11/2021 17:24:33
Saved on :
	File : CV_LTO_MX_10 layer_grafite nuova_0.1_1mVs_04_CV_C03.mpr
	Directory : C:\Users\labsuperfici\Desktop\Biologic\Users\Prisca Viviani\210311\
	Host : 169.254.114.127
Device : VSP-300 (SN 0638)
Address : USB
EC-Lab for windows v11.31 (software)
Internet server v11.30 (firmware)
Command interpretor v11.31 (firmware)
Electrode material :
Initial state :
Electrolyte :
Comments :
Cable : standard
Reference electrode : SCE Saturated Calomel Electrode (0,241 V)
Electrode surface area : 0,001 cm²
Characteristic mass : 0,001 g
Equivalent Weight : 0,000 g/eq.
Density : 0,000 g/cm3
Cycle Definition : Charge/Discharge alternance
Ei (V)              0,000
vs.                 Eoc
dE/dt               0,400
dE/dt unit          mV/s
E1 (V)              1,000
vs.                 Ref
Step percent        50
N                   10
E range min (V)     0,000
E range max (V)     5,000
I Range             Auto
I Range min         Unset
I Range max         Unset
I Range init        Unset
Bandwidth           8
E2 (V)              3,000
vs.                 Ref
nc cycles           0
Reverse Scan        1
Ef (V)              0,000
vs.                 Eoc

mode	ox/red	error	control changes	counter inc.	time/s	control/V	Ewe/V	<I>/mA	cycle number	(Q-Qo)/C	I Range	P/W
2	0	0	1	0	7,333447796572046E+004	1,7222385E+000	1,7216394E+000	-2,235034853219986E-002	1,000000000000000E+000	0,0000000E+000	41	-3,8479240E-005
2	0	0	1	0	7,336334135893756E+004	1,7106926E+000	1,7100681E+000	-2,333329428453531E-002	1,000000000000000E+000	-6,4715679E-004	41	-3,9901523E-005
2	0	0	1	0	7,339332945180999E+004	1,6986973E+000	1,6980975E+000	-2,512579661243741E-002	1,000000000000000E+000	-1,3765050E-003	41	-4,2666052E-005
2	0	0	1	0	7,342331744473823E+004	1,6867024E+000	1,6861095E+000	-2,681623607784858E-002	1,000000000000000E+000	-2,1578008E-003	41	-4,5215111E-005
2	0	0	1	0	7,345330553763645E+004	1,6747071E+000	1,6740929E+000	-2,852696837619118E-002	1,000000000000000E+000	-2,9901152E-003	41	-4,7756796E-005
2	0	0	1	0	7,348329353053821E+004	1,6627120E+000	1,6620853E+000	-3,028946366278178E-002	1,000000000000000E+000	-3,8741804E-003	41	-5,0343671E-005
2	0	0	1	0	7,351328152346236E+004	1,6507165E+000	1,6500832E+000	-3,211597100555974E-002	1,000000000000000E+000	-4,8118047E-003	41	-5,2994023E-005
2	0	0	1	0	7,354326931633754E+004	1,6387215E+000	1,6381105E+000	-3,404325148812282E-002	1,000000000000000E+000	-5,8057187E-003	41	-5,5766610E-005
2	0	0	1	0	7,357325730928523E+004	1,6267264E+000	1,6261111E+000	-3,609725093150651E-002	1,000000000000000E+000	-6,8595852E-003	41	-5,8698140E-005
2	0	0	1	0	7,360324530215212E+004	1,6147311E+000	1,6141189E+000	-3,832992059322848E-002	1,000000000000000E+000	-7,9773469E-003	41	-6,1869054E-005
2	0	0	1	0	7,363323339508555E+004	1,6027359E+000	1,6021513E+000	-4,073038829810560E-002	1,000000000000000E+000	-9,1649154E-003	41	-6,5256245E-005
2	0	0	1	0	7,366322138797841E+004	1,5907407E+000	1,5901088E+000	-4,341620157284970E-002	1,000000000000000E+000	-1,0428502E-002	41	-6,9036483E-005
2	0	0	1	0	7,369320938088489E+004	1,5787456E+000	1,5781441E+000	-4,634623675662358E-002	1,000000000000000E+000	-1,1776053E-002	41	-7,3141040E-005
2	0	0	1	0	7,372319747380470E+004	1,5667502E+000	1,5661643E+000	-4,959945240536401E-002	1,000000000000000E+000	-1,3216238E-002	41	-7,7680888E-005
2	0	0	1	0	7,375318526668521E+004	1,5547551E+000	1,5541444E+000	-5,322482288632924E-002	1,000000000000000E+000	-1,4759707E-002	41	-8,2719060E-005
2	0	0	1	0	7,378317325963173E+004	1,5427598E+000	1,5421752E+000	-5,724357721405376E-002	1,000000000000000E+000	-1,6417703E-002	41	-8,8279623E-005
2	0	0	1	0	7,381316125249560E+004	1,5307646E+000	1,5301826E+000	-6,175700495889802E-002	1,000000000000000E+000	-1,8203495E-002	41	-9,4499497E-005
2	0	0	1	0	7,384314924543578E+004	1,5187693E+000	1,5182334E+000	-6,683183508052393E-002	1,000000000000000E+000	-2,0133227E-002	41	-1,0146633E-004
2	0	0	1	0	7,387313723832229E+004	1,5067743E+000	1,5062139E+000	-7,257900849230503E-002	1,000000000000000E+000	-2,2224875E-002	41	-1,0931951E-004
2	0	0	1	0	7,390312523123561E+004	1,4947790E+000	1,4942195E+000	-7,886080618883451E-002	1,000000000000000E+000	-2,4496887E-002	41	-1,1783536E-004
2	0	0	1	0	7,393311312414939E+004	1,4827839E+000	1,4822290E+000	-8,557042215676902E-002	1,000000000000000E+000	-2,6964534E-002	41	-1,2683496E-004
2	0	0	1	0	7,396310101703554E+004	1,4707886E+000	1,4702271E+000	-9,238511238712416E-002	1,000000000000000E+000	-2,9635651E-002	41	-1,3582710E-004
2	0	0	1	0	7,399308900997555E+004	1,4587935E+000	1,4582593E+000	-9,905810031938878E-002	1,000000000000000E+000	-3,2509930E-002	41	-1,4445240E-004
2	0	0	1	0	7,402307710283960E+004	1,4467983E+000	1,4461892E+000	-1,055514606207528E-001	1,000000000000000E+000	-3,5581563E-002	40	-1,5264738E-004
2	0	0	1	0	7,405306509578531E+004	1,4348029E+000	1,4341567E+000	-1,113096664334703E-001	1,000000000000000E+000	-3,8837716E-002	40	-1,5963550E-004
2	0	0	1	0	7,408305298866576E+004	1,4228078E+000	1,4221686E+000	-1,164769746046844E-001	1,000000000000000E+000	-4,2257220E-002	40	-1,6564989E-004
2	0	0	1	0	7,411304098158469E+004	1,4108125E+000	1,4101838E+000	-1,209804827844456E-001	1,000000000000000E+000	-4,5822289E-002	40	-1,7060472E-004
2	0	0	1	0	7,414302897449164E+004	1,3988173E+000	1,3981769E+000	-1,250024161392491E-001	1,000000000000000E+000	-4,9514949E-002	40	-1,7477549E-004
2	0	0	1	0	7,417301696738368E+004	1,3868221E+000	1,3861794E+000	-1,284230401965010E-001	1,000000000000000E+000	-5,3318962E-002	40	-1,7801738E-004
2	0	0	1	0	7,420300496031740E+004	1,3748270E+000	1,3741945E+000	-1,313269018280911E-001	1,000000000000000E+000	-5,7217818E-002	40	-1,8046871E-004
2	0	0	1	0	7,423299295318517E+004	1,3628318E+000	1,3621907E+000	-1,337326103759851E-001	1,000000000000000E+000	-6,1195906E-002	40	-1,8216931E-004
2	0	0	1	0	7,426298094613291E+004	1,3508366E+000	1,3502153E+000	-1,356831341324133E-001	1,000000000000000E+000	-6,5239534E-002	40	-1,8320144E-004
2	0	0	1	0	7,429296893900944E+004	1,3388413E+000	1,3382124E+000	-1,372742837856391E-001	1,000000000000000E+000	-6,9335498E-002	40	-1,8370214E-004
2	0	0	1	0	7,432295693193330E+004	1,3268462E+000	1,3262047E+000	-1,385531580737778E-001	1,000000000000000E+000	-7,3474482E-002	40	-1,8374984E-004
2	0	0	1	0	7,435294472483627E+004	1,3148509E+000	1,3141987E+000	-1,393948188490989E-001	1,000000000000000E+000	-7,7645838E-002	40	-1,8319249E-004
2	0	0	1	0	7,438293261773442E+004	1,3028557E+000	1,3022175E+000	-1,395222825714467E-001	1,000000000000000E+000	-8,1832521E-002	40	-1,8168836E-004
2	0	0	1	0	7,441292071066308E+004	1,2908607E+000	1,2902435E+000	-1,389090411840903E-001	1,000000000000000E+000	-8,6011402E-002	40	-1,7922648E-004
2	0	0	1	0	7,444290870353417E+004	1,2788653E+000	1,2782214E+000	-1,377861297301162E-001	1,000000000000000E+000	-9,0163231E-002	40	-1,7612118E-004
2	0	0	1	0	7,447289669648267E+004	1,2668700E+000	1,2662349E+000	-1,364917846376850E-001	1,000000000000000E+000	-9,4278775E-002	40	-1,7283065E-004
2	0	0	1	0	7,450288468935317E+004	1,2548748E+000	1,2542192E+000	-1,349448846241996E-001	1,000000000000000E+000	-9,8351218E-002	40	-1,6925046E-004
2	0	0	1	0	7,453287288228166E+004	1,2428796E+000	1,2422127E+000	-1,333254574636616E-001	1,000000000000000E+000	-1,0237589E-001	40	-1,6561856E-004
2	0	0	1	0	7,456286067517940E+004	1,2308844E+000	1,2302207E+000	-1,317084077331425E-001	1,000000000000000E+000	-1,0635227E-001	40	-1,6203041E-004
2	0	0	1	0	7,459284866808145E+004	1,2188892E+000	1,2182201E+000	-1,300411478070358E-001	1,000000000000000E+000	-1,1027877E-001	40	-1,5841874E-004
2	0	0	1	0	7,462283666100533E+004	1,2068940E+000	1,2062376E+000	-1,283775239425213E-001	1,000000000000000E+000	-1,1415537E-001	40	-1,5485378E-004
2	0	0	1	0	7,465282465388114E+004	1,1948988E+000	1,1942772E+000	-1,267293666298661E-001	1,000000000000000E+000	-1,1798295E-001	40	-1,5134999E-004
2	0	0	1	0	7,468281254682891E+004	1,1829038E+000	1,1822715E+000	-1,249909948577239E-001	1,000000000000000E+000	-1,2175924E-001	40	-1,4777329E-004
2	0	0	1	0	7,471280053969566E+004	1,1709086E+000	1,1702808E+000	-1,233799190059182E-001	1,000000000000000E+000	-1,2548602E-001	40	-1,4438915E-004
2	0	0	1	0	7,474278823263058E+004	1,1589134E+000	1,1582500E+000	-1,218268144776409E-001	1,000000000000000E+000	-1,2916510E-001	40	-1,4110591E-004
2	0	0	1	0	7,477277622552263E+004	1,1469182E+000	1,1462619E+000	-1,202344046332082E-001	1,000000000000000E+000	-1,3279717E-001	40	-1,3782013E-004
2	0	0	1	0	7,480276441843039E+004	1,1349229E+000	1,1342843E+000	-1,187098303246594E-001	1,000000000000000E+000	-1,3638251E-001	40	-1,3465069E-004
2	0	0	1	0	7,483275241134968E+004	1,1229277E+000	1,1222758E+000	-1,172326013337994E-001	1,000000000000000E+000	-1,3992234E-001	40	-1,3156731E-004
2	0	0	1	0	7,486274040423078E+004	1,1109325E+000	1,1103038E+000	-1,157548790585873E-001	1,000000000000000E+000	-1,4341801E-001	40	-1,2852308E-004
2	0	0	1	0	7,489272839717672E+004	1,0989373E+000	1,0982766E+000	-1,144313332183660E-001	1,000000000000000E+000	-1,4687178E-001	40	-1,2567725E-004
2	0	0	1	0	7,492271659004036E+004	1,0869420E+000	1,0863036E+000	-1,130917687992166E-001	1,000000000000000E+000	-1,5028547E-001	40	-1,2285200E-004
2	0	0	1	0	7,495270428298146E+004	1,0749468E+000	1,0743051E+000	-1,118982777194335E-001	1,000000000000000E+000	-1,5366091E-001	40	-1,2021288E-004
2	0	0	1	0	7,498269227586687E+004	1,0629517E+000	1,0623189E+000	-1,107406848549577E-001	1,000000000000000E+000	-1,5700091E-001	40	-1,1764192E-004
2	0	0	1	0	7,501268026878033E+004	1,0509565E+000	1,0503030E+000	-1,096955047399817E-001	1,000000000000000E+000	-1,6030735E-001	40	-1,1521352E-004
2	0	0	1	0	7,504266816169280E+004	1,0389612E+000	1,0382937E+000	-1,086826700938439E-001	1,000000000000000E+000	-1,6358328E-001	40	-1,1284454E-004
2	0	0	1	0	7,507265615457947E+004	1,0269660E+000	1,0263076E+000	-1,077285787066590E-001	1,000000000000000E+000	-1,6682976E-001	40	-1,1056266E-004
2	0	0	1	0	7,510264414751856E+004	1,0149708E+000	1,0143269E+000	-1,069572811659059E-001	1,000000000000000E+000	-1,7005067E-001	40	-1,0848965E-004
2	0	0	1	0	7,513263214038254E+004	1,0029756E+000	1,0022936E+000	-1,061460212553781E-001	1,000000000000000E+000	-1,7324868E-001	40	-1,0638947E-004
2	0	0	1	0	7,515887253422034E+004	1,0075737E+000	1,0069137E+000	-9,573711407438729E-002	1,000000000000000E+000	-1,7590891E-001	40	-9,6399010E-005
2	0	0	1	0	7,518886052708852E+004	1,0195690E+000	1,0189316E+000	-8,723616872607987E-002	1,000000000000000E+000	-1,7864354E-001	40	-8,8887689E-005
2	0	0	1	0	7,521884872002131E+004	1,0315642E+000	1,0308846E+000	-8,056691236537317E-002	1,000000000000000E+000	-1,8115355E-001	40	-8,3055194E-005
2	0	0	1	0	7,524883671291539E+004	1,0435596E+000	1,0428675E+000	-7,497384406156932E-002	1,000000000000000E+000	-1,8348077E-001	40	-7,8187790E-005
2	0	0	1	0	7,527882460582210E+004	1,0555546E+000	1,0548991E+000	-7,007733173381336E-002	1,000000000000000E+000	-1,8565150E-001	40	-7,3924515E-005
2	0	0	1	0	7,530881259874222E+004	1,0675499E+000	1,0668967E+000	-6,576090301313432E-002	1,000000000000000E+000	-1,8768428E-001	40	-7,0160087E-005
2	0	0	1	0	7,533880059162201E+004	1,0795450E+000	1,0788829E+000	-6,186505533435627E-002	1,000000000000000E+000	-1,8959491E-001	40	-6,6745153E-005
2	0	0	1	0	7,536878868456790E+004	1,0915402E+000	1,0908906E+000	-5,832818041331178E-002	1,000000000000000E+000	-1,9139412E-001	40	-6,3629668E-005
2	0	0	1	0	7,539877667743340E+004	1,1035354E+000	1,1028491E+000	-5,509589225315188E-002	1,000000000000000E+000	-1,9309220E-001	40	-6,0762457E-005
2	0	0	1	0	7,542876467037166E+004	1,1155307E+000	1,1149068E+000	-5,212061243903621E-002	1,000000000000000E+000	-1,9469707E-001	40	-5,8109625E-005
2	0	0	1	0	7,545875266325986E+004	1,1275258E+000	1,1268563E+000	-4,937855258056556E-002	1,000000000000000E+000	-1,9621623E-001	40	-5,5642533E-005
2	0	0	1	0	7,548874065617111E+004	1,1395210E+000	1,1389273E+000	-4,668006003532810E-002	1,000000000000000E+000	-1,9765282E-001	41	-5,3165197E-005
2	0	0	1	0	7,551872874908592E+004	1,1515163E+000	1,1509087E+000	-4,426907059526719E-002	1,000000000000000E+000	-1,9901359E-001	41	-5,0949660E-005
2	0	0	1	0	7,554871684197057E+004	1,1635115E+000	1,1629004E+000	-4,194795799752177E-002	1,000000000000000E+000	-2,0030355E-001	41	-4,8781298E-005
2	0	0	1	0	7,557870483491221E+004	1,1755065E+000	1,1748997E+000	-3,983010974737544E-002	1,000000000000000E+000	-2,0152691E-001	41	-4,6796384E-005
2	0	0	1	0	7,560869282777584E+004	1,1875018E+000	1,1869001E+000	-3,775109414965511E-002	1,000000000000000E+000	-2,0268752E-001	41	-4,4806780E-005
2	0	0	1	0	7,563868082071992E+004	1,1994971E+000	1,1988752E+000	-3,579296802715504E-002	1,000000000000000E+000	-2,0378767E-001	41	-4,2911302E-005
2	0	0	1	0	7,566866881360160E+004	1,2114923E+000	1,2108793E+000	-3,394526242646859E-002	1,000000000000000E+000	-2,0483080E-001	41	-4,1103616E-005
2	0	0	1	0	7,569865680651931E+004	1,2234874E+000	1,2228508E+000	-3,215668680335645E-002	1,000000000000000E+000	-2,0581932E-001	41	-3,9322829E-005
2	0	0	1	0	7,572864479942829E+004	1,2354827E+000	1,2348408E+000	-3,043122355241978E-002	1,000000000000000E+000	-2,0675541E-001	41	-3,7577716E-005
2	0	0	1	0	7,575863299231962E+004	1,2474780E+000	1,2468365E+000	-2,879233971458772E-002	1,000000000000000E+000	-2,0764124E-001	41	-3,5899342E-005
2	0	0	1	0	7,578862098525558E+004	1,2594731E+000	1,2588414E+000	-2,719650667193779E-002	1,000000000000000E+000	-2,0847864E-001	41	-3,4236087E-005
2	0	0	1	0	7,581860897812201E+004	1,2714683E+000	1,2708452E+000	-2,567050600641430E-002	1,000000000000000E+000	-2,0926940E-001	41	-3,2623240E-005
2	0	0	1	0	7,584859697106993E+004	1,2834635E+000	1,2828131E+000	-2,417550035704574E-002	1,000000000000000E+000	-2,1001501E-001	41	-3,1012649E-005
2	0	0	1	0	7,587858486394677E+004	1,2954587E+000	1,2948098E+000	-2,274658416403796E-002	1,000000000000000E+000	-2,1071620E-001	41	-2,9452500E-005
2	0	0	1	0	7,590857295687008E+004	1,3074539E+000	1,3068057E+000	-2,130671105734394E-002	1,000000000000000E+000	-2,1137449E-001	41	-2,7843733E-005
2	0	0	1	0	7,593856094977271E+004	1,3194491E+000	1,3187735E+000	-1,992888107427920E-002	1,000000000000000E+000	-2,1199067E-001	41	-2,6281681E-005
2	0	0	1	0	7,596854904266936E+004	1,3314445E+000	1,3308141E+000	-1,856112706599458E-002	1,000000000000000E+000	-2,1256547E-001	41	-2,4701410E-005
2	0	0	1	0	7,599853703559819E+004	1,3434393E+000	1,3427920E+000	-1,722034227696737E-002	1,000000000000000E+000	-2,1309994E-001	41	-2,3123339E-005
2	0	0	1	0	7,602852512846841E+004	1,3554348E+000	1,3547589E+000	-1,588936079894654E-002	1,000000000000000E+000	-2,1359438E-001	41	-2,1526252E-005
2	0	0	1	0	7,605851312141749E+004	1,3674299E+000	1,3667716E+000	-1,455164245471074E-002	1,000000000000000E+000	-2,1404858E-001	41	-1,9888772E-005
2	0	0	1	0	7,608850111428939E+004	1,3794252E+000	1,3787868E+000	-1,320907191229504E-002	1,000000000000000E+000	-2,1446270E-001	41	-1,8212493E-005
2	0	0	1	0	7,611848910721717E+004	1,3914204E+000	1,3907717E+000	-1,185909661570674E-002	1,000000000000000E+000	-2,1483615E-001	41	-1,6493297E-005
2	0	0	1	0	7,614847720011533E+004	1,4034156E+000	1,4028032E+000	-1,047231980050320E-002	1,000000000000000E+000	-2,1516870E-001	41	-1,4690603E-005
2	0	0	1	0	7,617846519301692E+004	1,4154108E+000	1,4147546E+000	-9,070328282465498E-003	1,000000000000000E+000	-2,1545976E-001	41	-1,2832289E-005
2	0	0	1	0	7,620845308594170E+004	1,4274058E+000	1,4267302E+000	-7,627775308610918E-003	1,000000000000000E+000	-2,1570793E-001	41	-1,0882777E-005
2	0	0	1	0	7,623844107881701E+004	1,4394010E+000	1,4387331E+000	-6,132447729593905E-003	1,000000000000000E+000	-2,1591213E-001	41	-8,8229554E-006
2	0	0	1	0	7,626842907176504E+004	1,4513962E+000	1,4507862E+000	-4,556061792858356E-003	1,000000000000000E+000	-2,1607038E-001	42	-6,6098719E-006
2	0	0	1	0	7,629841726463288E+004	1,4633915E+000	1,4627675E+000	-2,964416585240458E-003	1,000000000000000E+000	-2,1618123E-001	42	-4,3362520E-006
2	0	0	1	0	7,632840525756648E+004	1,4753867E+000	1,4747310E+000	-1,273544779536156E-003	1,000000000000000E+000	-2,1624307E-001	42	-1,8781359E-006
2	1	0	1	0	7,635839335046010E+004	1,4873821E+000	1,4866804E+000	4,760283397012462E-004	1,000000000000000E+000	-2,1625285E-001	43	7,0770199E-007
2	1	0	1	0	7,638838134336681E+004	1,4993773E+000	1,4987284E+000	2,394256015096206E-003	1,000000000000000E+000	-2,1620765E-001	42	3,5883395E-006
2	1	0	1	0	7,641836943628686E+004	1,5113724E+000	1,5106395E+000	4,454101550997340E-003	1,000000000000000E+000	-2,1610345E-001	42	6,7285418E-006
2	1	0	1	0	7,644835742916679E+004	1,5233675E+000	1,5226387E+000	6,703194604952570E-003	1,000000000000000E+000	-2,1593477E-001	42	1,0206543E-005
2	1	0	1	0	7,647834542211262E+004	1,5353627E+000	1,5346099E+000	9,239591433726671E-003	1,000000000000000E+000	-2,1569461E-001	42	1,4179169E-005
2	1	0	1	0	7,650833341497602E+004	1,5473580E+000	1,5466830E+000	1,219632466892200E-002	1,000000000000000E+000	-2,1537107E-001	41	1,8863848E-005
2	1	0	1	0	7,653832140791568E+004	1,5593531E+000	1,5586977E+000	1,540717155990562E-002	1,000000000000000E+000	-2,1495526E-001	41	2,4015122E-005
2	1	0	1	0	7,656830940080201E+004	1,5713484E+000	1,5706656E+000	1,913543236661385E-002	1,000000000000000E+000	-2,1443692E-001	41	3,0055366E-005
2	1	0	1	0	7,659829739371460E+004	1,5833436E+000	1,5826339E+000	2,431974260397318E-002	1,000000000000000E+000	-2,1378802E-001	41	3,8489248E-005
2	1	0	1	0	7,662828538662824E+004	1,5953387E+000	1,5946755E+000	3,201459719996293E-002	1,000000000000000E+000	-2,1294700E-001	41	5,1052895E-005
2	1	0	1	0	7,665827337951398E+004	1,6073339E+000	1,6066253E+000	4,153165536873482E-002	1,000000000000000E+000	-2,1184506E-001	41	6,6725806E-005
2	1	0	1	0	7,668826157245459E+004	1,6193291E+000	1,6186137E+000	5,188623705405371E-002	1,000000000000000E+000	-2,1044302E-001	41	8,3983774E-005
2	1	0	1	0	7,671824956531890E+004	1,6313244E+000	1,6305918E+000	6,251013877037881E-002	1,000000000000000E+000	-2,0872544E-001	41	1,0192852E-004
2	1	0	1	0	7,674823755826429E+004	1,6433195E+000	1,6425993E+000	7,314655042443119E-002	1,000000000000000E+000	-2,0668827E-001	41	1,2015048E-004
2	1	0	1	0	7,677822555114573E+004	1,6553147E+000	1,6545558E+000	8,355073042737649E-002	1,000000000000000E+000	-2,0433539E-001	41	1,3823934E-004
2	1	0	1	0	7,680821374406433E+004	1,6673100E+000	1,6665437E+000	9,363866592554307E-002	1,000000000000000E+000	-2,0167512E-001	41	1,5605293E-004
2	1	0	1	0	7,683820173697209E+004	1,6793052E+000	1,6786895E+000	1,032716327795793E-001	1,000000000000000E+000	-1,9871834E-001	40	1,7336100E-004
2	1	0	1	0	7,686818972986448E+004	1,6913004E+000	1,6906375E+000	1,123743045768717E-001	1,000000000000000E+000	-1,9548102E-001	40	1,8998420E-004
2	1	0	1	0	7,689817772279913E+004	1,7032957E+000	1,7026150E+000	1,210342367781196E-001	1,000000000000000E+000	-1,9197735E-001	40	2,0607471E-004
2	1	0	1	0	7,692816581566643E+004	1,7152909E+000	1,7146306E+000	1,290270570626815E-001	1,000000000000000E+000	-1,8822378E-001	40	2,2123374E-004
2	1	0	1	0	7,695815390861360E+004	1,7272860E+000	1,7266098E+000	1,363433453650147E-001	1,000000000000000E+000	-1,8424022E-001	40	2,3541176E-004
2	1	0	1	0	7,698814190149005E+004	1,7392813E+000	1,7385838E+000	1,430156122240707E-001	1,000000000000000E+000	-1,8004729E-001	40	2,4864462E-004
2	1	0	1	0	7,701812989441305E+004	1,7512764E+000	1,7505847E+000	1,490327629681176E-001	1,000000000000000E+000	-1,7566362E-001	40	2,6089448E-004
2	1	0	1	0	7,704811798731622E+004	1,7632718E+000	1,7625991E+000	1,543992730555437E-001	1,000000000000000E+000	-1,7110974E-001	40	2,7214401E-004
2	1	0	1	0	7,707810588021297E+004	1,7752669E+000	1,7746068E+000	1,590685695028938E-001	1,000000000000000E+000	-1,6640511E-001	40	2,8228416E-004
2	1	0	1	0	7,710809387314212E+004	1,7872621E+000	1,7865783E+000	1,630858527701586E-001	1,000000000000000E+000	-1,6157080E-001	40	2,9136564E-004
2	1	0	1	0	7,713808186601242E+004	1,7992572E+000	1,7985953E+000	1,664990532548152E-001	1,000000000000000E+000	-1,5662514E-001	40	2,9946442E-004
2	1	0	1	0	7,716807005896105E+004	1,8112524E+000	1,8105631E+000	1,693013937386731E-001	1,000000000000000E+000	-1,5158568E-001	40	3,0653086E-004
2	1	0	1	0	7,719805805183225E+004	1,8232477E+000	1,8225381E+000	1,715405299528914E-001	1,000000000000000E+000	-1,4647114E-001	40	3,1263917E-004
2	1	0	1	0	7,722804604476132E+004	1,8352427E+000	1,8345542E+000	1,731582294272129E-001	1,000000000000000E+000	-1,4129919E-001	40	3,1766816E-004
2	1	0	1	0	7,725803403765941E+004	1,8472382E+000	1,8465544E+000	1,741936456716866E-001	1,000000000000000E+000	-1,3608719E-001	40	3,2165804E-004
2	1	0	1	0	7,728802203056158E+004	1,8592333E+000	1,8585535E+000	1,745702540760359E-001	1,000000000000000E+000	-1,3085476E-001	40	3,2444816E-004
2	1	0	1	0	7,731801002348657E+004	1,8712285E+000	1,8705796E+000	1,742882149418716E-001	1,000000000000000E+000	-1,2562066E-001	40	3,2601997E-004
2	1	0	1	0	7,734799811636203E+004	1,8832235E+000	1,8825392E+000	1,732608121125629E-001	1,000000000000000E+000	-1,2040566E-001	40	3,2617027E-004
2	1	0	1	0	7,737798610931076E+004	1,8952188E+000	1,8945527E+000	1,715849043380431E-001	1,000000000000000E+000	-1,1523099E-001	40	3,2507663E-004
2	1	0	1	0	7,740797410217696E+004	1,9072140E+000	1,9065131E+000	1,691343194407979E-001	1,000000000000000E+000	-1,1011834E-001	40	3,2245679E-004
2	1	0	1	0	7,743796219511167E+004	1,9192094E+000	1,9185410E+000	1,660888349326645E-001	1,000000000000000E+000	-1,0508801E-001	40	3,1864824E-004
2	1	0	1	0	7,746795018800255E+004	1,9312044E+000	1,9305125E+000	1,622839468532620E-001	1,000000000000000E+000	-1,0016115E-001	40	3,1329121E-004
2	1	0	1	0	7,749793818091060E+004	1,9431999E+000	1,9425089E+000	1,579315530723077E-001	1,000000000000000E+000	-9,5357120E-002	40	3,0678345E-004
2	1	0	1	0	7,752792617382878E+004	1,9551950E+000	1,9545304E+000	1,527681785001229E-001	1,000000000000000E+000	-9,0695448E-002	40	2,9859005E-004
2	1	0	1	0	7,755791436671020E+004	1,9671901E+000	1,9665159E+000	1,472401258792591E-001	1,000000000000000E+000	-8,6193494E-002	40	2,8955005E-004
2	1	0	1	0	7,758790225965530E+004	1,9791853E+000	1,9785162E+000	1,411949524766585E-001	1,000000000000000E+000	-8,1865892E-002	40	2,7935649E-004
2	1	0	1	0	7,761789025251934E+004	1,9911807E+000	1,9905287E+000	1,346138953895055E-001	1,000000000000000E+000	-7,7727787E-002	40	2,6795283E-004
2	1	0	1	0	7,764787834545970E+004	2,0031753E+000	2,0025203E+000	1,276519701007315E-001	1,000000000000000E+000	-7,3793426E-002	40	2,5562567E-004
2	1	0	1	0	7,767786633834522E+004	2,0151708E+000	2,0145316E+000	1,202446061243710E-001	1,000000000000000E+000	-7,0074603E-002	40	2,4223657E-004
2	1	0	1	0	7,770785433125915E+004	2,0271657E+000	2,0265138E+000	1,127202910984644E-001	1,000000000000000E+000	-6,6579580E-002	40	2,2842923E-004
2	1	0	1	0	7,773784262417164E+004	2,0391612E+000	2,0385029E+000	1,049089896725192E-001	1,000000000000000E+000	-6,3314684E-002	40	2,1385729E-004
2	1	0	1	0	7,776783041705936E+004	2,0511563E+000	2,0504596E+000	9,722732561282532E-002	1,000000000000000E+000	-6,0282584E-002	40	1,9936070E-004
2	1	0	1	0	7,779781870999851E+004	2,0631516E+000	2,0624568E+000	8,995473151043321E-002	1,000000000000000E+000	-5,7475232E-002	40	1,8552775E-004
2	1	0	1	0	7,782780670286389E+004	2,0751469E+000	2,0744629E+000	8,337447355362970E-002	1,000000000000000E+000	-5,4876424E-002	40	1,7295725E-004
2	1	0	1	0	7,785779469580879E+004	2,0871420E+000	2,0864918E+000	7,745373936512806E-002	1,000000000000000E+000	-5,2464947E-002	40	1,6160660E-004
2	1	0	1	0	7,788778258869087E+004	2,0991371E+000	2,0984700E+000	7,223613019144981E-002	1,000000000000000E+000	-5,0220143E-002	40	1,5158535E-004
2	1	0	1	0	7,791777068160917E+004	2,1111321E+000	2,1105220E+000	6,759248702941831E-002	1,000000000000000E+000	-4,8122928E-002	40	1,4265544E-004
2	1	0	1	0	7,794775897451688E+004	2,1231275E+000	2,1224790E+000	6,348795871245416E-002	1,000000000000000E+000	-4,6156820E-002	40	1,3475186E-004
2	1	0	1	0	7,797774696740834E+004	2,1351228E+000	2,1344664E+000	5,974677410993845E-002	1,000000000000000E+000	-4,4307582E-002	40	1,2752748E-004
2	1	0	1	0	7,800773496034229E+004	2,1471181E+000	2,1464782E+000	5,638523203118706E-002	1,000000000000000E+000	-4,2565316E-002	40	1,2102967E-004
2	1	0	1	0	7,803772295320872E+004	2,1591134E+000	2,1584835E+000	5,325146502468681E-002	1,000000000000000E+000	-4,0920340E-002	40	1,1494241E-004
2	1	0	1	0	7,806771124615680E+004	2,1711080E+000	2,1704612E+000	5,043075342415704E-002	1,000000000000000E+000	-3,9364450E-002	40	1,0945799E-004
2	1	0	1	0	7,809794893897418E+004	2,1832037E+000	2,1825321E+000	4,811052835089136E-002	1,000000000000000E+000	-3,7875041E-002	41	1,0500277E-004
2	1	0	1	0	7,812793693189655E+004	2,1951990E+000	2,1945353E+000	4,589930219731558E-002	1,000000000000000E+000	-3,6464330E-002	41	1,0072764E-004
2	1	0	1	0	7,815792532479973E+004	2,2071939E+000	2,2065222E+000	4,393216940065295E-002	1,000000000000000E+000	-3,5115909E-002	41	9,6937307E-005
2	1	0	1	0	7,818791331769637E+004	2,2191892E+000	2,2185030E+000	4,214649788772573E-002	1,000000000000000E+000	-3,3823881E-002	41	9,3502131E-005
2	1	0	1	0	7,821790161062637E+004	2,2311842E+000	2,2305193E+000	4,054071761005150E-002	1,000000000000000E+000	-3,2582451E-002	41	9,0426853E-005
2	1	0	1	0	7,824788930349669E+004	2,2431796E+000	2,2424972E+000	3,909115040143057E-002	1,000000000000000E+000	-3,1386808E-002	41	8,7661792E-005
2	1	0	1	0	7,827787759644655E+004	2,2551746E+000	2,2544847E+000	3,777770908468636E-002	1,000000000000000E+000	-3,0232873E-002	41	8,5169268E-005
2	1	0	1	0	7,830786518931715E+004	2,2671697E+000	2,2665119E+000	3,653641253714757E-002	1,000000000000000E+000	-2,9117158E-002	41	8,2810213E-005
2	1	0	1	0	7,833785348224663E+004	2,2791650E+000	2,2784531E+000	3,540749948099930E-002	1,000000000000000E+000	-2,8036505E-002	41	8,0674326E-005
2	1	0	1	0	7,836784187514381E+004	2,2911606E+000	2,2904687E+000	3,439723167006470E-002	1,000000000000000E+000	-2,6988117E-002	41	7,8785779E-005
2	1	0	1	0	7,839782986804703E+004	2,3031557E+000	2,3024983E+000	3,342386451361590E-002	1,000000000000000E+000	-2,5969282E-002	41	7,6958393E-005
2	1	0	1	0	7,842781786097051E+004	2,3151507E+000	2,3145111E+000	3,257039946684459E-002	1,000000000000000E+000	-2,4977693E-002	41	7,5384552E-005
2	1	0	1	0	7,845780585384660E+004	2,3271461E+000	2,3264725E+000	3,178640402719624E-002	1,000000000000000E+000	-2,4011530E-002	41	7,3950192E-005
2	1	0	1	0	7,848779384679417E+004	2,3391414E+000	2,3384984E+000	3,100273665557901E-002	1,000000000000000E+000	-2,3068715E-002	41	7,2499846E-005
2	1	0	1	0	7,851778183966130E+004	2,3511367E+000	2,3504858E+000	3,027170984626770E-002	1,000000000000000E+000	-2,2148289E-002	41	7,1153227E-005
2	1	0	1	0	7,854777023259550E+004	2,3631315E+000	2,3624778E+000	2,961885124742780E-002	1,000000000000000E+000	-2,1248413E-002	41	6,9973881E-005
2	1	0	1	0	7,857775812548745E+004	2,3751268E+000	2,3744433E+000	2,900483778621887E-002	1,000000000000000E+000	-2,0367458E-002	41	6,8870344E-005
2	1	0	1	0	7,860774641839438E+004	2,3871222E+000	2,3864872E+000	2,848274969742581E-002	1,000000000000000E+000	-1,9503284E-002	41	6,7973720E-005
2	1	0	1	0	7,863773411131289E+004	2,3991170E+000	2,3984590E+000	2,801176941980343E-002	1,000000000000000E+000	-1,8654134E-002	41	6,7185079E-005
2	1	0	1	0	7,866772240419360E+004	2,4111125E+000	2,4104440E+000	2,759714870247365E-002	1,000000000000000E+000	-1,7818339E-002	41	6,6521381E-005
2	1	0	1	0	7,869771039713925E+004	2,4231079E+000	2,4224570E+000	2,722443440289643E-002	1,000000000000000E+000	-1,6994320E-002	41	6,5950022E-005
2	1	0	1	0	7,872769839000423E+004	2,4351027E+000	2,4344504E+000	2,683002000510643E-002	1,000000000000000E+000	-1,6181385E-002	41	6,5316352E-005
2	1	0	1	0	7,875768678294373E+004	2,4470980E+000	2,4464552E+000	2,641423618453602E-002	1,000000000000000E+000	-1,5381129E-002	41	6,4621243E-005
2	1	0	1	0	7,878767477583117E+004	2,4590936E+000	2,4584842E+000	2,594809222428454E-002	1,000000000000000E+000	-1,4593503E-002	41	6,3792977E-005
2	1	0	1	0	7,881766276874405E+004	2,4710884E+000	2,4704516E+000	2,551394113114763E-002	1,000000000000000E+000	-1,3819622E-002	41	6,3030959E-005
2	1	0	1	0	7,884765066165826E+004	2,4830835E+000	2,4824612E+000	2,505318018232106E-002	1,000000000000000E+000	-1,3059177E-002	41	6,2193547E-005
2	1	0	1	0	7,887763875454385E+004	2,4950786E+000	2,4944477E+000	2,459494959647652E-002	1,000000000000000E+000	-1,2312667E-002	41	6,1350816E-005
2	1	0	1	0	7,890762664748449E+004	2,5070739E+000	2,5064569E+000	2,413256507514938E-002	1,000000000000000E+000	-1,1580316E-002	41	6,0487233E-005
2	1	0	1	0	7,893761494034762E+004	2,5190694E+000	2,5184491E+000	2,367465348933548E-002	1,000000000000000E+000	-1,0861281E-002	41	5,9623409E-005
2	1	0	1	0	7,896760303329316E+004	2,5310643E+000	2,5304372E+000	2,322361263062910E-002	1,000000000000000E+000	-1,0155890E-002	41	5,8765894E-005
2	1	0	1	0	7,899759132617363E+004	2,5430598E+000	2,5424628E+000	2,277707799774648E-002	1,000000000000000E+000	-9,4639547E-003	41	5,7909874E-005
2	1	0	1	0	7,902757931909279E+004	2,5550549E+000	2,5544171E+000	2,228861991236553E-002	1,000000000000000E+000	-8,7859025E-003	41	5,6934434E-005
2	1	0	1	0	7,905756731200009E+004	2,5670502E+000	2,5664148E+000	2,188118366972598E-002	1,000000000000000E+000	-8,1213685E-003	41	5,6156194E-005
2	1	0	1	0	7,908755530489213E+004	2,5790455E+000	2,5784771E+000	2,143494467007750E-002	1,000000000000000E+000	-7,4705156E-003	41	5,5269516E-005
2	1	0	1	0	7,911754329782608E+004	2,5910406E+000	2,5904279E+000	2,097800954656447E-002	1,000000000000000E+000	-6,8327379E-003	41	5,4342021E-005
2	1	0	1	0	7,914753169069314E+004	2,6030357E+000	2,6024256E+000	2,059531076388504E-002	1,000000000000000E+000	-6,2075267E-003	41	5,3597763E-005
2	1	0	1	0	7,917751958364085E+004	2,6150310E+000	2,6144571E+000	2,029432115275398E-002	1,000000000000000E+000	-5,5926284E-003	41	5,3058633E-005
2	1	0	1	0	7,920750757651647E+004	2,6270261E+000	2,6264315E+000	1,996196004783152E-002	1,000000000000000E+000	-4,9874405E-003	41	5,2428721E-005
2	1	0	1	0	7,923749556944100E+004	2,6390209E+000	2,6384208E+000	1,965331769225948E-002	1,000000000000000E+000	-4,3920320E-003	41	5,1853724E-005
2	1	0	1	0	7,926748356234329E+004	2,6510165E+000	2,6504383E+000	1,928850206597726E-002	1,000000000000000E+000	-3,8067135E-003	41	5,1122985E-005
2	1	0	1	0	7,929747155524138E+004	2,6630116E+000	2,6624072E+000	1,891057995736872E-002	1,000000000000000E+000	-3,2323860E-003	41	5,0347662E-005
2	1	0	1	0	7,932745984817017E+004	2,6750069E+000	2,6744199E+000	1,856494103867865E-002	1,000000000000000E+000	-2,6688580E-003	41	4,9650447E-005
2	1	0	1	0	7,935744794104178E+004	2,6870017E+000	2,6864011E+000	1,822963377942202E-002	1,000000000000000E+000	-2,1154152E-003	41	4,8972110E-005
2	1	0	1	0	7,938743613399088E+004	2,6989973E+000	2,6984124E+000	1,792622052724546E-002	1,000000000000000E+000	-1,5714561E-003	41	4,8372334E-005
2	1	0	1	0	7,941742422686215E+004	2,7109923E+000	2,7104092E+000	1,758584129599416E-002	1,000000000000000E+000	-1,0365635E-003	41	4,7664824E-005
2	1	0	1	0	7,944741211979045E+004	2,7229872E+000	2,7224107E+000	1,733082797378477E-002	1,000000000000000E+000	-5,1116286E-004	41	4,7181631E-005
2	1	0	1	0	7,947740011268761E+004	2,7349827E+000	2,7344217E+000	1,705783522972942E-002	1,000000000000000E+000	6,4182741E-006	41	4,6643316E-005
2	1	0	1	0	7,950738810558943E+004	2,7469778E+000	2,7463841E+000	1,681294414719114E-002	1,000000000000000E+000	5,1593402E-004	41	4,6174802E-005
2	1	0	1	0	7,953737609851325E+004	2,7589729E+000	2,7584033E+000	1,659047683388432E-002	1,000000000000000E+000	1,0185696E-003	41	4,5763227E-005
2	1	0	1	0	7,956736449138867E+004	2,7709682E+000	2,7704062E+000	1,643122777875825E-002	1,000000000000000E+000	1,5153982E-003	41	4,5521178E-005
2	1	0	1	0	7,959735248433688E+004	2,7829638E+000	2,7823794E+000	1,624096959239055E-002	1,000000000000000E+000	2,0072367E-003	41	4,5188539E-005
2	1	0	1	0	7,962734047720325E+004	2,7949586E+000	2,7943861E+000	1,616159512323273E-002	1,000000000000000E+000	2,4954085E-003	41	4,5161738E-005
2	1	0	1	0	7,965732847013811E+004	2,8069539E+000	2,8063598E+000	1,611181144338174E-002	1,000000000000000E+000	2,9810395E-003	41	4,5215540E-005
2	1	0	1	0	7,968731646302971E+004	2,8189490E+000	2,8183732E+000	1,605479635364421E-002	1,000000000000000E+000	3,4650469E-003	41	4,5248409E-005
2	1	0	1	0	7,971730465593838E+004	2,8309443E+000	2,8303719E+000	1,600873488209772E-002	1,000000000000000E+000	3,9479081E-003	41	4,5310673E-005
2	1	0	1	0	7,974729274885636E+004	2,8429394E+000	2,8423409E+000	1,598533204085317E-002	1,000000000000000E+000	4,4294829E-003	41	4,5435765E-005
2	1	0	1	0	7,977728104173820E+004	2,8549349E+000	2,8543501E+000	1,593277169171475E-002	1,000000000000000E+000	4,9097938E-003	41	4,5477707E-005
2	1	0	1	0	7,980726903468301E+004	2,8669300E+000	2,8663440E+000	1,587204616078294E-002	1,000000000000000E+000	5,3888555E-003	41	4,5494744E-005
2	1	0	1	0	7,983725702754734E+004	2,8789248E+000	2,8783357E+000	1,580729757208849E-002	1,000000000000000E+000	5,8660419E-003	41	4,5498709E-005
2	1	0	1	0	7,986724502048828E+004	2,8909204E+000	2,8903630E+000	1,572870485185837E-002	1,000000000000000E+000	6,3408269E-003	41	4,5461667E-005
2	1	0	1	0	7,989723301337415E+004	2,9029152E+000	2,9023705E+000	1,559383086567634E-002	1,000000000000000E+000	6,8123937E-003	41	4,5259076E-005
2	1	0	1	0	7,992722100628866E+004	2,9149106E+000	2,9143689E+000	1,545008989972504E-002	1,000000000000000E+000	7,2795902E-003	41	4,5027260E-005
2	1	0	1	0	7,995720939920016E+004	2,9269061E+000	2,9263675E+000	1,526078249743718E-002	1,000000000000000E+000	7,7417297E-003	41	4,4658660E-005
2	1	0	1	0	7,998719729208807E+004	2,9389017E+000	2,9383507E+000	1,510298525464065E-002	1,000000000000000E+000	8,1988340E-003	41	4,4377866E-005
2	1	0	1	0	8,001718528502621E+004	2,9508967E+000	2,9503453E+000	1,499952432112242E-002	1,000000000000000E+000	8,6519439E-003	41	4,4253775E-005
2	1	0	1	0	8,004717327789171E+004	2,9628918E+000	2,9623072E+000	1,489453439571209E-002	1,000000000000000E+000	9,1018928E-003	41	4,4122185E-005
2	1	0	1	0	8,007716127083637E+004	2,9748869E+000	2,9743412E+000	1,483555713437372E-002	1,000000000000000E+000	9,5498227E-003	41	4,4126009E-005
2	1	0	1	0	8,010714956371684E+004	2,9868822E+000	2,9863114E+000	1,479397389982223E-002	1,000000000000000E+000	9,9960715E-003	41	4,4179415E-005
2	1	0	1	0	8,013713725663559E+004	2,9988775E+000	2,9983020E+000	1,478100615328765E-002	1,000000000000000E+000	1,0441342E-002	41	4,4317920E-005
2	1	0	1	1	8,016387675030553E+004	2,9904804E+000	2,9899154E+000	1,078966275063542E-002	1,000000000000000E+000	1,0767172E-002	41	3,2260177E-005
2	1	0	1	1	8,019386474320968E+004	2,9784856E+000	2,9779222E+000	9,105920009043866E-003	1,000000000000000E+000	1,1061951E-002	41	2,7116721E-005
2	1	0	1	1	8,022385273613234E+004	2,9664903E+000	2,9659424E+000	7,928214913492996E-003	1,000000000000000E+000	1,1314514E-002	41	2,3514629E-005
2	1	0	1	1	8,025384102901025E+004	2,9544952E+000	2,9539471E+000	6,959210190454389E-003	1,000000000000000E+000	1,1534995E-002	41	2,0557138E-005
2	1	0	1	1	8,028382872195781E+004	2,9424999E+000	2,9419549E+000	6,170252808036094E-003	1,000000000000000E+000	1,1729666E-002	41	1,8152605E-005
2	1	0	1	1	8,031381701482343E+004	2,9305048E+000	2,9299843E+000	5,510889642564118E-003	1,000000000000000E+000	1,1902979E-002	41	1,6146820E-005
2	1	0	1	1	8,034380500776044E+004	2,9185095E+000	2,9179149E+000	4,925558233646994E-003	1,000000000000000E+000	1,2057781E-002	41	1,4372359E-005
2	1	0	1	1	8,037379290065030E+004	2,9065142E+000	2,9059045E+000	4,440529772757041E-003	1,000000000000000E+000	1,2196732E-002	42	1,2903755E-005
2	1	0	1	1	8,040378089356027E+004	2,8945189E+000	2,8939509E+000	4,024740863974093E-003	1,000000000000000E+000	1,2321845E-002	42	1,1647403E-005
2	1	0	1	1	8,043376888647606E+004	2,8825238E+000	2,8819141E+000	3,621975134851060E-003	1,000000000000000E+000	1,2434517E-002	42	1,0438222E-005
2	1	0	1	1	8,046375687935925E+004	2,8705287E+000	2,8699422E+000	3,276810062168825E-003	1,000000000000000E+000	1,2536197E-002	42	9,4042553E-006
2	1	0	1	1	8,049374487230228E+004	2,8585331E+000	2,8579519E+000	2,956369149565700E-003	1,000000000000000E+000	1,2627847E-002	42	8,4491612E-006
2	1	0	1	1	8,052373286516604E+004	2,8465383E+000	2,8459594E+000	2,682351764652617E-003	1,000000000000000E+000	1,2710641E-002	42	7,6338647E-006
2	1	0	1	1	8,055372065810906E+004	2,8345430E+000	2,8339655E+000	2,417138222145662E-003	1,000000000000000E+000	1,2785453E-002	42	6,8500863E-006
2	1	0	1	1	8,058370865099225E+004	2,8225477E+000	2,8219626E+000	2,210639785175821E-003	1,000000000000000E+000	1,2853210E-002	42	6,2383428E-006
2	1	0	1	1	8,061369664390851E+004	2,8105524E+000	2,8099961E+000	2,008154305304721E-003	1,000000000000000E+000	1,2914757E-002	42	5,6429058E-006
2	1	0	1	1	8,064368483681837E+004	2,7985575E+000	2,7979600E+000	1,831413449545995E-003	1,000000000000000E+000	1,2970664E-002	42	5,1242218E-006
2	1	0	1	1	8,067367262970790E+004	2,7865620E+000	2,7859807E+000	1,683493116436287E-003	1,000000000000000E+000	1,3021789E-002	42	4,6901791E-006
2	1	0	1	1	8,070366082264460E+004	2,7745671E+000	2,7740119E+000	1,535489251674954E-003	1,000000000000000E+000	1,3068363E-002	42	4,2594652E-006
2	1	0	1	1	8,073364871551076E+004	2,7625718E+000	2,7619932E+000	1,413307009000529E-003	1,000000000000000E+000	1,3111068E-002	42	3,9035444E-006
2	1	0	1	1	8,076363660845766E+004	2,7505765E+000	2,7500310E+000	1,294146878757292E-003	1,000000000000000E+000	1,3149863E-002	42	3,5589439E-006
2	1	0	1	1	8,079362460133643E+004	2,7385812E+000	2,7380292E+000	1,172691274651364E-003	1,000000000000000E+000	1,3185055E-002	42	3,2108630E-006
2	1	0	1	1	8,082361259425804E+004	2,7265861E+000	2,7260015E+000	1,059767698720935E-003	1,000000000000000E+000	1,3216892E-002	42	2,8889283E-006
2	1	0	1	1	8,085360058716324E+004	2,7145910E+000	2,7140114E+000	9,549678693755357E-004	1,000000000000000E+000	1,3245425E-002	42	2,5917936E-006
2	1	0	1	1	8,088358858005865E+004	2,7025957E+000	2,7020214E+000	8,470656133557491E-004	1,000000000000000E+000	1,3270773E-002	42	2,2887893E-006
2	1	0	1	1	8,091357657298970E+004	2,6906006E+000	2,6900344E+000	7,409346400332143E-004	1,000000000000000E+000	1,3292850E-002	42	1,9931397E-006
2	1	0	1	1	8,094356436585821E+004	2,6786053E+000	2,6779776E+000	6,086501570983262E-004	1,000000000000000E+000	1,3311408E-002	43	1,6299515E-006
2	1	0	1	1	8,097355225880654E+004	2,6666105E+000	2,6660037E+000	4,794810833175633E-004	1,000000000000000E+000	1,3326321E-002	43	1,2782983E-006
2	1	0	1	1	8,100354025167983E+004	2,6546154E+000	2,6540189E+000	3,273829368599406E-004	1,000000000000000E+000	1,3337040E-002	43	8,6888048E-007
2	1	0	1	1	8,103352854460571E+004	2,6426198E+000	2,6420250E+000	1,560919903169292E-004	1,000000000000000E+000	1,3342978E-002	43	4,1239895E-007
2	1	0	1	1	8,106351623750594E+004	2,6306250E+000	2,6300852E+000	-3,153156585540502E-005	1,000000000000000E+000	1,3343373E-002	43	-8,2930704E-008
2	0	0	1	1	8,109350453040539E+004	2,6186295E+000	2,6181021E+000	-2,339870758571432E-004	1,000000000000000E+000	1,3337779E-002	43	-6,1260204E-007
2	0	0	1	1	8,112349222333185E+004	2,6066344E+000	2,6060915E+000	-3,959521973056367E-004	1,000000000000000E+000	1,3326692E-002	43	-1,0318877E-006
2	0	0	1	1	8,115348031620542E+004	2,5946391E+000	2,5941184E+000	-5,076003784002100E-004	1,000000000000000E+000	1,3311500E-002	43	-1,3167754E-006
2	0	0	1	1	8,118346830915450E+004	2,5826437E+000	2,5821602E+000	-5,987215669134597E-004	1,000000000000000E+000	1,3293374E-002	43	-1,5459950E-006
2	0	0	1	1	8,121345630202303E+004	2,5706484E+000	2,5701683E+000	-6,871823591928072E-004	1,000000000000000E+000	1,3272811E-002	43	-1,7661743E-006
2	0	0	1	1	8,124344419495482E+004	2,5586536E+000	2,5581715E+000	-7,743853317774742E-004	1,000000000000000E+000	1,3249644E-002	43	-1,9810104E-006
2	0	0	1	1	8,127343228784972E+004	2,5466583E+000	2,5461447E+000	-8,770627781405499E-004	1,000000000000000E+000	1,3223551E-002	42	-2,2331287E-006
2	0	0	1	1	8,130342018075462E+004	2,5346632E+000	2,5341308E+000	-9,747882913457642E-004	1,000000000000000E+000	1,3194145E-002	42	-2,4702410E-006
2	0	0	1	1	8,133340807367687E+004	2,5226679E+000	2,5221350E+000	-1,081021579779316E-003	1,000000000000000E+000	1,3161576E-002	42	-2,7264823E-006
2	0	0	1	1	8,136339596655522E+004	2,5106728E+000	2,5101378E+000	-1,198889777192229E-003	1,000000000000000E+000	1,3125654E-002	42	-3,0093786E-006
2	0	0	1	1	8,139338395950245E+004	2,4986775E+000	2,4981425E+000	-1,306012174658385E-003	1,000000000000000E+000	1,3086382E-002	42	-3,2626044E-006
2	0	0	1	1	8,142337225236720E+004	2,4866822E+000	2,4861073E+000	-1,418007677951871E-003	1,000000000000000E+000	1,3043815E-002	42	-3,5253192E-006
2	0	0	1	1	8,145335994530516E+004	2,4746871E+000	2,4741490E+000	-1,534495051572406E-003	1,000000000000000E+000	1,2997926E-002	42	-3,7965694E-006
2	0	0	1	1	8,148334823819320E+004	2,4626918E+000	2,4621582E+000	-1,650526495754822E-003	1,000000000000000E+000	1,2948570E-002	42	-4,0638574E-006
2	0	0	1	1	8,151333623110465E+004	2,4506962E+000	2,4501650E+000	-1,766636247499769E-003	1,000000000000000E+000	1,2895645E-002	42	-4,3285504E-006
2	0	0	1	1	8,154332402402023E+004	2,4387014E+000	2,4381630E+000	-1,889670770048514E-003	1,000000000000000E+000	1,2839090E-002	42	-4,6073255E-006
2	0	0	1	1	8,157331191690365E+004	2,4267061E+000	2,4261816E+000	-2,004484021317796E-003	1,000000000000000E+000	1,2778958E-002	42	-4,8632423E-006
2	0	0	1	1	8,160329990984569E+004	2,4147110E+000	2,4141731E+000	-2,098833712606961E-003	1,000000000000000E+000	1,2715614E-002	42	-5,0669478E-006
2	0	0	1	1	8,163328790270956E+004	2,4027157E+000	2,4021621E+000	-2,188318687434288E-003	1,000000000000000E+000	1,2649550E-002	42	-5,2566961E-006
2	0	0	1	1	8,166327589565306E+004	2,3907204E+000	2,3901803E+000	-2,248589131582233E-003	1,000000000000000E+000	1,2581366E-002	42	-5,3745334E-006
2	0	0	1	1	8,169326388853590E+004	2,3787255E+000	2,3781965E+000	-2,306304712034218E-003	1,000000000000000E+000	1,2511214E-002	42	-5,4848456E-006
2	0	0	1	1	8,172325188145344E+004	2,3667302E+000	2,3661809E+000	-2,370051818624777E-003	1,000000000000000E+000	1,2439171E-002	42	-5,6079712E-006
2	0	0	1	1	8,175323967436305E+004	2,3547351E+000	2,3541815E+000	-2,447882287411628E-003	1,000000000000000E+000	1,2365145E-002	42	-5,7627594E-006
2	0	0	1	1	8,178322766725393E+004	2,3427398E+000	2,3422148E+000	-2,512042011388577E-003	1,000000000000000E+000	1,2289083E-002	42	-5,8837422E-006
2	0	0	1	1	8,181321596018993E+004	2,3307445E+000	2,3301759E+000	-2,594885549165010E-003	1,000000000000000E+000	1,2210737E-002	42	-6,0465395E-006
2	0	0	1	1	8,184320355305629E+004	2,3187494E+000	2,3182006E+000	-2,675858660029617E-003	1,000000000000000E+000	1,2129954E-002	42	-6,2031772E-006
2	0	0	1	1	8,187319194600289E+004	2,3067539E+000	2,3062375E+000	-2,761441309290869E-003	1,000000000000000E+000	1,2046761E-002	42	-6,3685393E-006
2	0	0	1	1	8,190317983888071E+004	2,2947590E+000	2,2942023E+000	-2,857118747198177E-003	1,000000000000000E+000	1,1960606E-002	42	-6,5548084E-006
2	0	0	1	1	8,193316773180244E+004	2,2827637E+000	2,2822125E+000	-2,971742519632297E-003	1,000000000000000E+000	1,1871519E-002	42	-6,7821479E-006
2	0	0	1	1	8,196315562470659E+004	2,2707686E+000	2,2702289E+000	-3,069420172201312E-003	1,000000000000000E+000	1,1779267E-002	42	-6,9682865E-006
2	0	0	1	1	8,199314361760207E+004	2,2587733E+000	2,2582159E+000	-3,195502036232131E-003	1,000000000000000E+000	1,1683660E-002	42	-7,2161333E-006
2	0	0	1	1	8,202313161053276E+004	2,2467782E+000	2,2462225E+000	-3,312133106959589E-003	1,000000000000000E+000	1,1584417E-002	42	-7,4397881E-006
2	0	0	1	1	8,205311960340175E+004	2,2347829E+000	2,2342541E+000	-3,439852668729065E-003	1,000000000000000E+000	1,1481474E-002	42	-7,6855049E-006
2	0	0	1	1	8,208310759635072E+004	2,2227876E+000	2,2222579E+000	-3,583923188250777E-003	1,000000000000000E+000	1,1374454E-002	42	-7,9644014E-006
2	0	0	1	1	8,211309558922367E+004	2,2107928E+000	2,2102621E+000	-3,737385225046130E-003	1,000000000000000E+000	1,1263168E-002	42	-8,2606011E-006
2	0	0	1	1	8,214308368214988E+004	2,1987972E+000	2,1982615E+000	-3,889522406055682E-003	1,000000000000000E+000	1,1147323E-002	42	-8,5501870E-006
2	0	0	1	1	8,217307127504965E+004	2,1868021E+000	2,1862946E+000	-4,047244809206870E-003	1,000000000000000E+000	1,1026688E-002	42	-8,8484694E-006
2	0	0	1	1	8,220305956794997E+004	2,1748068E+000	2,1742578E+000	-4,221308940070518E-003	1,000000000000000E+000	1,0900893E-002	42	-9,1782140E-006
2	0	0	1	1	8,223304756087647E+004	2,1628118E+000	2,1622930E+000	-4,415664779838818E-003	1,000000000000000E+000	1,0769578E-002	42	-9,5479609E-006
2	0	0	1	1	8,226303555375081E+004	2,1508167E+000	2,1503043E+000	-4,608751081773471E-003	1,000000000000000E+000	1,0632541E-002	42	-9,9102172E-006
2	0	0	1	1	8,229302354669981E+004	2,1388211E+000	2,1382983E+000	-4,820883083124228E-003	1,000000000000000E+000	1,0489378E-002	42	-1,0308486E-005
2	0	0	1	1	8,232301153956819E+004	2,1268260E+000	2,1262970E+000	-5,047475945822005E-003	1,000000000000000E+000	1,0339625E-002	42	-1,0732433E-005
2	0	0	1	1	8,235299933250080E+004	2,1148310E+000	2,1143205E+000	-5,273398614637437E-003	1,000000000000000E+000	1,0183118E-002	42	-1,1149655E-005
2	0	0	1	1	8,238298732539499E+004	2,1028359E+000	2,1023114E+000	-5,520963771831644E-003	1,000000000000000E+000	1,0019445E-002	42	-1,1606785E-005
2	0	0	1	1	8,241297531830030E+004	2,0908406E+000	2,0903158E+000	-5,786829335498109E-003	1,000000000000000E+000	9,8481644E-003	42	-1,2096300E-005
2	0	0	1	1	8,244296321122069E+004	2,0788453E+000	2,0783331E+000	-6,058879114841494E-003	1,000000000000000E+000	9,6688578E-003	42	-1,2592369E-005
2	0	0	1	1	8,247295150409918E+004	2,0668499E+000	2,0663307E+000	-6,342483337962113E-003	1,000000000000000E+000	9,4810547E-003	42	-1,3105668E-005
2	0	0	1	1	8,250293919704575E+004	2,0548546E+000	2,0543380E+000	-6,653658759451037E-003	1,000000000000000E+000	9,2843454E-003	42	-1,3668864E-005
2	0	0	1	1	8,253292748991004E+004	2,0428596E+000	2,0423677E+000	-6,968606980727043E-003	1,000000000000000E+000	9,0782074E-003	42	-1,4232458E-005
2	0	0	1	1	8,256291528284864E+004	2,0308645E+000	2,0303698E+000	-7,314696028667262E-003	1,000000000000000E+000	8,8621089E-003	42	-1,4851537E-005
2	0	0	1	1	8,259290327573637E+004	2,0188692E+000	2,0183685E+000	-7,676361717374958E-003	1,000000000000000E+000	8,6356634E-003	42	-1,5493726E-005
2	0	0	1	1	8,262289126864797E+004	2,0068741E+000	2,0063713E+000	-8,020011621844320E-003	1,000000000000000E+000	8,3986437E-003	42	-1,6091120E-005
2	0	0	1	1	8,265287936156243E+004	1,9948791E+000	1,9944147E+000	-8,375774343166734E-003	1,000000000000000E+000	8,1509901E-003	42	-1,6704767E-005
2	0	0	1	1	8,268286735444827E+004	1,9828838E+000	1,9823939E+000	-8,738071507360418E-003	1,000000000000000E+000	7,8924885E-003	42	-1,7322300E-005
2	0	0	1	1	8,271285534738936E+004	1,9708887E+000	1,9704403E+000	-9,104297411054341E-003	1,000000000000000E+000	7,6231970E-003	42	-1,7939474E-005
2	0	0	1	1	8,274284314025368E+004	1,9588935E+000	1,9584055E+000	-9,462371179671886E-003	1,000000000000000E+000	7,3430417E-003	42	-1,8531160E-005
2	0	0	1	1	8,277283113319776E+004	1,9468982E+000	1,9464115E+000	-9,868043076524696E-003	1,000000000000000E+000	7,0514441E-003	42	-1,9207273E-005
2	0	0	1	1	8,280281912608049E+004	1,9349031E+000	1,9343193E+000	-1,028663478981311E-002	1,000000000000000E+000	6,7472872E-003	41	-1,9897636E-005
2	0	0	1	1	8,283280721899844E+004	1,9229079E+000	1,9223187E+000	-1,070942897838623E-002	1,000000000000000E+000	6,4306813E-003	41	-2,0586936E-005
2	0	0	1	1	8,286279521190736E+004	1,9109128E+000	1,9103645E+000	-1,118072426668348E-002	1,000000000000000E+000	6,1007054E-003	41	-2,1359259E-005
2	0	0	1	1	8,289278320479859E+004	1,8989174E+000	1,8983513E+000	-1,165623164398344E-002	1,000000000000000E+000	5,7565621E-003	41	-2,2127622E-005
2	0	0	1	1	8,292277119773347E+004	1,8869220E+000	1,8863598E+000	-1,217684416530092E-002	1,000000000000000E+000	5,3972676E-003	41	-2,2969909E-005
2	0	0	1	1	8,295275909060030E+004	1,8749270E+000	1,8743732E+000	-1,269236588475040E-002	1,000000000000000E+000	5,0224247E-003	41	-2,3790230E-005
2	0	0	1	1	8,298274708354706E+004	1,8629318E+000	1,8623459E+000	-1,324996249106032E-002	1,000000000000000E+000	4,6313996E-003	41	-2,4676014E-005
2	0	0	1	1	8,301273507642461E+004	1,8509368E+000	1,8503457E+000	-1,382784561103893E-002	1,000000000000000E+000	4,2236433E-003	41	-2,5586294E-005
2	0	0	1	1	8,304272306934651E+004	1,8389415E+000	1,8383932E+000	-1,443401212608514E-002	1,000000000000000E+000	3,7981651E-003	41	-2,6535390E-005
2	0	0	1	1	8,307271106225005E+004	1,8269463E+000	1,8263601E+000	-1,508618430233867E-002	1,000000000000000E+000	3,3536837E-003	41	-2,7552805E-005
2	0	0	1	1	8,310269905514596E+004	1,8149509E+000	1,8143826E+000	-1,580507570537770E-002	1,000000000000000E+000	2,8885158E-003	41	-2,8676453E-005
2	0	0	1	1	8,313268704807595E+004	1,8029556E+000	1,8023821E+000	-1,659011078785320E-002	1,000000000000000E+000	2,4009668E-003	41	-2,9901719E-005
2	0	0	1	1	8,316267484094598E+004	1,7909604E+000	1,7903688E+000	-1,745069079806327E-002	1,000000000000000E+000	1,8889488E-003	41	-3,1243173E-005
2	0	0	1	1	8,319266283389530E+004	1,7789654E+000	1,7783964E+000	-1,835693157562079E-002	1,000000000000000E+000	1,3502808E-003	41	-3,2645901E-005
2	0	0	1	1	8,322265092676808E+004	1,7669703E+000	1,7664049E+000	-1,931515840906456E-002	1,000000000000000E+000	7,8358798E-004	41	-3,4118391E-005
2	0	0	1	1	8,325263891969563E+004	1,7549750E+000	1,7544072E+000	-2,030491391481498E-002	1,000000000000000E+000	1,8746212E-004	41	-3,5623085E-005
2	0	0	1	1	8,328262691259501E+004	1,7429799E+000	1,7424055E+000	-2,133601912790607E-002	1,000000000000000E+000	-4,3853992E-004	41	-3,7175996E-005
2	0	0	1	1	8,331261490549566E+004	1,7309846E+000	1,7304127E+000	-2,236925795214867E-002	1,000000000000000E+000	-1,0957589E-003	41	-3,8708047E-005
2	0	0	0	1	8,333445760033233E+004	1,7222385E+000	1,7217271E+000	-2,316205217917958E-002	1,000000000000000E+000	-1,5942591E-003	41	-3,9878734E-005