File: Dati/210311/CV_LTO_MX_10 layer_grafite nuova_0.1_1mVs_06_CV_C03.mpt
EC-Lab ASCII FILE
Nb header lines : 57

Cyclic Voltammetry

Run on channel : 3 (SN 6807)
User :
Electrode connection : standard
Ewe ctrl range : min = 0,00 V, max = 5,00 V
Ewe,I filtering : 50 kHz
Safety Limits :
	Do not start on E overload
Channel : Grounded
Acquisition started on : 03/11/2021 17:24:33
Saved on :
	File : CV_LTO_MX_10 layer_grafite nuova_0.1_1mVs_06_CV_C03.mpr
	Directory : C:\Users\labsuperfici\Desktop\Biologic\Users\Prisca Viviani\210311\
	Host : 169.254.114.127
Device : VSP-300 (SN 0638)
Address : USB
EC-Lab for windows v11.31 (software)
Internet server v11.30 (firmware)
Command interpretor v11.31 (firmware)
Electrode material :
Initial state :
Electrolyte :
Comments :
Cable : standard
Reference electrode : SCE Saturated Calomel Electrode (0,241 V)
Electrode surface area : 0,001 cm²
Characteristic mass : 0,001 g
Equivalent Weight : 0,000 g/eq.
Density : 0,000 g/cm3
Cycle Definition : Charge/Discharge alternance
Ei (V)              0,000
vs.                 Eoc
dE/dt               0,600
dE/dt unit          mV/s
E1 (V)              1,000
vs.                 Ref
Step percent        50
N                   10
E range min (V)     0,000
E range max (V)     5,000
I Range             Auto
I Range min         Unset
I Range max         Unset
I Range init        Unset
Bandwidth           8
E2 (V)              3,000
vs.                 Ref
nc cycles           0
Reverse Scan        1
Ef (V)              0,000
vs.                 Eoc

mode	ox/red	error	control changes	counter inc.	time/s	control/V	Ewe/V	<I>/mA	cycle number	(Q-Qo)/C	I Range	P/W
2	0	0	0	0	9,133501190788485E+004	1,7222385E+000	1,7216852E+000	-3,026107512414455E-002	1,000000000000000E+000	0,0000000E+000	41	-5,2100044E-005
2	0	0	1	0	9,135425420329697E+004	1,7106926E+000	1,7100685E+000	-3,009616158181000E-002	1,000000000000000E+000	-5,6243048E-004	41	-5,1466497E-005
2	0	0	1	0	9,137424629860208E+004	1,6986976E+000	1,6981066E+000	-3,201501333760315E-002	1,000000000000000E+000	-1,1849261E-003	41	-5,4364908E-005
2	0	0	1	0	9,139423829386313E+004	1,6867023E+000	1,6861242E+000	-3,386024389961775E-002	1,000000000000000E+000	-1,8450491E-003	41	-5,7092577E-005
2	0	0	1	0	9,141423038912052E+004	1,6747069E+000	1,6740996E+000	-3,574563457967372E-002	1,000000000000000E+000	-2,5425097E-003	41	-5,9841750E-005
2	0	0	1	0	9,143422238442721E+004	1,6627117E+000	1,6621251E+000	-3,769781418782185E-002	1,000000000000000E+000	-3,2778524E-003	41	-6,2658481E-005
2	0	0	1	0	9,145421437966242E+004	1,6507165E+000	1,6500938E+000	-3,974809783611810E-002	1,000000000000000E+000	-4,0531950E-003	41	-6,5588087E-005
2	0	0	1	0	9,147420637494652E+004	1,6387213E+000	1,6381304E+000	-4,189533824404340E-002	1,000000000000000E+000	-4,8705274E-003	41	-6,8630026E-005
2	0	0	1	0	9,149419827022892E+004	1,6267260E+000	1,6261423E+000	-4,421514130128235E-002	1,000000000000000E+000	-5,7324441E-003	41	-7,1900111E-005
2	0	0	1	0	9,151419026546529E+004	1,6147310E+000	1,6141182E+000	-4,669670696208328E-002	1,000000000000000E+000	-6,6421959E-003	41	-7,5374002E-005
2	0	0	1	0	9,153418236077344E+004	1,6027359E+000	1,6021638E+000	-4,930265067378059E-002	1,000000000000000E+000	-7,6029208E-003	41	-7,8990925E-005
2	0	0	1	0	9,155417435602960E+004	1,5907407E+000	1,5901462E+000	-5,214978320724106E-002	1,000000000000000E+000	-8,6183101E-003	41	-8,2925777E-005
2	0	0	1	0	9,157416635129228E+004	1,5787455E+000	1,5781744E+000	-5,523227120109861E-002	1,000000000000000E+000	-9,6927211E-003	41	-8,7166154E-005
2	0	0	1	0	9,159415844659577E+004	1,5667500E+000	1,5661902E+000	-5,856224155759097E-002	1,000000000000000E+000	-1,0831303E-002	41	-9,1719608E-005
2	0	0	1	0	9,161415044182958E+004	1,5547549E+000	1,5541663E+000	-6,220070807155942E-002	1,000000000000000E+000	-1,2039812E-002	41	-9,6670243E-005
2	0	0	1	0	9,163414233711874E+004	1,5427598E+000	1,5421916E+000	-6,617484153460590E-002	1,000000000000000E+000	-1,3324014E-002	41	-1,0205428E-004
2	0	0	1	0	9,165413433239586E+004	1,5307646E+000	1,5301958E+000	-7,051900221224994E-002	1,000000000000000E+000	-1,4691140E-002	41	-1,0790789E-004
2	0	0	1	0	9,167412632763747E+004	1,5187693E+000	1,5182196E+000	-7,523773450687188E-002	1,000000000000000E+000	-1,6149262E-002	41	-1,1422740E-004
2	0	0	1	0	9,169411832294567E+004	1,5067741E+000	1,5062326E+000	-8,040751274642544E-002	1,000000000000000E+000	-1,7705912E-002	41	-1,2111242E-004
2	0	0	1	0	9,171411031819612E+004	1,4947789E+000	1,4942427E+000	-8,597996013261205E-002	1,000000000000000E+000	-1,9370239E-002	41	-1,2847493E-004
2	0	0	1	0	9,173410231346393E+004	1,4827838E+000	1,4822749E+000	-9,197447743866860E-002	1,000000000000000E+000	-2,1150345E-002	41	-1,3633145E-004
2	0	0	1	0	9,175409430876235E+004	1,4707887E+000	1,4702511E+000	-9,824558358333844E-002	1,000000000000000E+000	-2,3053186E-002	41	-1,4444567E-004
2	0	0	1	0	9,177408630399560E+004	1,4587933E+000	1,4581840E+000	-1,048437022881457E-001	1,000000000000000E+000	-2,5084201E-002	40	-1,5288140E-004
2	0	0	1	0	9,179407839928984E+004	1,4467981E+000	1,4461688E+000	-1,112376299174104E-001	1,000000000000000E+000	-2,7246105E-002	40	-1,6086838E-004
2	0	0	1	0	9,181407039456173E+004	1,4348029E+000	1,4341649E+000	-1,174143194521825E-001	1,000000000000000E+000	-2,9534305E-002	40	-1,6839149E-004
2	0	0	1	0	9,183406238980799E+004	1,4228077E+000	1,4221863E+000	-1,232643895917602E-001	1,000000000000000E+000	-3,1942464E-002	40	-1,7530491E-004
2	0	0	1	0	9,185405438511597E+004	1,4108125E+000	1,4101787E+000	-1,287556166501784E-001	1,000000000000000E+000	-3,4464478E-002	40	-1,8156842E-004
2	0	0	1	0	9,187404648036131E+004	1,3988172E+000	1,3981755E+000	-1,338255391659635E-001	1,000000000000000E+000	-3,7091669E-002	40	-1,8711158E-004
2	0	0	1	0	9,189403847563412E+004	1,3868220E+000	1,3862007E+000	-1,384485358223829E-001	1,000000000000000E+000	-3,9815813E-002	40	-1,9191745E-004
2	0	0	1	0	9,191403047092695E+004	1,3748268E+000	1,3741865E+000	-1,426895011292579E-001	1,000000000000000E+000	-4,2628556E-002	40	-1,9608199E-004
2	0	0	1	0	9,193402246616018E+004	1,3628316E+000	1,3622171E+000	-1,464143663880610E-001	1,000000000000000E+000	-4,5520961E-002	40	-1,9944814E-004
2	0	0	1	0	9,195401446145959E+004	1,3508364E+000	1,3501894E+000	-1,497783182882935E-001	1,000000000000000E+000	-4,8484407E-002	40	-2,0222910E-004
2	0	0	1	0	9,197400645672588E+004	1,3388413E+000	1,3382185E+000	-1,526541588519779E-001	1,000000000000000E+000	-5,1509786E-002	40	-2,0428462E-004
2	0	0	1	0	9,199399845197774E+004	1,3268461E+000	1,3262602E+000	-1,552060959892847E-001	1,000000000000000E+000	-5,4589417E-002	40	-2,0584367E-004
2	0	0	1	0	9,201399044728593E+004	1,3148509E+000	1,3142098E+000	-1,574670517459817E-001	1,000000000000000E+000	-5,7717182E-002	40	-2,0694475E-004
2	0	0	1	0	9,203398244252615E+004	1,3028557E+000	1,3022094E+000	-1,594078722663619E-001	1,000000000000000E+000	-6,0887173E-002	40	-2,0758243E-004
2	0	0	1	0	9,205397453780472E+004	1,2908605E+000	1,2902552E+000	-1,610861587882405E-001	1,000000000000000E+000	-6,4093165E-002	40	-2,0784225E-004
2	0	0	1	0	9,207396643309295E+004	1,2788653E+000	1,2782211E+000	-1,622639555915897E-001	1,000000000000000E+000	-6,7328081E-002	40	-2,0740922E-004
2	0	0	1	0	9,209395842832676E+004	1,2668703E+000	1,2662314E+000	-1,628229369520806E-001	1,000000000000000E+000	-7,0580684E-002	40	-2,0617152E-004
2	0	0	1	0	9,211395042363182E+004	1,2548749E+000	1,2542229E+000	-1,627166888459666E-001	1,000000000000000E+000	-7,3837265E-002	40	-2,0408299E-004
2	0	0	1	0	9,213394251889340E+004	1,2428796E+000	1,2422348E+000	-1,622107201866696E-001	1,000000000000000E+000	-7,7087387E-002	40	-2,0150380E-004
2	0	0	1	0	9,215393451415049E+004	1,2308844E+000	1,2302762E+000	-1,613956688087804E-001	1,000000000000000E+000	-8,0324017E-002	40	-1,9856126E-004
2	0	0	1	0	9,217392650945787E+004	1,2188892E+000	1,2182353E+000	-1,605505148869786E-001	1,000000000000000E+000	-8,3543710E-002	40	-1,9558829E-004
2	0	0	1	0	9,219391850469355E+004	1,2068939E+000	1,2062745E+000	-1,594105553711347E-001	1,000000000000000E+000	-8,6744010E-002	40	-1,9229289E-004
2	0	0	1	0	9,221391039997735E+004	1,1948990E+000	1,1942853E+000	-1,582999392901767E-001	1,000000000000000E+000	-8,9921460E-002	40	-1,8905528E-004
2	0	0	1	0	9,223390239526005E+004	1,1829038E+000	1,1822592E+000	-1,571582981732094E-001	1,000000000000000E+000	-9,3076222E-002	40	-1,8580185E-004
2	0	0	1	0	9,225389439049549E+004	1,1709086E+000	1,1702958E+000	-1,558701999466368E-001	1,000000000000000E+000	-9,6207500E-002	40	-1,8241425E-004
2	0	0	1	0	9,227388638580288E+004	1,1589133E+000	1,1582837E+000	-1,545739436070337E-001	1,000000000000000E+000	-9,9312574E-002	40	-1,7904048E-004
2	0	0	1	0	9,229387838105904E+004	1,1469183E+000	1,1462841E+000	-1,533070336520854E-001	1,000000000000000E+000	-1,0239168E-001	40	-1,7573341E-004
2	0	0	1	0	9,231387047632108E+004	1,1349230E+000	1,1343386E+000	-1,519828399169687E-001	1,000000000000000E+000	-1,0544455E-001	40	-1,7240000E-004
2	0	0	1	0	9,233386247162544E+004	1,1229277E+000	1,1222930E+000	-1,506033643729605E-001	1,000000000000000E+000	-1,0847125E-001	40	-1,6902111E-004
2	0	0	0	0	9,235385446685879E+004	1,1109326E+000	1,1103245E+000	-1,493634877067546E-001	1,000000000000000E+000	-1,1147115E-001	40	-1,6584194E-004
2	0	0	0	0	9,237384646214754E+004	1,0989373E+000	1,0982891E+000	-1,480226094593464E-001	1,000000000000000E+000	-1,1444520E-001	40	-1,6257162E-004
2	0	0	1	0	9,239383855742519E+004	1,0869421E+000	1,0863029E+000	-1,468088586455951E-001	1,000000000000000E+000	-1,1739400E-001	40	-1,5947889E-004
2	0	0	1	0	9,241383055266598E+004	1,0749469E+000	1,0743172E+000	-1,456024456188834E-001	1,000000000000000E+000	-1,2031837E-001	40	-1,5642321E-004
2	0	0	1	0	9,243382254797360E+004	1,0629516E+000	1,0623233E+000	-1,444670226402365E-001	1,000000000000000E+000	-1,2321898E-001	40	-1,5347068E-004
2	0	0	1	0	9,245381454322464E+004	1,0509565E+000	1,0503176E+000	-1,433979671758925E-001	1,000000000000000E+000	-1,2609854E-001	40	-1,5061341E-004
2	0	0	1	0	9,247380653849198E+004	1,0389613E+000	1,0383182E+000	-1,423164476788779E-001	1,000000000000000E+000	-1,2895565E-001	40	-1,4776975E-004
2	0	0	1	0	9,249379853379074E+004	1,0269660E+000	1,0263202E+000	-1,413827655413076E-001	1,000000000000000E+000	-1,3179280E-001	40	-1,4510399E-004
2	0	0	1	0	9,251379052902455E+004	1,0149709E+000	1,0143623E+000	-1,405198536360546E-001	1,000000000000000E+000	-1,3461222E-001	40	-1,4253805E-004
2	0	0	1	0	9,253378252431832E+004	1,0029756E+000	1,0023193E+000	-1,397204740296440E-001	1,000000000000000E+000	-1,3741463E-001	40	-1,4004453E-004
2	0	0	1	0	9,255127612018632E+004	1,0075738E+000	1,0069252E+000	-1,272685279130417E-001	1,000000000000000E+000	-1,3976105E-001	40	-1,2814988E-004
2	0	0	1	0	9,257126811542339E+004	1,0195690E+000	1,0189207E+000	-1,166618584663173E-001	1,000000000000000E+000	-1,4219221E-001	40	-1,1886917E-004
2	0	0	1	0	9,259126021073153E+004	1,0315641E+000	1,0309489E+000	-1,082250051914797E-001	1,000000000000000E+000	-1,4443603E-001	40	-1,1157445E-004
2	0	0	1	0	9,261125220598676E+004	1,0435593E+000	1,0428942E+000	-1,010812456748051E-001	1,000000000000000E+000	-1,4652503E-001	40	-1,0541705E-004
2	0	0	1	0	9,263124420125037E+004	1,0555545E+000	1,0549147E+000	-9,485063238682390E-002	1,000000000000000E+000	-1,4848082E-001	40	-1,0005933E-004
2	0	0	0	0	9,265123619655357E+004	1,0675497E+000	1,0669341E+000	-8,927376603460543E-002	1,000000000000000E+000	-1,5031885E-001	40	-9,5249226E-005
2	0	0	1	0	9,267122809178731E+004	1,0795449E+000	1,0788982E+000	-8,420774051045221E-002	1,000000000000000E+000	-1,5205032E-001	40	-9,0851579E-005
2	0	0	1	0	9,269122008707735E+004	1,0915402E+000	1,0908886E+000	-7,962702366876528E-002	1,000000000000000E+000	-1,5368538E-001	40	-8,6864216E-005
2	0	0	1	0	9,271121208235389E+004	1,1035354E+000	1,1029030E+000	-7,535934208038153E-002	1,000000000000000E+000	-1,5523294E-001	40	-8,3114042E-005
2	0	0	1	0	9,273120407759561E+004	1,1155306E+000	1,1148750E+000	-7,143289433421129E-002	1,000000000000000E+000	-1,5669848E-001	40	-7,9638747E-005
2	0	0	1	0	9,275119627290335E+004	1,1275258E+000	1,1268777E+000	-6,781288972800925E-002	1,000000000000000E+000	-1,5808888E-001	40	-7,6416829E-005
2	0	0	1	0	9,277118826815288E+004	1,1395210E+000	1,1388804E+000	-6,440664184036204E-002	1,000000000000000E+000	-1,5940842E-001	40	-7,3351461E-005
2	0	0	0	0	9,279118036342104E+004	1,1515162E+000	1,1508694E+000	-6,118820779950562E-002	1,000000000000000E+000	-1,6066164E-001	40	-7,0419635E-005
2	0	0	0	0	9,281117235871856E+004	1,1635115E+000	1,1628484E+000	-5,815900501475453E-002	1,000000000000000E+000	-1,6185318E-001	40	-6,7630106E-005
2	0	0	0	0	9,283116435395178E+004	1,1755066E+000	1,1748557E+000	-5,530641441606066E-002	1,000000000000000E+000	-1,6298570E-001	40	-6,4977059E-005
2	0	0	0	0	9,285115634924671E+004	1,1875018E+000	1,1868526E+000	-5,257002187916837E-002	1,000000000000000E+000	-1,6406205E-001	40	-6,2392864E-005
2	0	0	1	0	9,287114844451768E+004	1,1994971E+000	1,1988242E+000	-4,998541218010730E-002	1,000000000000000E+000	-1,6508569E-001	40	-5,9923721E-005
2	0	0	1	0	9,289114043976487E+004	1,2114923E+000	1,2108959E+000	-4,738209905966784E-002	1,000000000000000E+000	-1,6605757E-001	41	-5,7374789E-005
2	0	0	1	0	9,291113243507262E+004	1,2234875E+000	1,2228673E+000	-4,502080952226928E-002	1,000000000000000E+000	-1,6697985E-001	41	-5,5054472E-005
2	0	0	1	0	9,293112443031702E+004	1,2354827E+000	1,2348491E+000	-4,272259528023392E-002	1,000000000000000E+000	-1,6785534E-001	41	-5,2755957E-005
2	0	0	1	0	9,295111662559077E+004	1,2474779E+000	1,2468599E+000	-4,053098679921727E-002	1,000000000000000E+000	-1,6868596E-001	41	-5,0536462E-005
2	0	0	1	0	9,297110862088314E+004	1,2594732E+000	1,2588390E+000	-3,839776781611859E-002	1,000000000000000E+000	-1,6947328E-001	41	-4,8336609E-005
2	0	0	1	0	9,299110061611683E+004	1,2714683E+000	1,2708406E+000	-3,633595599696926E-002	1,000000000000000E+000	-1,7021860E-001	41	-4,6177211E-005
2	0	0	1	0	9,301109261141717E+004	1,2834636E+000	1,2828369E+000	-3,431392065299120E-002	1,000000000000000E+000	-1,7092331E-001	41	-4,4019165E-005
2	0	0	1	0	9,303108460668346E+004	1,2954587E+000	1,2948056E+000	-3,235673463694944E-002	1,000000000000000E+000	-1,7158827E-001	41	-4,1895684E-005
2	0	0	1	0	9,305107670193573E+004	1,3074540E+000	1,3067871E+000	-3,045979596309140E-002	1,000000000000000E+000	-1,7221487E-001	41	-3,9804469E-005
2	0	0	1	0	9,307106869724393E+004	1,3194493E+000	1,3188039E+000	-2,855302513594704E-002	1,000000000000000E+000	-1,7280319E-001	41	-3,7655842E-005
2	0	0	1	0	9,309106059248326E+004	1,3314443E+000	1,3308086E+000	-2,671021408487001E-002	1,000000000000000E+000	-1,7335422E-001	41	-3,5546185E-005
2	0	0	1	0	9,311105258776224E+004	1,3434395E+000	1,3427796E+000	-2,486311018148035E-002	1,000000000000000E+000	-1,7386845E-001	41	-3,3385677E-005
2	0	0	1	0	9,313104468304943E+004	1,3554347E+000	1,3547944E+000	-2,305346447721635E-002	1,000000000000000E+000	-1,7434603E-001	41	-3,1232703E-005
2	0	0	1	0	9,315103687828337E+004	1,3674300E+000	1,3668189E+000	-2,122931141409437E-002	1,000000000000000E+000	-1,7478724E-001	41	-2,9016624E-005
2	0	0	0	0	9,317102887358912E+004	1,3794249E+000	1,3787888E+000	-1,941893619333789E-002	1,000000000000000E+000	-1,7519212E-001	41	-2,6774613E-005
2	0	0	0	0	9,319102086884994E+004	1,3914201E+000	1,3907797E+000	-1,756633809187942E-002	1,000000000000000E+000	-1,7556027E-001	41	-2,4430907E-005
2	0	0	0	0	9,321101286410796E+004	1,4034154E+000	1,4028031E+000	-1,570828860206896E-002	1,000000000000000E+000	-1,7589159E-001	41	-2,2035636E-005
2	0	0	0	0	9,323100485941488E+004	1,4154105E+000	1,4147797E+000	-1,381251830536656E-002	1,000000000000000E+000	-1,7618534E-001	41	-1,9541671E-005
2	0	0	1	0	9,325099675465026E+004	1,4274058E+000	1,4267647E+000	-1,187306425182746E-002	1,000000000000000E+000	-1,7644076E-001	41	-1,6940070E-005
2	0	0	1	0	9,327098874993436E+004	1,4394010E+000	1,4387553E+000	-9,879498785715736E-003	1,000000000000000E+000	-1,7665707E-001	41	-1,4214181E-005
2	0	0	1	0	9,329098074521637E+004	1,4513962E+000	1,4507576E+000	-7,827940140281042E-003	1,000000000000000E+000	-1,7683284E-001	41	-1,1356444E-005
2	0	0	1	0	9,331097284045280E+004	1,4633917E+000	1,4627745E+000	-5,681329828140048E-003	1,000000000000000E+000	-1,7696670E-001	41	-8,3105042E-006
2	0	0	1	0	9,333096483576065E+004	1,4753867E+000	1,4747727E+000	-3,456223523134508E-003	1,000000000000000E+000	-1,7705667E-001	42	-5,0971439E-006
2	0	0	0	0	9,335095703101577E+004	1,4873819E+000	1,4867688E+000	-1,127497957021651E-003	1,000000000000000E+000	-1,7710130E-001	42	-1,6763288E-006
2	1	0	0	0	9,337094902627869E+004	1,4993771E+000	1,4987131E+000	1,335398700810616E-003	1,000000000000000E+000	-1,7709851E-001	42	2,0013795E-006
2	1	0	1	0	9,339094112158241E+004	1,5113721E+000	1,5106512E+000	3,926449348706514E-003	1,000000000000000E+000	-1,7704484E-001	42	5,9314957E-006
2	1	0	1	0	9,341093311681529E+004	1,5233675E+000	1,5226672E+000	6,747308896606241E-003	1,000000000000000E+000	-1,7693707E-001	42	1,0273906E-005
2	1	0	1	0	9,343092511210451E+004	1,5353627E+000	1,5346279E+000	9,789966800071853E-003	1,000000000000000E+000	-1,7677082E-001	42	1,5023957E-005
2	1	0	1	0	9,345091710738116E+004	1,5473579E+000	1,5467117E+000	1,323217206452254E-002	1,000000000000000E+000	-1,7653899E-001	41	2,0466356E-005
2	1	0	1	0	9,347090910262289E+004	1,5593531E+000	1,5586916E+000	1,688043930975508E-002	1,000000000000000E+000	-1,7623687E-001	41	2,6311400E-005
2	1	0	1	0	9,349090109793097E+004	1,5713484E+000	1,5706692E+000	2,094927555318038E-002	1,000000000000000E+000	-1,7585792E-001	41	3,2904380E-005
2	1	0	1	0	9,351089309318154E+004	1,5833436E+000	1,5826588E+000	2,587738831036998E-002	1,000000000000000E+000	-1,7539030E-001	41	4,0955074E-005
2	1	0	1	0	9,353088508844981E+004	1,5953388E+000	1,5946697E+000	3,238696585025444E-002	1,000000000000000E+000	-1,7480932E-001	41	5,1646512E-005
2	1	0	1	0	9,355087728374824E+004	1,6073340E+000	1,6066356E+000	4,054937803071246E-002	1,000000000000000E+000	-1,7408097E-001	41	6,5148073E-005
2	1	0	1	0	9,357086937898188E+004	1,6193291E+000	1,6186243E+000	4,985549066971684E-002	1,000000000000000E+000	-1,7317688E-001	41	8,0697311E-005
2	1	0	1	0	9,359086137427669E+004	1,6313243E+000	1,6305828E+000	5,971203957721016E-002	1,000000000000000E+000	-1,7208037E-001	41	9,7365424E-005
2	1	0	1	0	9,361085336954857E+004	1,6433197E+000	1,6426023E+000	6,980752884278491E-002	1,000000000000000E+000	-1,7078401E-001	41	1,1466601E-004
2	1	0	1	0	9,363084536479542E+004	1,6553149E+000	1,6545658E+000	7,987977471663354E-002	1,000000000000000E+000	-1,6928607E-001	41	1,3216634E-004
2	1	0	1	0	9,365083746010368E+004	1,6673101E+000	1,6665505E+000	8,988846792997382E-002	1,000000000000000E+000	-1,6758732E-001	41	1,4980367E-004
2	1	0	1	0	9,367082935534848E+004	1,6793051E+000	1,6785861E+000	9,968194850413736E-002	1,000000000000000E+000	-1,6569048E-001	41	1,6732473E-004
2	1	0	1	0	9,369082135062176E+004	1,6913003E+000	1,6906635E+000	1,091249100019600E-001	1,000000000000000E+000	-1,6360119E-001	40	1,8449350E-004
2	1	0	1	0	9,371081334591465E+004	1,7032954E+000	1,7026501E+000	1,183312633858196E-001	1,000000000000000E+000	-1,6132532E-001	40	2,0147674E-004
2	1	0	1	0	9,373080544114800E+004	1,7152907E+000	1,7146252E+000	1,271848370312150E-001	1,000000000000000E+000	-1,5886858E-001	40	2,1807433E-004
2	1	0	1	0	9,375079763644736E+004	1,7272859E+000	1,7266282E+000	1,356521240340022E-001	1,000000000000000E+000	-1,5623872E-001	40	2,3422077E-004
2	1	0	1	0	9,377078963171365E+004	1,7392811E+000	1,7386059E+000	1,435557012680048E-001	1,000000000000000E+000	-1,5344517E-001	40	2,4958680E-004
2	1	0	1	0	9,379078162696553E+004	1,7512763E+000	1,7506223E+000	1,509789368237215E-001	1,000000000000000E+000	-1,5049861E-001	40	2,6430708E-004
2	1	0	1	0	9,381077362227328E+004	1,7632716E+000	1,7625856E+000	1,577890041797398E-001	1,000000000000000E+000	-1,4740975E-001	40	2,7811664E-004
2	1	0	1	0	9,383076561751303E+004	1,7752668E+000	1,7746172E+000	1,641542662397990E-001	1,000000000000000E+000	-1,4418897E-001	40	2,9131098E-004
2	1	0	1	0	9,385075761279165E+004	1,7872620E+000	1,7865866E+000	1,699308814277449E-001	1,000000000000000E+000	-1,4084676E-001	40	3,0359623E-004
2	1	0	1	0	9,387074960807938E+004	1,7992572E+000	1,7986096E+000	1,751497582773776E-001	1,000000000000000E+000	-1,3739468E-001	40	3,1502603E-004
2	1	0	1	0	9,389074160331261E+004	1,8112524E+000	1,8106055E+000	1,798213177596777E-001	1,000000000000000E+000	-1,3384397E-001	40	3,2558548E-004
2	1	0	1	0	9,391073359861755E+004	1,8232477E+000	1,8226014E+000	1,838686225819801E-001	1,000000000000000E+000	-1,3020648E-001	40	3,3511923E-004
2	1	0	1	0	9,393072559387871E+004	1,8352427E+000	1,8346003E+000	1,874178709150005E-001	1,000000000000000E+000	-1,2649317E-001	40	3,4383690E-004
2	1	0	1	0	9,395071778913570E+004	1,8472377E+000	1,8465540E+000	1,903637000774197E-001	1,000000000000000E+000	-1,2271470E-001	40	3,5151685E-004
2	1	0	1	0	9,397070978444256E+004	1,8592329E+000	1,8585651E+000	1,927609012515874E-001	1,000000000000000E+000	-1,1888214E-001	40	3,5825869E-004
2	1	0	1	0	9,399070187967806E+004	1,8712285E+000	1,8705459E+000	1,945150406789846E-001	1,000000000000000E+000	-1,1500850E-001	40	3,6384931E-004
2	1	0	1	0	9,401069387496158E+004	1,8832235E+000	1,8825773E+000	1,957849489353007E-001	1,000000000000000E+000	-1,1110514E-001	40	3,6858031E-004
2	1	0	1	0	9,403068587024417E+004	1,8952188E+000	1,8945413E+000	1,964416672106477E-001	1,000000000000000E+000	-1,0718172E-001	40	3,7216683E-004
2	1	0	1	0	9,405067786548054E+004	1,9072142E+000	1,9065299E+000	1,963918956597076E-001	1,000000000000000E+000	-1,0325272E-001	40	3,7442704E-004
2	1	0	1	0	9,407066996078845E+004	1,9192094E+000	1,9185588E+000	1,957695939481615E-001	1,000000000000000E+000	-9,9330440E-002	40	3,7559550E-004
2	1	0	1	0	9,409066195604461E+004	1,9312046E+000	1,9305464E+000	1,944313449349995E-001	1,000000000000000E+000	-9,5427588E-002	40	3,7535874E-004
2	1	0	1	0	9,411065395130729E+004	1,9431998E+000	1,9425055E+000	1,924534672895994E-001	1,000000000000000E+000	-9,1557801E-002	40	3,7384190E-004
2	1	0	1	0	9,413064594661142E+004	1,9551948E+000	1,9545358E+000	1,898752130171795E-001	1,000000000000000E+000	-8,7733962E-002	40	3,7111790E-004
2	1	0	1	0	9,415063814184512E+004	1,9671901E+000	1,9665096E+000	1,866494629430271E-001	1,000000000000000E+000	-8,3967604E-002	40	3,6704796E-004
2	1	0	1	0	9,417063013713434E+004	1,9791851E+000	1,9785373E+000	1,828805763007124E-001	1,000000000000000E+000	-8,0271229E-002	40	3,6183605E-004
2	1	0	1	0	9,419062213241193E+004	1,9911805E+000	1,9905576E+000	1,784201659021099E-001	1,000000000000000E+000	-7,6657549E-002	40	3,5515561E-004
2	1	0	1	0	9,421061422765302E+004	2,0031755E+000	2,0025313E+000	1,733509226030394E-001	1,000000000000000E+000	-7,3139712E-002	40	3,4714065E-004
2	1	0	1	0	9,423060612296104E+004	2,0151708E+000	2,0145185E+000	1,677360186635588E-001	1,000000000000000E+000	-6,9728352E-002	40	3,3790732E-004
2	1	0	1	0	9,425059811821161E+004	2,0271659E+000	2,0265238E+000	1,617231697979837E-001	1,000000000000000E+000	-6,6433191E-002	40	3,2773585E-004
2	1	0	1	0	9,427059031347884E+004	2,0391612E+000	2,0385103E+000	1,551471196374294E-001	1,000000000000000E+000	-6,3263945E-002	40	3,1626900E-004
2	1	0	1	0	9,429058210877748E+004	2,0511563E+000	2,0505111E+000	1,482550771018418E-001	1,000000000000000E+000	-6,0229450E-002	40	3,0399868E-004
2	1	0	1	0	9,431057430401049E+004	2,0631518E+000	2,0624952E+000	1,410155317820327E-001	1,000000000000000E+000	-5,7336241E-002	40	2,9084386E-004
2	1	0	1	0	9,433056629930460E+004	2,0751472E+000	2,0744932E+000	1,335896884805285E-001	1,000000000000000E+000	-5,4590087E-002	40	2,7713089E-004
2	1	0	1	0	9,435055849457672E+004	2,0871420E+000	2,0864961E+000	1,261238136904148E-001	1,000000000000000E+000	-5,1992636E-002	40	2,6315683E-004
2	1	0	1	0	9,437055038982281E+004	2,0991368E+000	2,0985186E+000	1,186565272215108E-001	1,000000000000000E+000	-4,9544837E-002	40	2,4900294E-004
2	1	0	1	0	9,439054238513066E+004	2,1111324E+000	2,1105433E+000	1,113508398612300E-001	1,000000000000000E+000	-4,7244977E-002	40	2,3501077E-004
2	1	0	1	0	9,441053438037611E+004	2,1231275E+000	2,1225016E+000	1,042574315203826E-001	1,000000000000000E+000	-4,5089420E-002	40	2,2128657E-004
2	1	0	1	0	9,443052637564903E+004	2,1351228E+000	2,1344707E+000	9,774654099661428E-002	1,000000000000000E+000	-4,3070041E-002	40	2,0863712E-004
2	1	0	1	0	9,445051837094245E+004	2,1471179E+000	2,1465037E+000	9,169083352505347E-002	1,000000000000000E+000	-4,1176405E-002	40	1,9681471E-004
2	1	0	1	0	9,447051036617602E+004	2,1591134E+000	2,1584642E+000	8,621240859539392E-002	1,000000000000000E+000	-3,9398022E-002	40	1,8608640E-004
2	1	0	1	0	9,449050256147538E+004	2,1711085E+000	2,1704872E+000	8,139110452214071E-002	1,000000000000000E+000	-3,7722431E-002	40	1,7665834E-004
2	1	0	1	0	9,451049435674283E+004	2,1831036E+000	2,1824796E+000	7,697955668047074E-002	1,000000000000000E+000	-3,6139101E-002	40	1,6800631E-004
2	1	0	1	0	9,453048655199423E+004	2,1950989E+000	2,1944764E+000	7,299897924283771E-002	1,000000000000000E+000	-3,4639586E-002	40	1,6019454E-004
2	1	0	1	0	9,455047894730233E+004	2,2070940E+000	2,2064486E+000	6,939525211206377E-002	1,000000000000000E+000	-3,3215296E-002	40	1,5311706E-004
2	1	0	1	0	9,457047094254266E+004	2,2190890E+000	2,2184396E+000	6,606327877087081E-002	1,000000000000000E+000	-3,1860311E-002	40	1,4655739E-004
2	1	0	1	0	9,459046293782070E+004	2,2310843E+000	2,2304664E+000	6,302618316671288E-002	1,000000000000000E+000	-3,0568929E-002	40	1,4057779E-004
2	1	0	1	0	9,461045493310888E+004	2,2430797E+000	2,2424657E+000	6,013596788120248E-002	1,000000000000000E+000	-2,9336361E-002	40	1,3485285E-004
2	1	0	1	0	9,463044692834269E+004	2,2550747E+000	2,2544479E+000	5,745595608101584E-002	1,000000000000000E+000	-2,8160177E-002	40	1,2953146E-004
2	1	0	1	0	9,465043892364763E+004	2,2670701E+000	2,2664716E+000	5,490662325547924E-002	1,000000000000000E+000	-2,7036043E-002	40	1,2444430E-004
2	1	0	1	0	9,467043091890926E+004	2,2790651E+000	2,2784672E+000	5,256120521292490E-002	1,000000000000000E+000	-2,5960946E-002	40	1,1975898E-004
2	1	0	1	0	9,469042291416624E+004	2,2910604E+000	2,2904444E+000	5,044195282192210E-002	1,000000000000000E+000	-2,4930507E-002	40	1,1553449E-004
2	1	0	1	0	9,471041510947363E+004	2,3030560E+000	2,3024819E+000	4,850398571624359E-002	1,000000000000000E+000	-2,3940356E-002	40	1,1167955E-004
2	1	0	1	0	9,473057350466866E+004	2,3151505E+000	2,3145034E+000	4,689498560680228E-002	1,000000000000000E+000	-2,2976683E-002	41	1,0853860E-004
2	1	0	1	0	9,475056589995255E+004	2,3271461E+000	2,3264880E+000	4,534082634499670E-002	1,000000000000000E+000	-2,2053789E-002	41	1,0548489E-004
2	1	0	1	0	9,477055789523525E+004	2,3391409E+000	2,3385010E+000	4,392348476096686E-002	1,000000000000000E+000	-2,1160519E-002	41	1,0271512E-004
2	1	0	1	0	9,479054989047162E+004	2,3511364E+000	2,3504717E+000	4,262439388629402E-002	1,000000000000000E+000	-2,0294089E-002	41	1,0018743E-004
2	1	0	1	0	9,481054188577970E+004	2,3631315E+000	2,3624616E+000	4,150914649977899E-002	1,000000000000000E+000	-1,9452108E-002	41	9,8063763E-005
2	1	0	1	0	9,483053388103587E+004	2,3751268E+000	2,3744583E+000	4,043511688163702E-002	1,000000000000000E+000	-1,8632188E-002	41	9,6011499E-005
2	1	0	1	0	9,485052607629844E+004	2,3871222E+000	2,3864727E+000	3,948665728930378E-002	1,000000000000000E+000	-1,7832248E-002	41	9,4233830E-005
2	1	0	1	0	9,487051787160221E+004	2,3991175E+000	2,3984752E+000	3,861915218766265E-002	1,000000000000000E+000	-1,7050171E-002	41	9,2627080E-005
2	1	0	1	0	9,489051006683568E+004	2,4111123E+000	2,4104824E+000	3,790703100920345E-002	1,000000000000000E+000	-1,6283836E-002	41	9,1374233E-005
2	1	0	1	0	9,491050206212443E+004	2,4231074E+000	2,4224970E+000	3,725645213109929E-002	1,000000000000000E+000	-1,5531204E-002	41	9,0253641E-005
2	1	0	1	0	9,493049405740143E+004	2,4351027E+000	2,4344800E+000	3,667337553915029E-002	1,000000000000000E+000	-1,4790713E-002	41	8,9280598E-005
2	1	0	1	0	9,495048645264260E+004	2,4470978E+000	2,4464464E+000	3,613030608839396E-002	1,000000000000000E+000	-1,4061544E-002	41	8,8390858E-005
2	1	0	1	0	9,497047844795033E+004	2,4590931E+000	2,4584529E+000	3,557423455594372E-002	1,000000000000000E+000	-1,3343295E-002	41	8,7457578E-005
2	1	0	1	0	9,499047044320079E+004	2,4710879E+000	2,4704318E+000	3,501219037367109E-002	1,000000000000000E+000	-1,2636290E-002	41	8,6495231E-005
2	1	0	1	0	9,501046243846870E+004	2,4830837E+000	2,4824524E+000	3,446167774441888E-002	1,000000000000000E+000	-1,1940326E-002	41	8,5549473E-005
2	1	0	1	0	9,503045443376713E+004	2,4950786E+000	2,4944217E+000	3,385880987906925E-002	1,000000000000000E+000	-1,1256312E-002	41	8,4458152E-005
2	1	0	1	0	9,505044642900035E+004	2,5070739E+000	2,5064211E+000	3,327616779829068E-002	1,000000000000000E+000	-1,0583886E-002	41	8,3404091E-005
2	1	0	1	0	9,507043852429464E+004	2,5190694E+000	2,5184619E+000	3,269519303457137E-002	1,000000000000000E+000	-9,9227875E-003	41	8,2341598E-005
2	1	0	1	0	9,509043031956651E+004	2,5310645E+000	2,5303953E+000	3,212510725316065E-002	1,000000000000000E+000	-9,2732646E-003	41	8,1289218E-005
2	1	0	1	0	9,511042251481279E+004	2,5430598E+000	2,5424378E+000	3,160232185805478E-002	1,000000000000000E+000	-8,6345961E-003	41	8,0346937E-005
2	1	0	1	0	9,513041451012055E+004	2,5550551E+000	2,5544126E+000	3,102541255850771E-002	1,000000000000000E+000	-8,0072451E-003	41	7,9251702E-005
2	1	0	1	0	9,515040690536588E+004	2,5670502E+000	2,5663786E+000	3,046862852125598E-002	1,000000000000000E+000	-7,3911669E-003	41	7,8194033E-005
2	1	0	1	0	9,517039890063868E+004	2,5790455E+000	2,5784004E+000	2,991436533382213E-002	1,000000000000000E+000	-6,7861672E-003	41	7,7131212E-005
2	1	0	1	0	9,519039089593201E+004	2,5910406E+000	2,5904038E+000	2,939156170665047E-002	1,000000000000000E+000	-6,1922325E-003	41	7,6136013E-005
2	1	0	1	0	9,521038279116570E+004	2,6030354E+000	2,6024113E+000	2,887257913525047E-002	1,000000000000000E+000	-5,6088869E-003	41	7,5138327E-005
2	1	0	1	0	9,523037478646507E+004	2,6150310E+000	2,6144340E+000	2,843296989595079E-002	1,000000000000000E+000	-5,0347606E-003	41	7,4336123E-005
2	1	0	1	0	9,525036678173183E+004	2,6270258E+000	2,6264019E+000	2,808437636669417E-002	1,000000000000000E+000	-4,4688149E-003	41	7,3760857E-005
2	1	0	1	0	9,527035877698369E+004	2,6390214E+000	2,6384015E+000	2,767446729540102E-002	1,000000000000000E+000	-3,9102007E-003	41	7,3016359E-005
2	1	0	1	0	9,529035077229189E+004	2,6510162E+000	2,6503849E+000	2,729083196141444E-002	1,000000000000000E+000	-3,3596302E-003	41	7,2331211E-005
2	1	0	1	0	9,531034276753210E+004	2,6630118E+000	2,6623900E+000	2,679170062929434E-002	1,000000000000000E+000	-2,8175511E-003	41	7,1329952E-005
2	1	0	1	0	9,533033496281051E+004	2,6750071E+000	2,6743815E+000	2,631333200165525E-002	1,000000000000000E+000	-2,2853371E-003	41	7,0371891E-005
2	1	0	1	0	9,535032715809869E+004	2,6870017E+000	2,6863713E+000	2,587885649794458E-002	1,000000000000000E+000	-1,7620918E-003	41	6,9520218E-005
2	1	0	1	0	9,537031935333239E+004	2,6989975E+000	2,6983786E+000	2,544673632843092E-002	1,000000000000000E+000	-1,2478511E-003	41	6,8664929E-005
2	1	0	1	0	9,539031134863698E+004	2,7109923E+000	2,7103758E+000	2,503460506561672E-002	1,000000000000000E+000	-7,4197160E-004	41	6,7853187E-005
2	1	0	1	0	9,541030334389862E+004	2,7229877E+000	2,7223558E+000	2,462805325169837E-002	1,000000000000000E+000	-2,4429496E-004	41	6,7046327E-005
2	1	0	1	0	9,543029533915513E+004	2,7349825E+000	2,7343774E+000	2,426520920304179E-002	1,000000000000000E+000	2,4580609E-004	41	6,6350236E-005
2	1	0	1	0	9,545028733446216E+004	2,7469780E+000	2,7463660E+000	2,394558083372525E-002	1,000000000000000E+000	7,2923431E-004	41	6,5763328E-005
2	1	0	1	0	9,547027932969749E+004	2,7589729E+000	2,7583761E+000	2,366155192019750E-002	1,000000000000000E+000	1,2063128E-003	41	6,5267457E-005
2	1	0	1	0	9,549027132498077E+004	2,7709687E+000	2,7703507E+000	2,339955697714191E-002	1,000000000000000E+000	1,6779638E-003	41	6,4824977E-005
2	1	0	1	0	9,551026332026348E+004	2,7829638E+000	2,7823570E+000	2,317870556286819E-002	1,000000000000000E+000	2,1449502E-003	41	6,4491433E-005
2	1	0	1	0	9,553025531549938E+004	2,7949591E+000	2,7943251E+000	2,300723816326822E-002	1,000000000000000E+000	2,6078965E-003	41	6,4289707E-005
2	1	0	1	0	9,555024771080678E+004	2,8069539E+000	2,8063211E+000	2,289201368493887E-002	1,000000000000000E+000	3,0680993E-003	41	6,4242340E-005
2	1	0	1	0	9,557023970606294E+004	2,8189492E+000	2,8183317E+000	2,281323876224511E-002	1,000000000000000E+000	3,5263265E-003	41	6,4295273E-005
2	1	0	1	0	9,559023190132505E+004	2,8309445E+000	2,8303297E+000	2,274894409301442E-002	1,000000000000000E+000	3,9830962E-003	41	6,4387008E-005
2	1	0	1	0	9,561022359662945E+004	2,8429396E+000	2,8423104E+000	2,266989813656548E-002	1,000000000000000E+000	4,4383998E-003	41	6,4434891E-005
2	1	0	1	0	9,563021579186269E+004	2,8549347E+000	2,8543358E+000	2,256094388738189E-002	1,000000000000000E+000	4,8918189E-003	41	6,4396510E-005
2	1	0	1	0	9,565020778715145E+004	2,8669302E+000	2,8662941E+000	2,245200249719354E-002	1,000000000000000E+000	5,3431774E-003	41	6,4354041E-005
2	1	0	1	0	9,567019978242950E+004	2,8789251E+000	2,8783100E+000	2,236288114271090E-002	1,000000000000000E+000	5,7925782E-003	41	6,4367305E-005
2	1	0	1	0	9,569019177767029E+004	2,8909204E+000	2,8903184E+000	2,225273278452713E-002	1,000000000000000E+000	6,2401118E-003	41	6,4317486E-005
2	1	0	1	0	9,571018377297884E+004	2,9029157E+000	2,9023132E+000	2,214578802137146E-002	1,000000000000000E+000	6,6853887E-003	41	6,4274012E-005
2	1	0	1	0	9,573017576822964E+004	2,9149108E+000	2,9143410E+000	2,200637126840588E-002	1,000000000000000E+000	7,1282461E-003	41	6,4134067E-005
2	1	0	1	0	9,575016806349671E+004	2,9269061E+000	2,9263515E+000	2,181498788656727E-002	1,000000000000000E+000	7,5676786E-003	41	6,3838321E-005
2	1	0	1	0	9,577016005879594E+004	2,9389012E+000	2,9383256E+000	2,156335399826992E-002	1,000000000000000E+000	8,0027133E-003	41	6,3360159E-005
2	1	0	1	0	9,579015205402998E+004	2,9508965E+000	2,9503298E+000	2,141023069573339E-002	1,000000000000000E+000	8,4336950E-003	41	6,3167245E-005
2	1	0	1	0	9,581014404932340E+004	2,9628916E+000	2,9623125E+000	2,126168209676238E-002	1,000000000000000E+000	8,8615147E-003	41	6,2983745E-005
2	1	0	1	0	9,583013604459586E+004	2,9748869E+000	2,9742992E+000	2,116748847914651E-002	1,000000000000000E+000	9,2870425E-003	41	6,2958447E-005
2	1	0	1	0	9,585012823984213E+004	2,9868822E+000	2,9862938E+000	2,113841936307226E-002	1,000000000000000E+000	9,7112171E-003	41	6,3125532E-005
2	1	0	1	0	9,587012003515032E+004	2,9988773E+000	2,9982815E+000	2,114762206005799E-002	1,000000000000000E+000	1,0135232E-002	41	6,3406522E-005
2	1	0	1	1	9,588794643091143E+004	2,9904804E+000	2,9898667E+000	1,556492308571212E-002	1,000000000000000E+000	1,0447812E-002	41	4,6537047E-005
2	1	0	1	1	9,590793842617591E+004	2,9784853E+000	2,9778929E+000	1,327492793686808E-002	1,000000000000000E+000	1,0733040E-002	41	3,9531315E-005
2	1	0	1	1	9,592793042147759E+004	2,9664907E+000	2,9659367E+000	1,162091035810858E-002	1,000000000000000E+000	1,0979580E-002	41	3,4466884E-005
2	1	0	1	1	9,594792261671083E+004	2,9544950E+000	2,9539120E+000	1,031862656026863E-002	1,000000000000000E+000	1,1196977E-002	41	3,0480314E-005
2	1	0	1	1	9,596791441200182E+004	2,9425001E+000	2,9419298E+000	9,233879193788624E-003	1,000000000000000E+000	1,1390601E-002	41	2,7165424E-005
2	1	0	1	1	9,598790660727743E+004	2,9305046E+000	2,9299319E+000	8,318326731201697E-003	1,000000000000000E+000	1,1564390E-002	41	2,4372132E-005
2	1	0	1	1	9,600789860252042E+004	2,9185092E+000	2,9179060E+000	7,526480983998704E-003	1,000000000000000E+000	1,1721214E-002	41	2,1961565E-005
2	1	0	1	1	9,602789059782863E+004	2,9065142E+000	2,9059157E+000	6,814136210595064E-003	1,000000000000000E+000	1,1863139E-002	41	1,9801306E-005
2	1	0	1	1	9,604788259307724E+004	2,8945189E+000	2,8939495E+000	6,218291492339267E-003	1,000000000000000E+000	1,1992058E-002	41	1,7995422E-005
2	1	0	1	1	9,606787458834681E+004	2,8825243E+000	2,8819568E+000	5,665866524786817E-003	1,000000000000000E+000	1,2109324E-002	41	1,6328782E-005
2	1	0	1	1	9,608786658364336E+004	2,8705282E+000	2,8699439E+000	5,154071331667519E-003	1,000000000000000E+000	1,2215975E-002	41	1,4791895E-005
2	1	0	1	1	9,610785857887706E+004	2,8585334E+000	2,8578913E+000	4,715692721584564E-003	1,000000000000000E+000	1,2313195E-002	42	1,3476937E-005
2	1	0	1	1	9,612785057417362E+004	2,8465378E+000	2,8458865E+000	4,315613222809517E-003	1,000000000000000E+000	1,2402002E-002	42	1,2281746E-005
2	1	0	1	1	9,614784256944363E+004	2,8345430E+000	2,8339069E+000	3,952054649035128E-003	1,000000000000000E+000	1,2483196E-002	42	1,1199755E-005
2	1	0	1	1	9,616783456469222E+004	2,8225479E+000	2,8219109E+000	3,642759675476434E-003	1,000000000000000E+000	1,2557558E-002	42	1,0279543E-005
2	1	0	1	1	9,618782656000042E+004	2,8105526E+000	2,8099229E+000	3,339042885271597E-003	1,000000000000000E+000	1,2625710E-002	42	9,3824528E-006
2	1	0	1	1	9,620781875524390E+004	2,7985573E+000	2,7979305E+000	3,079941844354422E-003	1,000000000000000E+000	1,2688380E-002	42	8,6174632E-006
2	1	0	1	1	9,622781045051874E+004	2,7865622E+000	2,7859154E+000	2,831443295258890E-003	1,000000000000000E+000	1,2746023E-002	42	7,8881612E-006
2	1	0	1	1	9,624780264581018E+004	2,7745669E+000	2,7739594E+000	2,622494996843149E-003	1,000000000000000E+000	1,2799156E-002	42	7,2746948E-006
2	1	0	1	1	9,626779464104353E+004	2,7625718E+000	2,7619386E+000	2,414479831095901E-003	1,000000000000000E+000	1,2848091E-002	42	6,6686448E-006
2	1	0	1	1	9,628778663634486E+004	2,7505765E+000	2,7499578E+000	2,225859506926102E-003	1,000000000000000E+000	1,2893155E-002	42	6,1210199E-006
2	1	0	1	1	9,630777863160986E+004	2,7385812E+000	2,7380066E+000	2,056346756473069E-003	1,000000000000000E+000	1,2934613E-002	42	5,6302911E-006
2	1	0	1	1	9,632777062686323E+004	2,7265861E+000	2,7259583E+000	1,876016703253566E-003	1,000000000000000E+000	1,2972565E-002	42	5,1139432E-006
2	1	0	1	1	9,634776262217131E+004	2,7145910E+000	2,7139890E+000	1,695940716207585E-003	1,000000000000000E+000	1,3007047E-002	42	4,6027644E-006
2	1	0	1	1	9,636775461740932E+004	2,7025957E+000	2,7020128E+000	1,529237767379107E-003	1,000000000000000E+000	1,3038110E-002	42	4,1320200E-006
2	1	0	1	1	9,638774661268923E+004	2,6906009E+000	2,6900158E+000	1,353258075602999E-003	1,000000000000000E+000	1,3065698E-002	42	3,6402855E-006
2	1	0	1	1	9,640773850797513E+004	2,6786053E+000	2,6780436E+000	1,176273218707562E-003	1,000000000000000E+000	1,3089724E-002	42	3,1501111E-006
2	1	0	1	1	9,642773050320940E+004	2,6666100E+000	2,6660306E+000	9,762862208745945E-004	1,000000000000000E+000	1,3109923E-002	42	2,6028090E-006
2	1	0	1	1	9,644772249851516E+004	2,6546152E+000	2,6540515E+000	7,546118552871491E-004	1,000000000000000E+000	1,3125899E-002	42	2,0027787E-006
2	1	0	1	1	9,646771469377493E+004	2,6426198E+000	2,6419768E+000	5,002050773620986E-004	1,000000000000000E+000	1,3137037E-002	43	1,3215302E-006
2	1	0	1	1	9,648770648903376E+004	2,6306248E+000	2,6300211E+000	2,016786694011485E-004	1,000000000000000E+000	1,3142923E-002	43	5,3041913E-007
2	0	0	1	1	9,650769868434034E+004	2,6186295E+000	2,6181014E+000	-9,410520591324301E-005	1,000000000000000E+000	1,3142950E-002	43	-2,4637697E-007
2	0	0	1	1	9,652769047957542E+004	2,6066344E+000	2,6060805E+000	-3,554046467084092E-004	1,000000000000000E+000	1,3137265E-002	43	-9,2621315E-007
2	0	0	1	1	9,654768267486081E+004	2,5946393E+000	2,5941074E+000	-5,601127214437725E-004	1,000000000000000E+000	1,3127005E-002	43	-1,4529926E-006
2	0	0	1	1	9,656767467014212E+004	2,5826437E+000	2,5821497E+000	-6,807853432967735E-004	1,000000000000000E+000	1,3113664E-002	43	-1,7578897E-006
2	0	0	1	1	9,658766666537966E+004	2,5706489E+000	2,5701466E+000	-8,051416722374798E-004	1,000000000000000E+000	1,3097777E-002	43	-2,0693321E-006
2	0	0	1	1	9,660765866068797E+004	2,5586534E+000	2,5580904E+000	-9,230618265365798E-004	1,000000000000000E+000	1,3079238E-002	42	-2,3612756E-006
2	0	0	1	1	9,662765065594227E+004	2,5466583E+000	2,5460854E+000	-1,066974724208534E-003	1,000000000000000E+000	1,3058033E-002	42	-2,7166088E-006
2	0	0	1	1	9,664764265120635E+004	2,5346627E+000	2,5341330E+000	-1,227561832395571E-003	1,000000000000000E+000	1,3033837E-002	42	-3,1108050E-006
2	0	0	1	1	9,666763464650849E+004	2,5226679E+000	2,5221090E+000	-1,397570859107234E-003	1,000000000000000E+000	1,3006371E-002	42	-3,5248261E-006
2	0	0	1	1	9,668762664174230E+004	2,5106723E+000	2,5100918E+000	-1,562559733534734E-003	1,000000000000000E+000	1,2975541E-002	42	-3,9221682E-006
2	0	0	1	1	9,670761863703246E+004	2,4986775E+000	2,4981260E+000	-1,721042756106558E-003	1,000000000000000E+000	1,2941474E-002	42	-4,2993815E-006
2	0	0	1	1	9,672761083230807E+004	2,4866822E+000	2,4860866E+000	-1,886225954606725E-003	1,000000000000000E+000	1,2904177E-002	42	-4,6893210E-006
2	0	0	1	1	9,674760262755060E+004	2,4746871E+000	2,4740949E+000	-2,052961867988192E-003	1,000000000000000E+000	1,2863534E-002	42	-5,0792223E-006
2	0	0	1	1	9,676759482285834E+004	2,4626918E+000	2,4621444E+000	-2,218475768478705E-003	1,000000000000000E+000	1,2819613E-002	42	-5,4622078E-006
2	0	0	1	1	9,678758681810746E+004	2,4506965E+000	2,4501045E+000	-2,399547055628903E-003	1,000000000000000E+000	1,2772017E-002	42	-5,8791411E-006
2	0	0	1	1	9,680757871337654E+004	2,4387014E+000	2,4381495E+000	-2,577331837527776E-003	1,000000000000000E+000	1,2721058E-002	42	-6,2839204E-006
2	0	0	1	1	9,682757070867383E+004	2,4267063E+000	2,4261723E+000	-2,742362828755701E-003	1,000000000000000E+000	1,2666442E-002	42	-6,6534444E-006
2	0	0	1	1	9,684756270390705E+004	2,4147110E+000	2,4141552E+000	-2,893588450347935E-003	1,000000000000000E+000	1,2608586E-002	42	-6,9855719E-006
2	0	0	1	1	9,686755469920268E+004	2,4027157E+000	2,4021785E+000	-3,031949573489047E-003	1,000000000000000E+000	1,2547960E-002	42	-7,2832840E-006
2	0	0	1	1	9,688754669447317E+004	2,3907206E+000	2,3901880E+000	-3,129402068452414E-003	1,000000000000000E+000	1,2485116E-002	42	-7,4798591E-006
2	0	0	1	1	9,690753868972085E+004	2,3787255E+000	2,3781841E+000	-3,234133424057373E-003	1,000000000000000E+000	1,2420268E-002	42	-7,6913648E-006
2	0	0	1	1	9,692753068502859E+004	2,3667300E+000	2,3661828E+000	-3,320193742589170E-003	1,000000000000000E+000	1,2353505E-002	42	-7,8561852E-006
2	0	0	1	1	9,694752268027206E+004	2,3547354E+000	2,3541901E+000	-3,417176303983652E-003	1,000000000000000E+000	1,2284824E-002	42	-8,0446825E-006
2	0	0	1	1	9,696751467554626E+004	2,3427401E+000	2,3422239E+000	-3,516901408401170E-003	1,000000000000000E+000	1,2214120E-002	42	-8,2373708E-006
2	0	0	1	1	9,698750687083817E+004	2,3307445E+000	2,3301904E+000	-3,637130932417756E-003	1,000000000000000E+000	1,2141266E-002	42	-8,4752073E-006
2	0	0	1	1	9,700749856607185E+004	2,3187497E+000	2,3182147E+000	-3,751131561691198E-003	1,000000000000000E+000	1,2066130E-002	42	-8,6959280E-006
2	0	0	1	1	9,702749076137308E+004	2,3067541E+000	2,3062229E+000	-3,874904039943047E-003	1,000000000000000E+000	1,1988607E-002	42	-8,9363921E-006
2	0	0	1	1	9,704748275663843E+004	2,2947588E+000	2,2941930E+000	-4,021060272832937E-003	1,000000000000000E+000	1,1908341E-002	42	-9,2250884E-006
2	0	0	1	1	9,706747475189180E+004	2,2827640E+000	2,2822216E+000	-4,157995383481584E-003	1,000000000000000E+000	1,1825384E-002	42	-9,4894667E-006
2	0	0	1	1	9,708746674719988E+004	2,2707684E+000	2,2702293E+000	-4,302007168761819E-003	1,000000000000000E+000	1,1739402E-002	42	-9,7665425E-006
2	0	0	1	1	9,710745874243882E+004	2,2587733E+000	2,2582064E+000	-4,471557796139343E-003	1,000000000000000E+000	1,1650356E-002	42	-1,0097700E-005
2	0	0	1	1	9,712745073771873E+004	2,2467782E+000	2,2462125E+000	-4,652281435359770E-003	1,000000000000000E+000	1,1557896E-002	42	-1,0450012E-005
2	0	0	1	1	9,714744273300562E+004	2,2347832E+000	2,2342257E+000	-4,819147846242836E-003	1,000000000000000E+000	1,1462038E-002	42	-1,0767064E-005
2	0	0	1	1	9,716743472823990E+004	2,2227876E+000	2,2222364E+000	-4,998068324720813E-003	1,000000000000000E+000	1,1362530E-002	42	-1,1106889E-005
2	0	0	1	1	9,718742672354588E+004	2,2107928E+000	2,2102551E+000	-5,196282211424683E-003	1,000000000000000E+000	1,1259177E-002	42	-1,1485109E-005
2	0	0	1	1	9,720741891880566E+004	2,1987975E+000	2,1982632E+000	-5,409697946686953E-003	1,000000000000000E+000	1,1151775E-002	42	-1,1891940E-005
2	0	0	1	1	9,722741071406379E+004	2,1868021E+000	2,1862862E+000	-5,629525893407449E-003	1,000000000000000E+000	1,1039990E-002	42	-1,2307755E-005
2	0	0	1	1	9,724740290937014E+004	2,1748068E+000	2,1742725E+000	-5,867830236518073E-003	1,000000000000000E+000	1,0923722E-002	42	-1,2758263E-005
2	0	0	1	1	9,726739490460488E+004	2,1628115E+000	2,1622746E+000	-6,113081640600204E-003	1,000000000000000E+000	1,0802621E-002	42	-1,3218161E-005
2	0	0	1	1	9,728738689988968E+004	2,1508164E+000	2,1502860E+000	-6,371854939421481E-003	1,000000000000000E+000	1,0676370E-002	42	-1,3701310E-005
2	0	0	1	1	9,730737889517099E+004	2,1388211E+000	2,1382844E+000	-6,661595852751799E-003	1,000000000000000E+000	1,0544828E-002	42	-1,4244387E-005
2	0	0	1	1	9,732737089040829E+004	2,1268260E+000	2,1263080E+000	-6,965566894299965E-003	1,000000000000000E+000	1,0407552E-002	42	-1,4810940E-005
2	0	0	1	1	9,734736288571567E+004	2,1148307E+000	2,1143064E+000	-7,254202085683212E-003	1,000000000000000E+000	1,0264198E-002	42	-1,5337606E-005
2	0	0	1	1	9,736735488097044E+004	2,1028357E+000	2,1023414E+000	-7,570052361279833E-003	1,000000000000000E+000	1,0114704E-002	42	-1,5914835E-005
2	0	0	1	1	9,738734687623405E+004	2,0908403E+000	2,0903339E+000	-7,911899790943561E-003	1,000000000000000E+000	9,9585941E-003	42	-1,6538512E-005
2	0	0	1	1	9,740733877153695E+004	2,0788453E+000	2,0783737E+000	-8,257005608011764E-003	1,000000000000000E+000	9,7955158E-003	42	-1,7161143E-005
2	0	0	1	1	9,742733096677018E+004	2,0668499E+000	2,0663524E+000	-8,647631847066684E-003	1,000000000000000E+000	9,6251257E-003	42	-1,7869055E-005
2	0	0	1	1	9,744732276206044E+004	2,0548549E+000	2,0543742E+000	-9,038620866834740E-003	1,000000000000000E+000	9,4470941E-003	42	-1,8568709E-005
2	0	0	1	1	9,746731495733676E+004	2,0428596E+000	2,0423779E+000	-9,464012432029515E-003	1,000000000000000E+000	9,2608323E-003	42	-1,9329091E-005
2	0	0	1	1	9,748730695257895E+004	2,0308645E+000	2,0304105E+000	-9,901206019510486E-003	1,000000000000000E+000	9,0659019E-003	42	-2,0103513E-005
2	0	0	1	1	9,750729894788726E+004	2,0188692E+000	2,0182762E+000	-1,038332725966830E-002	1,000000000000000E+000	8,8612717E-003	41	-2,0956422E-005
2	0	0	1	1	9,752729094313679E+004	2,0068741E+000	2,0063162E+000	-1,086440298245405E-002	1,000000000000000E+000	8,6475750E-003	41	-2,1797428E-005
2	0	0	1	1	9,754728303840547E+004	1,9948788E+000	1,9943310E+000	-1,134434629486492E-002	1,000000000000000E+000	8,4242271E-003	41	-2,2624381E-005
2	0	0	1	1	9,756727503370296E+004	1,9828837E+000	1,9822772E+000	-1,183746736496026E-002	1,000000000000000E+000	8,1911599E-003	41	-2,3465142E-005
2	0	0	1	1	9,758726692893670E+004	1,9708887E+000	1,9702889E+000	-1,232315172756887E-002	1,000000000000000E+000	7,9482663E-003	41	-2,4280169E-005
2	0	0	1	1	9,760725892423233E+004	1,9588933E+000	1,9582911E+000	-1,281730564583886E-002	1,000000000000000E+000	7,6956986E-003	41	-2,5100015E-005
2	0	0	1	1	9,762725091950328E+004	1,9468981E+000	1,9462928E+000	-1,333371275767262E-002	1,000000000000000E+000	7,4329292E-003	41	-2,5951309E-005
2	0	0	1	1	9,764724291475094E+004	1,9349029E+000	1,9343208E+000	-1,387741826711419E-002	1,000000000000000E+000	7,1595241E-003	41	-2,6843380E-005
2	0	0	1	1	9,766723501005914E+004	1,9229078E+000	1,9223226E+000	-1,444747165636706E-002	1,000000000000000E+000	6,8749399E-003	41	-2,7772701E-005
2	0	0	0	1	9,768722700530358E+004	1,9109125E+000	1,9103243E+000	-1,509010146185416E-002	1,000000000000000E+000	6,5782969E-003	41	-2,8826988E-005
2	0	0	0	1	9,770721900057743E+004	1,8989173E+000	1,8983406E+000	-1,571756043442363E-002	1,000000000000000E+000	6,2691155E-003	41	-2,9837283E-005
2	0	0	0	1	9,772721099586981E+004	1,8869221E+000	1,8863585E+000	-1,639167233595518E-002	1,000000000000000E+000	5,9466972E-003	41	-3,0920572E-005
2	0	0	1	1	9,774720309110305E+004	1,8749268E+000	1,8743703E+000	-1,710358272326350E-002	1,000000000000000E+000	5,6103510E-003	41	-3,2058448E-005
2	0	0	1	1	9,776719508640333E+004	1,8629318E+000	1,8623376E+000	-1,785948681478070E-002	1,000000000000000E+000	5,2592629E-003	41	-3,3260392E-005
2	0	0	1	1	9,778718708166917E+004	1,8509367E+000	1,8503575E+000	-1,864093900569026E-002	1,000000000000000E+000	4,8930594E-003	41	-3,4492401E-005
2	0	0	1	1	9,780717907692149E+004	1,8389413E+000	1,8383814E+000	-1,947180598262302E-002	1,000000000000000E+000	4,5107105E-003	41	-3,5796606E-005
2	0	0	1	1	9,782717107222945E+004	1,8269459E+000	1,8263485E+000	-2,035851643524472E-002	1,000000000000000E+000	4,1111438E-003	41	-3,7181748E-005
2	0	0	1	1	9,784716306746833E+004	1,8149507E+000	1,8143909E+000	-2,131179640109176E-002	1,000000000000000E+000	3,6930707E-003	41	-3,8667931E-005
2	0	0	1	1	9,786715506274719E+004	1,8029555E+000	1,8023647E+000	-2,236654247997206E-002	1,000000000000000E+000	3,2549261E-003	41	-4,0312665E-005
2	0	0	1	1	9,788714705803397E+004	1,7909606E+000	1,7903727E+000	-2,350275355135695E-002	1,000000000000000E+000	2,7950925E-003	41	-4,2078689E-005
2	0	0	1	1	9,790713905326766E+004	1,7789654E+000	1,7783990E+000	-2,473913787603732E-002	1,000000000000000E+000	2,3116302E-003	41	-4,3996057E-005
2	0	0	1	1	9,792713114857301E+004	1,7669703E+000	1,7663788E+000	-2,605049051468677E-002	1,000000000000000E+000	1,8026622E-003	41	-4,6015033E-005
2	0	0	1	1	9,794712314383336E+004	1,7549751E+000	1,7543929E+000	-2,739785308949028E-002	1,000000000000000E+000	1,2671469E-003	41	-4,8066599E-005
2	0	0	1	1	9,796711513909139E+004	1,7429796E+000	1,7423991E+000	-2,879429615307352E-002	1,000000000000000E+000	7,0408726E-004	41	-5,0171155E-005
2	0	0	1	1	9,798710713439831E+004	1,7309843E+000	1,7304207E+000	-3,025768448903127E-002	1,000000000000000E+000	1,1237660E-004	41	-5,2358522E-005
2	0	0	1	1	9,800166913092951E+004	1,7222385E+000	1,7217578E+000	-3,135088384812756E-002	1,000000000000000E+000	-3,3714244E-004	41	-5,3978627E-005