File: Dati/210311/CV_LTO_MX_10 layer_grafite nuova_0.1_1mVs_09_CV_C03.mpt
EC-Lab ASCII FILE
Nb header lines : 57

Cyclic Voltammetry

Run on channel : 3 (SN 6807)
User :
Electrode connection : standard
Ewe ctrl range : min = 0,00 V, max = 5,00 V
Ewe,I filtering : 50 kHz
Safety Limits :
	Do not start on E overload
Channel : Grounded
Acquisition started on : 03/11/2021 17:24:33
Saved on :
	File : CV_LTO_MX_10 layer_grafite nuova_0.1_1mVs_09_CV_C03.mpr
	Directory : C:\Users\labsuperfici\Desktop\Biologic\Users\Prisca Viviani\210311\
	Host : 169.254.114.127
Device : VSP-300 (SN 0638)
Address : USB
EC-Lab for windows v11.31 (software)
Internet server v11.30 (firmware)
Command interpretor v11.31 (firmware)
Electrode material :
Initial state :
Electrolyte :
Comments :
Cable : standard
Reference electrode : SCE Saturated Calomel Electrode (0,241 V)
Electrode surface area : 0,001 cm²
Characteristic mass : 0,001 g
Equivalent Weight : 0,000 g/eq.
Density : 0,000 g/cm3
Cycle Definition : Charge/Discharge alternance
Ei (V)              0,000
vs.                 Eoc
dE/dt               0,900
dE/dt unit          mV/s
E1 (V)              1,000
vs.                 Ref
Step percent        50
N                   10
E range min (V)     0,000
E range max (V)     5,000
I Range             Auto
I Range min         Unset
I Range max         Unset
I Range init        Unset
Bandwidth           8
E2 (V)              3,000
vs.                 Ref
nc cycles           0
Reverse Scan        1
Ef (V)              0,000
vs.                 Eoc

mode	ox/red	error	control changes	counter inc.	time/s	control/V	Ewe/V	<I>/mA	cycle number	(Q-Qo)/C	I Range	P/W
2	0	0	1	0	1,087166109964260E+005	1,7222385E+000	1,7217119E+000	-3,728624433279037E-002	1,000000000000000E+000	0,0000000E+000	41	-6,4196167E-005
2	0	0	1	0	1,087294391933670E+005	1,7106926E+000	1,7101388E+000	-3,588189504191769E-002	1,000000000000000E+000	-4,4976579E-004	41	-6,1363018E-005
2	0	0	1	0	1,087427671901955E+005	1,6986976E+000	1,6981721E+000	-3,787936806408188E-002	1,000000000000000E+000	-9,4223005E-004	41	-6,4325686E-005
2	0	0	1	0	1,087560951870689E+005	1,6867023E+000	1,6861984E+000	-3,981366761841725E-002	1,000000000000000E+000	-1,4608990E-003	41	-6,7133740E-005
2	0	0	1	0	1,087694231839329E+005	1,6747071E+000	1,6741874E+000	-4,176634938887940E-002	1,000000000000000E+000	-2,0055014E-003	41	-6,9924696E-005
2	0	0	1	0	1,087827511807551E+005	1,6627117E+000	1,6621931E+000	-4,376805457800859E-002	1,000000000000000E+000	-2,5764182E-003	41	-7,2750954E-005
2	0	0	1	0	1,087960791775867E+005	1,6507165E+000	1,6501716E+000	-4,587787346091288E-002	1,000000000000000E+000	-3,1746363E-003	41	-7,5706368E-005
2	0	0	1	0	1,088094071744576E+005	1,6387216E+000	1,6382068E+000	-4,811571230676470E-002	1,000000000000000E+000	-3,8017239E-003	41	-7,8823490E-005
2	0	0	1	0	1,088227351713213E+005	1,6267263E+000	1,6261762E+000	-5,049562508625050E-002	1,000000000000000E+000	-4,4596763E-003	41	-8,2114784E-005
2	0	0	1	0	1,088360631681440E+005	1,6147312E+000	1,6141918E+000	-5,302972600091127E-002	1,000000000000000E+000	-5,1502953E-003	41	-8,5600150E-005
2	0	0	1	0	1,088493912649758E+005	1,6027356E+000	1,6022383E+000	-5,571348043489954E-002	1,000000000000000E+000	-5,8757397E-003	41	-8,9266272E-005
2	0	0	1	0	1,088627192618487E+005	1,5907404E+000	1,5902293E+000	-5,855806225979476E-002	1,000000000000000E+000	-6,6379951E-003	41	-9,3120747E-005
2	0	0	1	0	1,088760472587102E+005	1,5787452E+000	1,5782105E+000	-6,164233408511985E-002	1,000000000000000E+000	-7,4397530E-003	41	-9,7284574E-005
2	0	0	1	0	1,088893753555317E+005	1,5667500E+000	1,5662318E+000	-6,492113577513781E-002	1,000000000000000E+000	-8,2838722E-003	41	-1,0168155E-004
2	0	0	1	0	1,089027033523673E+005	1,5547551E+000	1,5542148E+000	-6,839069148738763E-002	1,000000000000000E+000	-9,1729583E-003	41	-1,0629382E-004
2	0	0	1	0	1,089160313492388E+005	1,5427598E+000	1,5422564E+000	-7,209172887265924E-002	1,000000000000000E+000	-1,0109865E-002	41	-1,1118393E-004
2	0	0	1	0	1,089293593460982E+005	1,5307646E+000	1,5302273E+000	-7,609032832656693E-002	1,000000000000000E+000	-1,1098153E-002	41	-1,1643550E-004
2	0	0	1	0	1,089426873429218E+005	1,5187694E+000	1,5182822E+000	-8,030458095594106E-002	1,000000000000000E+000	-1,2141077E-002	41	-1,2192501E-004
2	0	0	1	0	1,089560153397570E+005	1,5067741E+000	1,5062779E+000	-8,483967481528421E-002	1,000000000000000E+000	-1,3242383E-002	41	-1,2779213E-004
2	0	0	1	0	1,089693433366290E+005	1,4947789E+000	1,4943055E+000	-8,958508418416078E-002	1,000000000000000E+000	-1,4405543E-002	41	-1,3386748E-004
2	0	0	1	0	1,089826713334881E+005	1,4827838E+000	1,4823117E+000	-9,464043157038304E-002	1,000000000000000E+000	-1,5634041E-002	41	-1,4028662E-004
2	0	0	1	0	1,089959993303091E+005	1,4707886E+000	1,4702941E+000	-9,989689448545236E-002	1,000000000000000E+000	-1,6931102E-002	41	-1,4687782E-004
2	0	0	1	0	1,090093272271476E+005	1,4587933E+000	1,4582223E+000	-1,054686984337589E-001	1,000000000000000E+000	-1,8300606E-002	40	-1,5379681E-004
2	0	0	1	0	1,090226553240197E+005	1,4467981E+000	1,4462336E+000	-1,110573143261213E-001	1,000000000000000E+000	-1,9744555E-002	40	-1,6061483E-004
2	0	0	1	0	1,090359833208747E+005	1,4348029E+000	1,4342207E+000	-1,167054650176627E-001	1,000000000000000E+000	-2,1263376E-002	40	-1,6738140E-004
2	0	0	1	0	1,090493113176983E+005	1,4228078E+000	1,4222400E+000	-1,222825837694597E-001	1,000000000000000E+000	-2,2857165E-002	40	-1,7391518E-004
2	0	0	1	0	1,090626393145374E+005	1,4108126E+000	1,4102708E+000	-1,277654052141808E-001	1,000000000000000E+000	-2,4524869E-002	40	-1,8018382E-004
2	0	0	1	0	1,090759673114087E+005	1,3988174E+000	1,3982313E+000	-1,330777923497384E-001	1,000000000000000E+000	-2,6264474E-002	40	-1,8607354E-004
2	0	0	1	0	1,090892953082644E+005	1,3868222E+000	1,3862559E+000	-1,381377550575817E-001	1,000000000000000E+000	-2,8073285E-002	40	-1,9149427E-004
2	0	0	1	0	1,091026233050860E+005	1,3748270E+000	1,3742452E+000	-1,429519905064800E-001	1,000000000000000E+000	-2,9947938E-002	40	-1,9645109E-004
2	0	0	1	0	1,091159513019269E+005	1,3628316E+000	1,3622441E+000	-1,475046935355468E-001	1,000000000000000E+000	-3,1885140E-002	40	-2,0093740E-004
2	0	0	1	0	1,091292792987999E+005	1,3508365E+000	1,3502557E+000	-1,517758258563857E-001	1,000000000000000E+000	-3,3881169E-002	40	-2,0493618E-004
2	0	0	1	0	1,091426072956517E+005	1,3388413E+000	1,3382369E+000	-1,557639048175168E-001	1,000000000000000E+000	-3,5932112E-002	40	-2,0844901E-004
2	0	0	1	0	1,091559352924745E+005	1,3268462E+000	1,3262787E+000	-1,593721888711155E-001	1,000000000000000E+000	-3,8033459E-002	40	-2,1137194E-004
2	0	0	1	0	1,091692632893182E+005	1,3148509E+000	1,3142542E+000	-1,627241355581799E-001	1,000000000000000E+000	-4,0181313E-002	40	-2,1386087E-004
2	0	0	1	0	1,091825912861892E+005	1,3028557E+000	1,3022730E+000	-1,658168131470539E-001	1,000000000000000E+000	-4,2372100E-002	40	-2,1593877E-004
2	0	0	1	0	1,091959192830413E+005	1,2908604E+000	1,2902929E+000	-1,686907396907271E-001	1,000000000000000E+000	-4,4602361E-002	40	-2,1766046E-004
2	0	0	1	0	1,092092472798636E+005	1,2788652E+000	1,2782909E+000	-1,712897710021311E-001	1,000000000000000E+000	-4,6869110E-002	40	-2,1895814E-004
2	0	0	1	0	1,092225752767075E+005	1,2668701E+000	1,2662996E+000	-1,736546803661594E-001	1,000000000000000E+000	-4,9169093E-002	40	-2,1989885E-004
2	0	0	1	0	1,092359032735811E+005	1,2548749E+000	1,2543103E+000	-1,757754800241198E-001	1,000000000000000E+000	-5,1499035E-002	40	-2,2047698E-004
2	0	0	1	0	1,092492313704302E+005	1,2428796E+000	1,2422905E+000	-1,775639863632974E-001	1,000000000000000E+000	-5,3854983E-002	40	-2,2058605E-004
2	0	0	1	0	1,092625593672520E+005	1,2308844E+000	1,2303393E+000	-1,789004447003695E-001	1,000000000000000E+000	-5,6232069E-002	40	-2,2010824E-004
2	0	0	1	0	1,092758873641000E+005	1,2188894E+000	1,2183347E+000	-1,797178310565188E-001	1,000000000000000E+000	-5,8623552E-002	40	-2,1895647E-004
2	0	0	1	0	1,092892153609709E+005	1,2068940E+000	1,2063371E+000	-1,801904760106547E-001	1,000000000000000E+000	-6,1023444E-002	40	-2,1737046E-004
2	0	0	1	0	1,093025433578189E+005	1,1948988E+000	1,1943538E+000	-1,801701582373072E-001	1,000000000000000E+000	-6,3426502E-002	40	-2,1518691E-004
2	0	0	1	0	1,093158712546420E+005	1,1829038E+000	1,1823597E+000	-1,799682860807539E-001	1,000000000000000E+000	-6,5827496E-002	40	-2,1278724E-004
2	0	0	1	0	1,093291992514892E+005	1,1709086E+000	1,1703677E+000	-1,797115385461705E-001	1,000000000000000E+000	-6,8225518E-002	40	-2,1032858E-004
2	0	0	1	0	1,093425272483621E+005	1,1589135E+000	1,1583400E+000	-1,792904600596187E-001	1,000000000000000E+000	-7,0618846E-002	40	-2,0767930E-004
2	0	0	1	0	1,093558552452077E+005	1,1469181E+000	1,1463499E+000	-1,786897168410132E-001	1,000000000000000E+000	-7,3005751E-002	40	-2,0484094E-004
2	0	0	1	0	1,093691833420289E+005	1,1349229E+000	1,1343751E+000	-1,781959233249832E-001	1,000000000000000E+000	-7,5385198E-002	40	-2,0214102E-004
2	0	0	1	0	1,093825113388803E+005	1,1229277E+000	1,1223389E+000	-1,775414398558137E-001	1,000000000000000E+000	-7,7757590E-002	40	-1,9926166E-004
2	0	0	1	0	1,093958393357520E+005	1,1109325E+000	1,1103811E+000	-1,768717329642603E-001	1,000000000000000E+000	-8,0120310E-002	40	-1,9639503E-004
2	0	0	1	0	1,094091673325954E+005	1,0989373E+000	1,0983868E+000	-1,762041900691627E-001	1,000000000000000E+000	-8,2473956E-002	40	-1,9354036E-004
2	0	0	1	0	1,094224954294190E+005	1,0869421E+000	1,0863841E+000	-1,754544438311503E-001	1,000000000000000E+000	-8,4818736E-002	40	-1,9061091E-004
2	0	0	1	0	1,094358234262702E+005	1,0749469E+000	1,0743976E+000	-1,746547707606805E-001	1,000000000000000E+000	-8,7152764E-002	40	-1,8764866E-004
2	0	0	1	0	1,094491514231421E+005	1,0629517E+000	1,0623912E+000	-1,738710895975895E-001	1,000000000000000E+000	-8,9476362E-002	40	-1,8471912E-004
2	0	0	1	0	1,094624794199856E+005	1,0509565E+000	1,0504111E+000	-1,730865044855845E-001	1,000000000000000E+000	-9,1789126E-002	40	-1,8181199E-004
2	0	0	1	0	1,094758074168067E+005	1,0389613E+000	1,0383974E+000	-1,724288443856667E-001	1,000000000000000E+000	-9,4092138E-002	40	-1,7904968E-004
2	0	0	1	0	1,094891354136609E+005	1,0269661E+000	1,0264053E+000	-1,716930822140643E-001	1,000000000000000E+000	-9,6386693E-002	40	-1,7622669E-004
2	0	0	1	0	1,095024634105333E+005	1,0149708E+000	1,0144380E+000	-1,710075136482923E-001	1,000000000000000E+000	-9,8671496E-002	40	-1,7347652E-004
2	0	0	1	0	1,095157914073730E+005	1,0029756E+000	1,0024259E+000	-1,704232519296309E-001	1,000000000000000E+000	-1,0094796E-001	40	-1,7083668E-004
2	0	0	1	0	1,095274542045932E+005	1,0075738E+000	1,0070204E+000	-1,565549520085438E-001	1,000000000000000E+000	-1,0286464E-001	40	-1,5765402E-004
2	0	0	1	0	1,095407822014413E+005	1,0195690E+000	1,0190241E+000	-1,440180741712696E-001	1,000000000000000E+000	-1,0486271E-001	40	-1,4675790E-004
2	0	0	1	0	1,095541101983147E+005	1,0315642E+000	1,0310082E+000	-1,339855428846741E-001	1,000000000000000E+000	-1,0671226E-001	40	-1,3814020E-004
2	0	0	1	0	1,095674381951596E+005	1,0435594E+000	1,0429690E+000	-1,253295534594402E-001	1,000000000000000E+000	-1,0843773E-001	40	-1,3071483E-004
2	0	0	1	0	1,095807661919813E+005	1,0555546E+000	1,0550015E+000	-1,177224003367705E-001	1,000000000000000E+000	-1,1005536E-001	40	-1,2419731E-004
2	0	0	1	0	1,095940941888333E+005	1,0675498E+000	1,0669862E+000	-1,109010819306319E-001	1,000000000000000E+000	-1,1157700E-001	40	-1,1832992E-004
2	0	0	1	0	1,096074221857043E+005	1,0795450E+000	1,0789775E+000	-1,047351063031692E-001	1,000000000000000E+000	-1,1301240E-001	40	-1,1300682E-004
2	0	0	1	0	1,096207501825479E+005	1,0915403E+000	1,0909997E+000	-9,907152297514954E-002	1,000000000000000E+000	-1,1436903E-001	40	-1,0808701E-004
2	0	0	1	0	1,096340781793712E+005	1,1035355E+000	1,1029791E+000	-9,382936419929128E-002	1,000000000000000E+000	-1,1565311E-001	40	-1,0349182E-004
2	0	0	1	0	1,096474061762225E+005	1,1155306E+000	1,1149843E+000	-8,897088376644868E-002	1,000000000000000E+000	-1,1686985E-001	40	-9,9201134E-005
2	0	0	1	0	1,096607341730950E+005	1,1275257E+000	1,1269597E+000	-8,444783413817181E-002	1,000000000000000E+000	-1,1802434E-001	40	-9,5169307E-005
2	0	0	1	0	1,096740621699368E+005	1,1395211E+000	1,1389598E+000	-8,023485328882374E-002	1,000000000000000E+000	-1,1912026E-001	40	-9,1384267E-005
2	0	0	1	0	1,096873902667579E+005	1,1515162E+000	1,1509620E+000	-7,624640097702118E-002	1,000000000000000E+000	-1,2016200E-001	40	-8,7756707E-005
2	0	0	1	0	1,097007181636131E+005	1,1635114E+000	1,1629274E+000	-7,247674904481705E-002	1,000000000000000E+000	-1,2115178E-001	40	-8,4285195E-005
2	0	0	1	0	1,097140461604848E+005	1,1755066E+000	1,1749368E+000	-6,895300872138510E-002	1,000000000000000E+000	-1,2209304E-001	40	-8,1015423E-005
2	0	0	1	0	1,097273743573240E+005	1,1875019E+000	1,1869140E+000	-6,556282659556700E-002	1,000000000000000E+000	-1,2298815E-001	40	-7,7817436E-005
2	0	0	1	0	1,097407023541476E+005	1,1994970E+000	1,1988879E+000	-6,228823683755569E-002	1,000000000000000E+000	-1,2383905E-001	40	-7,4676616E-005
2	0	0	1	0	1,097540303510032E+005	1,2114923E+000	1,2109063E+000	-5,919818123305959E-002	1,000000000000000E+000	-1,2464768E-001	40	-7,1683447E-005
2	0	0	1	0	1,097673583478747E+005	1,2234875E+000	1,2228944E+000	-5,622212101150059E-002	1,000000000000000E+000	-1,2541585E-001	40	-6,8753718E-005
2	0	0	1	0	1,097806863447141E+005	1,2354827E+000	1,2348813E+000	-5,334418881924596E-002	1,000000000000000E+000	-1,2614506E-001	40	-6,5873741E-005
2	0	0	1	0	1,097940143415353E+005	1,2474779E+000	1,2468833E+000	-5,059183078150697E-002	1,000000000000000E+000	-1,2683661E-001	40	-6,3082109E-005
2	0	0	1	0	1,098073423383933E+005	1,2594731E+000	1,2589166E+000	-4,784057202267050E-002	1,000000000000000E+000	-1,2749192E-001	41	-6,0227292E-005
2	0	0	1	0	1,098206703352659E+005	1,2714683E+000	1,2709388E+000	-4,524692005148412E-002	1,000000000000000E+000	-1,2811136E-001	41	-5,7506066E-005
2	0	0	1	0	1,098339983321014E+005	1,2834635E+000	1,2829496E+000	-4,270438193207782E-002	1,000000000000000E+000	-1,2869665E-001	41	-5,4787568E-005
2	0	0	1	0	1,098473263289245E+005	1,2954586E+000	1,2948990E+000	-4,025190095253584E-002	1,000000000000000E+000	-1,2924866E-001	41	-5,2122145E-005
2	0	0	1	0	1,098606544257841E+005	1,3074538E+000	1,3069155E+000	-3,784219256045929E-002	1,000000000000000E+000	-1,2976824E-001	41	-4,9456550E-005
2	0	0	1	0	1,098739824226550E+005	1,3194492E+000	1,3189218E+000	-3,547221412071332E-002	1,000000000000000E+000	-1,3025586E-001	41	-4,6785077E-005
2	0	0	1	0	1,098873103194912E+005	1,3314443E+000	1,3308805E+000	-3,316860645157031E-002	1,000000000000000E+000	-1,3071249E-001	41	-4,4143453E-005
2	0	0	1	0	1,099006383163130E+005	1,3434393E+000	1,3428764E+000	-3,086702511976952E-002	1,000000000000000E+000	-1,3113835E-001	41	-4,1450599E-005
2	0	0	1	0	1,099139664131738E+005	1,3554347E+000	1,3548472E+000	-2,859054614714607E-002	1,000000000000000E+000	-1,3153362E-001	41	-3,8735820E-005
2	0	0	1	0	1,099272945100472E+005	1,3674299E+000	1,3668785E+000	-2,632403454747678E-002	1,000000000000000E+000	-1,3189866E-001	41	-3,5981757E-005
2	0	0	1	0	1,099406225068790E+005	1,3794250E+000	1,3788306E+000	-2,406180815534971E-002	1,000000000000000E+000	-1,3223357E-001	41	-3,3177155E-005
2	0	0	1	0	1,099539505037013E+005	1,3914204E+000	1,3908596E+000	-2,179675986823149E-002	1,000000000000000E+000	-1,3253829E-001	41	-3,0316232E-005
2	0	0	1	0	1,099672785005651E+005	1,4034157E+000	1,4028721E+000	-1,950256216847190E-002	1,000000000000000E+000	-1,3281274E-001	41	-2,7359600E-005
2	0	0	1	0	1,099806064974361E+005	1,4154108E+000	1,4148299E+000	-1,721076084698478E-002	1,000000000000000E+000	-1,3305658E-001	41	-2,4350298E-005
2	0	0	1	0	1,099939344942677E+005	1,4274060E+000	1,4268177E+000	-1,486248410068632E-002	1,000000000000000E+000	-1,3326959E-001	41	-2,1206055E-005
2	0	0	1	0	1,100072624910905E+005	1,4394011E+000	1,4388207E+000	-1,249363484958330E-002	1,000000000000000E+000	-1,3345113E-001	41	-1,7976101E-005
2	0	0	1	0	1,100205904879540E+005	1,4513963E+000	1,4508030E+000	-1,004764928817611E-002	1,000000000000000E+000	-1,3360056E-001	41	-1,4577160E-005
2	0	0	1	0	1,100339185848271E+005	1,4633915E+000	1,4628242E+000	-7,555415096683976E-003	1,000000000000000E+000	-1,3371710E-001	41	-1,1052244E-005
2	0	0	1	0	1,100472465816564E+005	1,4753867E+000	1,4748538E+000	-4,898465460654602E-003	1,000000000000000E+000	-1,3379964E-001	41	-7,2245202E-006
2	0	0	1	0	1,100605745784780E+005	1,4873819E+000	1,4868493E+000	-2,267249192947136E-003	1,000000000000000E+000	-1,3384679E-001	42	-3,3710578E-006
2	1	0	1	0	1,100739025753462E+005	1,4993771E+000	1,4987540E+000	4,525502964558420E-004	1,000000000000000E+000	-1,3385803E-001	43	6,7826159E-007
2	1	0	1	0	1,100872305722174E+005	1,5113723E+000	1,5107203E+000	3,388731694255472E-003	1,000000000000000E+000	-1,3383149E-001	42	5,1194256E-006
2	1	0	1	0	1,101005585690448E+005	1,5233674E+000	1,5227357E+000	6,454434734768567E-003	1,000000000000000E+000	-1,3376510E-001	42	9,8283981E-006
2	1	0	1	0	1,101138865658683E+005	1,5353626E+000	1,5346965E+000	9,688743447777828E-003	1,000000000000000E+000	-1,3365692E-001	42	1,4869281E-005
2	1	0	1	0	1,101272146627358E+005	1,5473579E+000	1,5467770E+000	1,319394611959927E-002	1,000000000000000E+000	-1,3350341E-001	41	2,0408093E-005
2	1	0	1	0	1,101405426596077E+005	1,5593531E+000	1,5587747E+000	1,683428836648676E-002	1,000000000000000E+000	-1,3330270E-001	41	2,6240863E-005
2	1	0	1	0	1,101538706564344E+005	1,5713483E+000	1,5707664E+000	2,077171589586319E-002	1,000000000000000E+000	-1,3305157E-001	41	3,2627515E-005
2	1	0	1	0	1,101671986532556E+005	1,5833435E+000	1,5827421E+000	2,511832663082302E-002	1,000000000000000E+000	-1,3274544E-001	41	3,9755832E-005
2	1	0	1	0	1,101805266501266E+005	1,5953386E+000	1,5947312E+000	3,021185953782041E-002	1,000000000000000E+000	-1,3237679E-001	41	4,8179794E-005
2	1	0	1	0	1,101938546469985E+005	1,6073339E+000	1,6067164E+000	3,629619684445529E-002	1,000000000000000E+000	-1,3193387E-001	41	5,8317695E-005
2	1	0	1	0	1,102071827438222E+005	1,6193291E+000	1,6187054E+000	4,340788999707079E-002	1,000000000000000E+000	-1,3140275E-001	41	7,0264585E-005
2	1	0	1	0	1,102205107406466E+005	1,6313244E+000	1,6306561E+000	5,130037031242329E-002	1,000000000000000E+000	-1,3077138E-001	41	8,3653264E-005
2	1	0	1	0	1,102338387375171E+005	1,6433195E+000	1,6426829E+000	5,968212668161868E-002	1,000000000000000E+000	-1,3003118E-001	41	9,8038807E-005
2	1	0	1	0	1,102471667343876E+005	1,6553148E+000	1,6546419E+000	6,830857946530289E-002	1,000000000000000E+000	-1,2917733E-001	41	1,1302624E-004
2	1	0	1	0	1,102604948312121E+005	1,6673101E+000	1,6666405E+000	7,704581395619131E-002	1,000000000000000E+000	-1,2820779E-001	41	1,2840767E-004
2	1	0	1	0	1,102738227280353E+005	1,6793052E+000	1,6786671E+000	8,578894806756288E-002	1,000000000000000E+000	-1,2712181E-001	41	1,4401108E-004
2	1	0	1	0	1,102871507249069E+005	1,6913004E+000	1,6906236E+000	9,446111901771104E-002	1,000000000000000E+000	-1,2591960E-001	41	1,5969820E-004
2	1	0	1	0	1,103004787217781E+005	1,7032956E+000	1,7026557E+000	1,030711847105307E-001	1,000000000000000E+000	-1,2460215E-001	41	1,7549474E-004
2	1	0	1	0	1,103138068185993E+005	1,7152909E+000	1,7147201E+000	1,115242510498911E-001	1,000000000000000E+000	-1,2317101E-001	40	1,9123287E-004
2	1	0	1	0	1,103271349154257E+005	1,7272859E+000	1,7267103E+000	1,198348226168986E-001	1,000000000000000E+000	-1,2162803E-001	40	2,0692003E-004
2	1	0	1	0	1,103404629122978E+005	1,7392812E+000	1,7387022E+000	1,279826272628561E-001	1,000000000000000E+000	-1,1997517E-001	40	2,2252367E-004
2	1	0	1	0	1,103537909091655E+005	1,7512763E+000	1,7506694E+000	1,358246863912407E-001	1,000000000000000E+000	-1,1821577E-001	40	2,3778412E-004
2	1	0	1	0	1,103671190059891E+005	1,7632717E+000	1,7626628E+000	1,433764335761247E-001	1,000000000000000E+000	-1,1635381E-001	40	2,5272431E-004
2	1	0	1	0	1,103804470028160E+005	1,7752670E+000	1,7746720E+000	1,506116180474320E-001	1,000000000000000E+000	-1,1439326E-001	40	2,6728623E-004
2	1	0	1	0	1,103937749996873E+005	1,7872623E+000	1,7866553E+000	1,574027349195917E-001	1,000000000000000E+000	-1,1233902E-001	40	2,8122443E-004
2	1	0	1	0	1,104071029965556E+005	1,7992574E+000	1,7986650E+000	1,637531349994201E-001	1,000000000000000E+000	-1,1019728E-001	40	2,9453705E-004
2	1	0	1	0	1,104204309933772E+005	1,8112525E+000	1,8106576E+000	1,695967509502760E-001	1,000000000000000E+000	-1,0797425E-001	40	3,0708165E-004
2	1	0	1	0	1,104337589902059E+005	1,8232476E+000	1,8226395E+000	1,749628602376037E-001	1,000000000000000E+000	-1,0567661E-001	40	3,1889422E-004
2	1	0	1	0	1,104470869870790E+005	1,8352429E+000	1,8346295E+000	1,798479114901143E-001	1,000000000000000E+000	-1,0331064E-001	40	3,2995429E-004
2	1	0	1	0	1,104604148839434E+005	1,8472381E+000	1,8466395E+000	1,842802379725903E-001	1,000000000000000E+000	-1,0088277E-001	40	3,4029916E-004
2	1	0	1	0	1,104737428807660E+005	1,8592331E+000	1,8586560E+000	1,881100993381132E-001	1,000000000000000E+000	-9,8399609E-002	40	3,4963197E-004
2	1	0	1	0	1,104870709775972E+005	1,8712285E+000	1,8706306E+000	1,914635941588880E-001	1,000000000000000E+000	-9,5868982E-002	40	3,5815767E-004
2	1	0	1	0	1,105003989744681E+005	1,8832238E+000	1,8826126E+000	1,943954654369326E-001	1,000000000000000E+000	-9,3296312E-002	40	3,6597135E-004
2	1	0	1	0	1,105137269713322E+005	1,8952188E+000	1,8945993E+000	1,969095352313670E-001	1,000000000000000E+000	-9,0687156E-002	40	3,7306466E-004
2	1	0	1	0	1,105270550681545E+005	1,9072138E+000	1,9066082E+000	1,989995193280407E-001	1,000000000000000E+000	-8,8047214E-002	40	3,7941412E-004
2	1	0	1	0	1,105403831649858E+005	1,9192094E+000	1,9186022E+000	2,004717507816234E-001	1,000000000000000E+000	-8,5383631E-002	40	3,8462554E-004
2	1	0	1	0	1,105537111618592E+005	1,9312047E+000	1,9305929E+000	2,014189433897382E-001	1,000000000000000E+000	-8,2703851E-002	40	3,8885797E-004
2	1	0	1	0	1,105670391587204E+005	1,9431999E+000	1,9425795E+000	2,019092144469954E-001	1,000000000000000E+000	-8,0014661E-002	40	3,9222470E-004
2	1	0	1	0	1,105803671555421E+005	1,9551948E+000	1,9546202E+000	2,018830026184885E-001	1,000000000000000E+000	-7,7321999E-002	40	3,9460461E-004
2	1	0	1	0	1,105936951523773E+005	1,9671901E+000	1,9665940E+000	2,012594889752091E-001	1,000000000000000E+000	-7,4634008E-002	40	3,9579571E-004
2	1	0	1	0	1,106070231492483E+005	1,9791855E+000	1,9785689E+000	2,001498373242103E-001	1,000000000000000E+000	-7,1957700E-002	40	3,9601023E-004
2	1	0	1	0	1,106203511461082E+005	1,9911804E+000	1,9905919E+000	1,985456087005075E-001	1,000000000000000E+000	-6,9299370E-002	40	3,9522327E-004
2	1	0	1	0	1,106336791429315E+005	2,0031755E+000	2,0025733E+000	1,963346245971156E-001	1,000000000000000E+000	-6,6666596E-002	40	3,9317447E-004
2	1	0	1	0	1,106470071397665E+005	2,0151711E+000	2,0145965E+000	1,936617590515981E-001	1,000000000000000E+000	-6,4066239E-002	40	3,9015029E-004
2	1	0	1	0	1,106603351366390E+005	2,0271661E+000	2,0266204E+000	1,903825866742475E-001	1,000000000000000E+000	-6,1505016E-002	40	3,8583323E-004
2	1	0	1	0	1,106736632334976E+005	2,0391612E+000	2,0385902E+000	1,865146067196055E-001	1,000000000000000E+000	-5,8992002E-002	40	3,8022685E-004
2	1	0	1	0	1,106869911303186E+005	2,0511563E+000	2,0505674E+000	1,821646315586323E-001	1,000000000000000E+000	-5,6534022E-002	40	3,7354085E-004
2	1	0	1	0	1,107003192271576E+005	2,0631514E+000	2,0625608E+000	1,774775924536804E-001	1,000000000000000E+000	-5,4136794E-002	40	3,6605832E-004
2	1	0	1	0	1,107136472240293E+005	2,0751469E+000	2,0745952E+000	1,720306323666767E-001	1,000000000000000E+000	-5,1807489E-002	40	3,5689393E-004
2	1	0	1	0	1,107269755208852E+005	2,0871422E+000	2,0865636E+000	1,663240040876128E-001	1,000000000000000E+000	-4,9551602E-002	40	3,4704560E-004
2	1	0	1	0	1,107403034177088E+005	2,0991371E+000	2,0985467E+000	1,602459734006627E-001	1,000000000000000E+000	-4,7374137E-002	40	3,3628367E-004
2	1	0	1	0	1,107536314145477E+005	2,1111321E+000	2,1105528E+000	1,538931599564071E-001	1,000000000000000E+000	-4,5279197E-002	40	3,2479965E-004
2	1	0	1	0	1,107669594114192E+005	2,1231275E+000	2,1225810E+000	1,472664139293598E-001	1,000000000000000E+000	-4,3271825E-002	40	3,1258489E-004
2	1	0	1	0	1,107802874082754E+005	2,1351230E+000	2,1345530E+000	1,404987293276240E-001	1,000000000000000E+000	-4,1354042E-002	40	2,9990196E-004
2	1	0	1	0	1,107936154050966E+005	2,1471181E+000	2,1465888E+000	1,338902559895121E-001	1,000000000000000E+000	-3,9524991E-002	40	2,8740731E-004
2	1	0	1	0	1,108069434019378E+005	2,1591134E+000	2,1585674E+000	1,273003333926677E-001	1,000000000000000E+000	-3,7783973E-002	40	2,7478635E-004
2	1	0	1	0	1,108202715988104E+005	2,1711085E+000	2,1705658E+000	1,208746506369261E-001	1,000000000000000E+000	-3,6129694E-002	40	2,6236637E-004
2	1	0	1	0	1,108335993956623E+005	2,1831036E+000	2,1825840E+000	1,146421256889429E-001	1,000000000000000E+000	-3,4559924E-002	40	2,5021608E-004
2	1	0	1	0	1,108469274924854E+005	2,1950989E+000	2,1945338E+000	1,087550479108759E-001	1,000000000000000E+000	-3,3070851E-002	40	2,3866663E-004
2	1	0	1	0	1,108602555893282E+005	2,2070942E+000	2,2065582E+000	1,032529965602116E-001	1,000000000000000E+000	-3,1657822E-002	40	2,2783375E-004
2	1	0	1	0	1,108735834861991E+005	2,2190893E+000	2,2185140E+000	9,801419515184007E-002	1,000000000000000E+000	-3,0316502E-002	40	2,1744586E-004
2	1	0	1	0	1,108869115830518E+005	2,2310843E+000	2,2305460E+000	9,319339141174399E-002	1,000000000000000E+000	-2,9041961E-002	40	2,0787214E-004
2	1	0	1	0	1,109002394798736E+005	2,2430797E+000	2,2425356E+000	8,874855467735210E-002	1,000000000000000E+000	-2,7829092E-002	40	1,9902179E-004
2	1	0	1	0	1,109135675767181E+005	2,2550747E+000	2,2545133E+000	8,478491969338453E-002	1,000000000000000E+000	-2,6672659E-002	40	1,9114872E-004
2	1	0	1	0	1,109268956735914E+005	2,2670701E+000	2,2665162E+000	8,094225004978955E-002	1,000000000000000E+000	-2,5568148E-002	40	1,8345693E-004
2	1	0	1	0	1,109402235704402E+005	2,2790651E+000	2,2784960E+000	7,746299278551783E-002	1,000000000000000E+000	-2,4512149E-002	40	1,7649912E-004
2	1	0	1	0	1,109535515672625E+005	2,2910604E+000	2,2904837E+000	7,428838195415866E-002	1,000000000000000E+000	-2,3500474E-002	40	1,7015633E-004
2	1	0	1	0	1,109668797641099E+005	2,3030555E+000	2,3025262E+000	7,134446581657949E-002	1,000000000000000E+000	-2,2529306E-002	40	1,6427251E-004
2	1	0	1	0	1,109802075609809E+005	2,3150511E+000	2,3145180E+000	6,862735485849569E-002	1,000000000000000E+000	-2,1596014E-002	40	1,5883925E-004
2	1	0	1	0	1,109935357578292E+005	2,3270459E+000	2,3265183E+000	6,606649936246267E-002	1,000000000000000E+000	-2,0697789E-002	40	1,5370492E-004
2	1	0	1	0	1,110068637546520E+005	2,3390412E+000	2,3385301E+000	6,365251881970080E-002	1,000000000000000E+000	-1,9832743E-002	40	1,4885333E-004
2	1	0	1	0	1,110201917514992E+005	2,3510363E+000	2,3505020E+000	6,138626091145299E-002	1,000000000000000E+000	-1,8998707E-002	40	1,4428853E-004
2	1	0	1	0	1,110335197483723E+005	2,3630316E+000	2,3624966E+000	5,924663785997897E-002	1,000000000000000E+000	-1,8194227E-002	40	1,3996998E-004
2	1	0	1	0	1,110468476452185E+005	2,3750269E+000	2,3744645E+000	5,719488727470934E-002	1,000000000000000E+000	-1,7417518E-002	40	1,3580723E-004
2	1	0	1	0	1,110601757420399E+005	2,3870223E+000	2,3865056E+000	5,526835529743895E-002	1,000000000000000E+000	-1,6667537E-002	40	1,3189824E-004
2	1	0	1	0	1,110735036388910E+005	2,3990173E+000	2,3985059E+000	5,349558045197700E-002	1,000000000000000E+000	-1,5942169E-002	40	1,2830946E-004
2	1	0	1	0	1,110868317357623E+005	2,4110124E+000	2,4104965E+000	5,192144747977345E-002	1,000000000000000E+000	-1,5239212E-002	40	1,2515647E-004
2	1	0	1	0	1,111001596326067E+005	2,4230075E+000	2,4224901E+000	5,043953630807277E-002	1,000000000000000E+000	-1,4556526E-002	40	1,2218927E-004
2	1	0	1	0	1,111134877294302E+005	2,4350026E+000	2,4344697E+000	4,918236597453435E-002	1,000000000000000E+000	-1,3891906E-002	40	1,1973298E-004
2	1	0	1	0	1,111269269262538E+005	2,4470980E+000	2,4465189E+000	4,814755991524444E-002	1,000000000000000E+000	-1,3237403E-002	41	1,1779391E-004
2	1	0	1	0	1,111402549231269E+005	2,4590931E+000	2,4585259E+000	4,715248886480072E-002	1,000000000000000E+000	-1,2601686E-002	41	1,1592561E-004
2	1	0	1	0	1,111535829199688E+005	2,4710884E+000	2,4705074E+000	4,624189026336417E-002	1,000000000000000E+000	-1,1978585E-002	41	1,1424093E-004
2	1	0	1	0	1,111669109167904E+005	2,4830835E+000	2,4825130E+000	4,534638968517085E-002	1,000000000000000E+000	-1,1367390E-002	41	1,1257300E-004
2	1	0	1	0	1,111802389136453E+005	2,4950788E+000	2,4944980E+000	4,443376364583329E-002	1,000000000000000E+000	-1,0768301E-002	41	1,1083994E-004
2	1	0	1	0	1,111935669105167E+005	2,5070739E+000	2,5065117E+000	4,357234192466386E-002	1,000000000000000E+000	-1,0180994E-002	41	1,0921458E-004
2	1	0	1	0	1,112068950073565E+005	2,5190694E+000	2,5185101E+000	4,271717427969052E-002	1,000000000000000E+000	-9,6053081E-003	41	1,0758363E-004
2	1	0	1	0	1,112202228041801E+005	2,5310647E+000	2,5304754E+000	4,187639337862670E-002	1,000000000000000E+000	-9,0409713E-003	41	1,0596718E-004
2	1	0	1	0	1,112335510010349E+005	2,5430598E+000	2,5425160E+000	4,107026080406012E-002	1,000000000000000E+000	-8,4873606E-003	41	1,0442179E-004
2	1	0	1	0	1,112468788979072E+005	2,5550547E+000	2,5544813E+000	4,032057933133670E-002	1,000000000000000E+000	-7,9442514E-003	41	1,0299816E-004
2	1	0	1	0	1,112602069947463E+005	2,5670500E+000	2,5665038E+000	3,958636255488279E-002	1,000000000000000E+000	-7,4110776E-003	41	1,0159855E-004
2	1	0	1	0	1,112735348915677E+005	2,5790448E+000	2,5784929E+000	3,880113058196871E-002	1,000000000000000E+000	-6,8880552E-003	41	1,0004844E-004
2	1	0	1	0	1,112868629884259E+005	2,5910401E+000	2,5904984E+000	3,807283505579273E-002	1,000000000000000E+000	-6,3751270E-003	41	9,8627621E-005
2	1	0	1	0	1,113001908852980E+005	2,6030357E+000	2,6024938E+000	3,738679317601934E-002	1,000000000000000E+000	-5,8714827E-003	41	9,7298893E-005
2	1	0	1	0	1,113135189821341E+005	2,6150310E+000	2,6144936E+000	3,674415030156097E-002	1,000000000000000E+000	-5,3767283E-003	41	9,6067350E-005
2	1	0	1	0	1,113268470789578E+005	2,6270261E+000	2,6264515E+000	3,619042936634309E-002	1,000000000000000E+000	-4,8900051E-003	41	9,5052405E-005
2	1	0	1	0	1,113401750758165E+005	2,6390212E+000	2,6384482E+000	3,571625302414660E-002	1,000000000000000E+000	-4,4100420E-003	41	9,4235482E-005
2	1	0	1	0	1,113535030726879E+005	2,6510162E+000	2,6504517E+000	3,523101704081003E-002	1,000000000000000E+000	-3,9364900E-003	41	9,3378105E-005
2	1	0	1	0	1,113668310695246E+005	2,6630116E+000	2,6624691E+000	3,472531304831772E-002	1,000000000000000E+000	-3,4692173E-003	41	9,2455077E-005
2	1	0	1	0	1,113801591663458E+005	2,6750069E+000	2,6744564E+000	3,417072266073995E-002	1,000000000000000E+000	-3,0092411E-003	41	9,1388109E-005
2	1	0	1	0	1,113934870632067E+005	2,6870022E+000	2,6864290E+000	3,355253881205261E-002	1,000000000000000E+000	-2,5572137E-003	41	9,0136513E-005
2	1	0	1	0	1,114068151600794E+005	2,6989977E+000	2,6984479E+000	3,295890622931576E-002	1,000000000000000E+000	-2,1130950E-003	41	8,8937893E-005
2	1	0	1	0	1,114201430569119E+005	2,7109923E+000	2,7104554E+000	3,241394312829771E-002	1,000000000000000E+000	-1,6766553E-003	41	8,7856548E-005
2	1	0	1	0	1,114334711537347E+005	2,7229877E+000	2,7224360E+000	3,194468561921515E-002	1,000000000000000E+000	-1,2471661E-003	41	8,6967360E-005
2	1	0	1	0	1,114467990505975E+005	2,7349827E+000	2,7344398E+000	3,143276703369513E-002	1,000000000000000E+000	-8,2420401E-004	41	8,5951011E-005
2	1	0	1	0	1,114601271474683E+005	2,7469780E+000	2,7464325E+000	3,100506383843593E-002	1,000000000000000E+000	-4,0738040E-004	41	8,5153319E-005
2	1	0	1	0	1,114734550443011E+005	2,7589731E+000	2,7584348E+000	3,057648530135920E-002	1,000000000000000E+000	3,6752401E-006	41	8,4343243E-005
2	1	0	1	0	1,114867831411230E+005	2,7709687E+000	2,7704499E+000	3,021438402805977E-002	1,000000000000000E+000	4,0960085E-004	41	8,3707433E-005
2	1	0	1	0	1,115001110379865E+005	2,7829638E+000	2,7824159E+000	2,992154256973881E-002	1,000000000000000E+000	8,1108924E-004	41	8,3254177E-005
2	1	0	1	0	1,115134390348599E+005	2,7949588E+000	2,7944293E+000	2,967558378202539E-002	1,000000000000000E+000	1,2091111E-003	41	8,2926323E-005
2	1	0	1	0	1,115267672316890E+005	2,8069541E+000	2,8064301E+000	2,951246124442320E-002	1,000000000000000E+000	1,6043666E-003	41	8,2824663E-005
2	1	0	1	0	1,115400952285111E+005	2,8189492E+000	2,8184378E+000	2,940475474156579E-002	1,000000000000000E+000	1,9982527E-003	41	8,2875471E-005
2	1	0	1	0	1,115534233253781E+005	2,8309445E+000	2,8304148E+000	2,928554626919871E-002	1,000000000000000E+000	2,3901046E-003	41	8,2890241E-005
2	1	0	1	0	1,115667512222490E+005	2,8429396E+000	2,8423915E+000	2,922647807500053E-002	1,000000000000000E+000	2,7809106E-003	41	8,3073093E-005
2	1	0	1	0	1,115800793190777E+005	2,8549349E+000	2,8544197E+000	2,915086701964170E-002	1,000000000000000E+000	3,1706749E-003	41	8,3208812E-005
2	1	0	1	0	1,115934072159005E+005	2,8669300E+000	2,8663909E+000	2,901090324921492E-002	1,000000000000000E+000	3,5589025E-003	41	8,3156592E-005
2	1	0	1	0	1,116067353127672E+005	2,8789253E+000	2,8784063E+000	2,884180960806293E-002	1,000000000000000E+000	3,9453437E-003	41	8,3018444E-005
2	1	0	1	0	1,116200632096401E+005	2,8909204E+000	2,8904047E+000	2,868076213061634E-002	1,000000000000000E+000	4,3295464E-003	41	8,2899009E-005
2	1	0	1	0	1,116333913064666E+005	2,9029160E+000	2,9024079E+000	2,856132441438325E-002	1,000000000000000E+000	4,7118939E-003	41	8,2896615E-005
2	1	0	1	0	1,116467192032881E+005	2,9149113E+000	2,9143977E+000	2,849291834703700E-002	1,000000000000000E+000	5,0928812E-003	41	8,3039697E-005
2	1	0	1	0	1,116600473001587E+005	2,9269063E+000	2,9263904E+000	2,841520461336930E-002	1,000000000000000E+000	5,4729474E-003	41	8,3153980E-005
2	1	0	1	0	1,116733751970302E+005	2,9389014E+000	2,9383862E+000	2,835708861510065E-002	1,000000000000000E+000	5,8520688E-003	41	8,3324077E-005
2	1	0	1	0	1,116867032938547E+005	2,9508967E+000	2,9503944E+000	2,823787490486612E-002	1,000000000000000E+000	6,2300246E-003	41	8,3312865E-005
2	1	0	1	0	1,117000311906787E+005	2,9628916E+000	2,9623747E+000	2,807730688384597E-002	1,000000000000000E+000	6,6061728E-003	41	8,3175502E-005
2	1	0	1	0	1,117133591875483E+005	2,9748869E+000	2,9743795E+000	2,786958969871931E-002	1,000000000000000E+000	6,9798836E-003	41	8,2894738E-005
2	1	0	1	0	1,117266874844196E+005	2,9868824E+000	2,9863532E+000	2,769679059621713E-002	1,000000000000000E+000	7,3511070E-003	41	8,2712395E-005
2	1	0	1	0	1,117400153812441E+005	2,9988773E+000	2,9983277E+000	2,761294643132556E-002	1,000000000000000E+000	7,7204448E-003	41	8,2792663E-005
2	1	0	1	1	1,117518997784111E+005	2,9904807E+000	2,9899564E+000	2,034045733822380E-002	1,000000000000000E+000	7,9948474E-003	41	6,0817081E-005
2	1	0	1	1	1,117652277752775E+005	2,9784856E+000	2,9779727E+000	1,738454645006549E-002	1,000000000000000E+000	8,2439119E-003	41	5,1770705E-005
2	1	0	1	1	1,117785557721495E+005	2,9664905E+000	2,9659829E+000	1,528792336367690E-002	1,000000000000000E+000	8,4604174E-003	41	4,5343721E-005
2	1	0	1	1	1,117918838689768E+005	2,9544954E+000	2,9539993E+000	1,364486483886785E-002	1,000000000000000E+000	8,6520649E-003	41	4,0306921E-005
2	1	0	1	1	1,118052117657979E+005	2,9424996E+000	2,9419963E+000	1,226401378102118E-002	1,000000000000000E+000	8,8237477E-003	41	3,6080684E-005
2	1	0	1	1	1,118185398626681E+005	2,9305046E+000	2,9300132E+000	1,111084232889877E-002	1,000000000000000E+000	8,9784702E-003	41	3,2554915E-005
2	1	0	1	1	1,118318679595402E+005	2,9185092E+000	2,9179900E+000	1,009321974249262E-002	1,000000000000000E+000	9,1189165E-003	41	2,9451914E-005
2	1	0	1	1	1,118451958563640E+005	2,9065144E+000	2,9060092E+000	9,197470545450462E-003	1,000000000000000E+000	9,2465719E-003	41	2,6727934E-005
2	1	0	1	1	1,118585239531881E+005	2,8945191E+000	2,8940346E+000	8,394232063602503E-003	1,000000000000000E+000	9,3629090E-003	41	2,4293198E-005
2	1	0	1	1	1,118718518500584E+005	2,8825243E+000	2,8819914E+000	7,702637092993285E-003	1,000000000000000E+000	9,4691589E-003	41	2,2198934E-005
2	1	0	1	1	1,118851798469292E+005	2,8705289E+000	2,8700182E+000	7,039945394192129E-003	1,000000000000000E+000	9,5663918E-003	41	2,0204772E-005
2	1	0	1	1	1,118985078437542E+005	2,8585334E+000	2,8580291E+000	6,451852845987732E-003	1,000000000000000E+000	9,6554076E-003	41	1,8439583E-005
2	1	0	1	1	1,119118358405772E+005	2,8465381E+000	2,8459930E+000	5,917938795238775E-003	1,000000000000000E+000	9,7370017E-003	41	1,6842412E-005
2	1	0	1	1	1,119251638374483E+005	2,8345430E+000	2,8340387E+000	5,456312138576103E-003	1,000000000000000E+000	9,8119304E-003	41	1,5463400E-005
2	1	0	1	1	1,119384918343202E+005	2,8225482E+000	2,8220458E+000	5,027541319845126E-003	1,000000000000000E+000	9,8808883E-003	41	1,4187952E-005
2	1	0	1	1	1,119518198311420E+005	2,8105531E+000	2,8100054E+000	4,637998487390538E-003	1,000000000000000E+000	9,9443011E-003	42	1,3032801E-005
2	1	0	1	1	1,119651478279670E+005	2,7985575E+000	2,7980008E+000	4,296935662953954E-003	1,000000000000000E+000	1,0002987E-002	42	1,2022830E-005
2	1	0	1	1	1,119784756248395E+005	2,7865624E+000	2,7860196E+000	3,950988727255980E-003	1,000000000000000E+000	1,0057134E-002	42	1,1007532E-005
2	1	0	1	1	1,119918038217076E+005	2,7745669E+000	2,7740104E+000	3,648243307471058E-003	1,000000000000000E+000	1,0107056E-002	42	1,0120265E-005
2	1	0	1	1	1,120051317185308E+005	2,7625718E+000	2,7620063E+000	3,374890311118685E-003	1,000000000000000E+000	1,0153091E-002	42	9,3214685E-006
2	1	0	1	1	1,120184598153572E+005	2,7505767E+000	2,7500076E+000	3,113310709804230E-003	1,000000000000000E+000	1,0195524E-002	42	8,5616284E-006
2	1	0	1	1	1,120317877122281E+005	2,7385812E+000	2,7380459E+000	2,851043696281676E-003	1,000000000000000E+000	1,0234475E-002	42	7,8062885E-006
2	1	0	1	1	1,120451158090968E+005	2,7265866E+000	2,7260451E+000	2,596317802265530E-003	1,000000000000000E+000	1,0270034E-002	42	7,0776796E-006
2	1	0	1	1	1,120584437059187E+005	2,7145910E+000	2,7140462E+000	2,338835357966772E-003	1,000000000000000E+000	1,0302179E-002	42	6,3477073E-006
2	1	0	1	1	1,120717717027463E+005	2,7025957E+000	2,7020652E+000	2,098367004193878E-003	1,000000000000000E+000	1,0331037E-002	42	5,6699246E-006
2	1	0	1	1	1,120850996996197E+005	2,6906006E+000	2,6900537E+000	1,834986604416595E-003	1,000000000000000E+000	1,0356554E-002	42	4,9362125E-006
2	1	0	1	1	1,120984276964846E+005	2,6786053E+000	2,6780732E+000	1,577369347655618E-003	1,000000000000000E+000	1,0378504E-002	42	4,2243105E-006
2	1	0	1	1	1,121117556933069E+005	2,6666102E+000	2,6660843E+000	1,285458183056500E-003	1,000000000000000E+000	1,0396861E-002	42	3,4271400E-006
2	1	0	1	1	1,121250836901381E+005	2,6546149E+000	2,6541207E+000	9,581205193659667E-004	1,000000000000000E+000	1,0411109E-002	42	2,5429674E-006
2	1	0	1	1	1,121384118870089E+005	2,6426198E+000	2,6420245E+000	5,605383991568059E-004	1,000000000000000E+000	1,0420698E-002	43	1,4809561E-006
2	1	0	1	1	1,121517396838737E+005	2,6306245E+000	2,6300750E+000	2,177218729711384E-004	1,000000000000000E+000	1,0425370E-002	43	5,7262486E-007
2	0	0	1	1	1,121650676806965E+005	2,6186295E+000	2,6181355E+000	-1,348547333660274E-004	1,000000000000000E+000	1,0425235E-002	43	-3,5306795E-007
2	0	0	1	1	1,121783955775274E+005	2,6066344E+000	2,6061394E+000	-4,072310926403117E-004	1,000000000000000E+000	1,0420939E-002	43	-1,0613010E-006
2	0	0	1	1	1,121917236744005E+005	2,5946388E+000	2,5941749E+000	-6,024606790263915E-004	1,000000000000000E+000	1,0413475E-002	43	-1,5628883E-006
2	0	0	1	1	1,122050516712628E+005	2,5826437E+000	2,5822401E+000	-7,634855786094168E-004	1,000000000000000E+000	1,0403777E-002	43	-1,9715030E-006
2	0	0	1	1	1,122183796680844E+005	2,5706484E+000	2,5701435E+000	-9,284101370352644E-004	1,000000000000000E+000	1,0391797E-002	42	-2,3861473E-006
2	0	0	1	1	1,122317076649193E+005	2,5586531E+000	2,5581493E+000	-1,117148702256810E-003	1,000000000000000E+000	1,0377479E-002	42	-2,8578331E-006
2	0	0	1	1	1,122450356617908E+005	2,5466580E+000	2,5461454E+000	-1,325310524728240E-003	1,000000000000000E+000	1,0360541E-002	42	-3,3744334E-006
2	0	0	1	1	1,122583636586512E+005	2,5346630E+000	2,5341625E+000	-1,550554672160769E-003	1,000000000000000E+000	1,0340639E-002	42	-3,9293577E-006
2	0	0	1	1	1,122716916554749E+005	2,5226676E+000	2,5221672E+000	-1,775649494352170E-003	1,000000000000000E+000	1,0317693E-002	42	-4,4784847E-006
2	0	0	1	1	1,122850196523091E+005	2,5106726E+000	2,5101767E+000	-2,018857882523352E-003	1,000000000000000E+000	1,0291727E-002	42	-5,0676899E-006
2	0	0	1	1	1,122983476491813E+005	2,4986775E+000	2,4982054E+000	-2,232352897191051E-003	1,000000000000000E+000	1,0262717E-002	42	-5,5768760E-006
2	0	0	1	1	1,123116757460409E+005	2,4866822E+000	2,4861877E+000	-2,444829290083654E-003	1,000000000000000E+000	1,0230741E-002	42	-6,0783045E-006
2	0	0	1	1	1,123250036428622E+005	2,4746869E+000	2,4741828E+000	-2,678289996724659E-003	1,000000000000000E+000	1,0195673E-002	42	-6,6265793E-006
2	0	0	1	1	1,123383317396995E+005	2,4626915E+000	2,4621980E+000	-2,920444372589773E-003	1,000000000000000E+000	1,0157520E-002	42	-7,1907125E-006
2	0	0	1	1	1,123516597365714E+005	2,4506965E+000	2,4502039E+000	-3,171564828081890E-003	1,000000000000000E+000	1,0116118E-002	42	-7,7709801E-006
2	0	0	1	1	1,123649875334278E+005	2,4387016E+000	2,4382529E+000	-3,389365914602718E-003	1,000000000000000E+000	1,0071592E-002	42	-8,2641318E-006
2	0	0	1	1	1,123783156302515E+005	2,4267061E+000	2,4262364E+000	-3,625464946875052E-003	1,000000000000000E+000	1,0023939E-002	42	-8,7962353E-006
2	0	0	1	1	1,123916435270901E+005	2,4147110E+000	2,4142206E+000	-3,806537889212612E-003	1,000000000000000E+000	9,9736443E-003	42	-9,1898219E-006
2	0	0	1	1	1,124049716239616E+005	2,4027154E+000	2,4022350E+000	-3,952979407269464E-003	1,000000000000000E+000	9,9211037E-003	42	-9,4959860E-006
2	0	0	1	1	1,124182995208183E+005	2,3907206E+000	2,3902378E+000	-4,083573599178839E-003	1,000000000000000E+000	9,8668160E-003	42	-9,7607117E-006
2	0	0	1	1	1,124316276176397E+005	2,3787253E+000	2,3782451E+000	-4,204578819322097E-003	1,000000000000000E+000	9,8108379E-003	42	-9,9995186E-006
2	0	0	1	1	1,124449555144804E+005	2,3667305E+000	2,3662562E+000	-4,325399694488436E-003	1,000000000000000E+000	9,7532887E-003	42	-1,0235004E-005
2	0	0	1	1	1,124582835113532E+005	2,3547351E+000	2,3542590E+000	-4,451916634978230E-003	1,000000000000000E+000	9,6940659E-003	42	-1,0480965E-005
2	0	0	1	1	1,124716115082060E+005	2,3427403E+000	2,3422732E+000	-4,590630844936758E-003	1,000000000000000E+000	9,6330224E-003	42	-1,0752512E-005
2	0	0	1	1	1,124849396050291E+005	2,3307445E+000	2,3302622E+000	-4,748907391255877E-003	1,000000000000000E+000	9,5700352E-003	42	-1,1066199E-005
2	0	0	1	1	1,124982675018715E+005	2,3187492E+000	2,3183005E+000	-4,886159424094358E-003	1,000000000000000E+000	9,5050726E-003	42	-1,1327586E-005
2	0	0	1	1	1,125115955987424E+005	2,3067541E+000	2,3063073E+000	-5,063709055461718E-003	1,000000000000000E+000	9,4379699E-003	42	-1,1678469E-005
2	0	0	1	1	1,125249235955958E+005	2,2947590E+000	2,2942677E+000	-5,230172274545641E-003	1,000000000000000E+000	9,3685547E-003	42	-1,1999415E-005
2	0	0	1	1	1,125382515924176E+005	2,2827637E+000	2,2822781E+000	-5,420511440636891E-003	1,000000000000000E+000	9,2968047E-003	42	-1,2371114E-005
2	0	0	1	1	1,125515795892610E+005	2,2707686E+000	2,2702928E+000	-5,621907848631161E-003	1,000000000000000E+000	9,2224730E-003	42	-1,2763377E-005
2	0	0	1	1	1,125649074861343E+005	2,2587733E+000	2,2582884E+000	-5,817217096026436E-003	1,000000000000000E+000	9,1454908E-003	42	-1,3136953E-005
2	0	0	1	1	1,125782353829839E+005	2,2467780E+000	2,2462969E+000	-6,026891486319463E-003	1,000000000000000E+000	9,0657193E-003	42	-1,3538188E-005
2	0	0	1	1	1,125915634798061E+005	2,2347829E+000	2,2343173E+000	-6,254650512388160E-003	1,000000000000000E+000	8,9830840E-003	42	-1,3974874E-005
2	0	0	1	1	1,126048913766526E+005	2,2227879E+000	2,2223113E+000	-6,485624700621395E-003	1,000000000000000E+000	8,8974210E-003	42	-1,4413077E-005
2	0	0	1	1	1,126182194735235E+005	2,2107928E+000	2,2103438E+000	-6,726592939126613E-003	1,000000000000000E+000	8,8086594E-003	42	-1,4868083E-005
2	0	0	1	1	1,126315475703722E+005	2,1987972E+000	2,1983373E+000	-6,972667390443082E-003	1,000000000000000E+000	8,7166149E-003	42	-1,5328274E-005
2	0	0	1	1	1,126448754671950E+005	2,1868021E+000	2,1863492E+000	-7,235601450980490E-003	1,000000000000000E+000	8,6211385E-003	42	-1,5819551E-005
2	0	0	1	1	1,126582035640412E+005	2,1748068E+000	2,1743393E+000	-7,502235657347964E-003	1,000000000000000E+000	8,5221538E-003	42	-1,6312406E-005
2	0	0	1	1	1,126715315609141E+005	2,1628115E+000	2,1623540E+000	-7,791428157282010E-003	1,000000000000000E+000	8,4194262E-003	42	-1,6847825E-005
2	0	0	1	1	1,126848595577607E+005	2,1508164E+000	2,1503682E+000	-8,106356891376953E-003	1,000000000000000E+000	8,3127227E-003	42	-1,7431652E-005
2	0	0	1	1	1,126981875545822E+005	2,1388214E+000	2,1383712E+000	-8,409831749864906E-003	1,000000000000000E+000	8,2019074E-003	42	-1,7983342E-005
2	0	0	1	1	1,127115155514328E+005	2,1268263E+000	2,1263933E+000	-8,752616808131691E-003	1,000000000000000E+000	8,0868611E-003	42	-1,8611507E-005
2	0	0	1	1	1,127248435483042E+005	2,1148310E+000	2,1143968E+000	-9,088999674335400E-003	1,000000000000000E+000	7,9672206E-003	42	-1,9217752E-005
2	0	0	1	1	1,127381715451488E+005	2,1028357E+000	2,1024275E+000	-9,448012408090026E-003	1,000000000000000E+000	7,8429971E-003	42	-1,9863761E-005
2	0	0	1	1	1,127514995419724E+005	2,0908403E+000	2,0904374E+000	-9,813770177302727E-003	1,000000000000000E+000	7,7137733E-003	42	-2,0515072E-005
2	0	0	1	1	1,127648273388224E+005	2,0788453E+000	2,0783465E+000	-1,021900103793939E-002	1,000000000000000E+000	7,5791781E-003	41	-2,1238626E-005
2	0	0	1	1	1,127781554356944E+005	2,0668502E+000	2,0663261E+000	-1,062353649320724E-002	1,000000000000000E+000	7,4393959E-003	41	-2,1951691E-005
2	0	0	1	1	1,127914833325386E+005	2,0548551E+000	2,0543251E+000	-1,105907710587006E-002	1,000000000000000E+000	7,2941114E-003	41	-2,2718939E-005
2	0	0	1	1	1,128048114293596E+005	2,0428598E+000	2,0423043E+000	-1,149022727538090E-002	1,000000000000000E+000	7,1430039E-003	41	-2,3466540E-005
2	0	0	1	1	1,128181395262131E+005	2,0308642E+000	2,0303278E+000	-1,197884357121703E-002	1,000000000000000E+000	6,9858083E-003	41	-2,4320980E-005
2	0	0	1	1	1,128314674230851E+005	2,0188692E+000	2,0183315E+000	-1,248078493386399E-002	1,000000000000000E+000	6,8220724E-003	41	-2,5190362E-005
2	0	0	1	1	1,128447955199258E+005	2,0068738E+000	2,0063524E+000	-1,299974373653803E-002	1,000000000000000E+000	6,6514337E-003	41	-2,6082067E-005
2	0	0	1	1	1,128581234167493E+005	1,9948791E+000	1,9943674E+000	-1,354792554213735E-002	1,000000000000000E+000	6,4737401E-003	41	-2,7019540E-005
2	0	0	1	1	1,128714514136033E+005	1,9828839E+000	1,9823161E+000	-1,409182532581219E-002	1,000000000000000E+000	6,2887548E-003	41	-2,7934453E-005
2	0	0	1	1	1,128847794104746E+005	1,9708889E+000	1,9703662E+000	-1,464364363161305E-002	1,000000000000000E+000	6,0964148E-003	41	-2,8853341E-005
2	0	0	1	1	1,128981074073154E+005	1,9588935E+000	1,9583524E+000	-1,520353533703371E-002	1,000000000000000E+000	5,8966684E-003	41	-2,9773881E-005
2	0	0	1	1	1,129114354041370E+005	1,9468982E+000	1,9463255E+000	-1,577760037848325E-002	1,000000000000000E+000	5,6894948E-003	41	-3,0708346E-005
2	0	0	1	1	1,129247634009928E+005	1,9349030E+000	1,9343500E+000	-1,637781348241446E-002	1,000000000000000E+000	5,4745190E-003	41	-3,1680425E-005
2	0	0	1	1	1,129380914978660E+005	1,9229077E+000	1,9223675E+000	-1,702350185477094E-002	1,000000000000000E+000	5,2511566E-003	41	-3,2725427E-005
2	0	0	1	1	1,129514194947029E+005	1,9109126E+000	1,9103736E+000	-1,771057168359663E-002	1,000000000000000E+000	5,0188429E-003	41	-3,3833807E-005
2	0	0	1	1	1,129647474915257E+005	1,8989174E+000	1,8983858E+000	-1,842197991881786E-002	1,000000000000000E+000	4,7773360E-003	41	-3,4972025E-005
2	0	0	1	1	1,129780754883839E+005	1,8869220E+000	1,8863951E+000	-1,918075650446277E-002	1,000000000000000E+000	4,5259227E-003	41	-3,6182486E-005
2	0	0	1	1	1,129914035852547E+005	1,8749268E+000	1,8744315E+000	-1,995458764504709E-002	1,000000000000000E+000	4,2642122E-003	41	-3,7403508E-005
2	0	0	1	1	1,130047315820919E+005	1,8629317E+000	1,8624012E+000	-2,078347707026640E-002	1,000000000000000E+000	3,9918134E-003	41	-3,8707174E-005
2	0	0	1	1	1,130180595789142E+005	1,8509365E+000	1,8503945E+000	-2,164360271125265E-002	1,000000000000000E+000	3,7081328E-003	41	-4,0049203E-005
2	0	0	1	1	1,130313875757731E+005	1,8389413E+000	1,8384221E+000	-2,254405147935878E-002	1,000000000000000E+000	3,4127939E-003	41	-4,1445481E-005
2	0	0	1	1	1,130447155726466E+005	1,8269461E+000	1,8264050E+000	-2,351424829718034E-002	1,000000000000000E+000	3,1050353E-003	41	-4,2946544E-005
2	0	0	1	1	1,130580435694808E+005	1,8149509E+000	1,8144097E+000	-2,453102174988638E-002	1,000000000000000E+000	2,7841374E-003	41	-4,4509325E-005
2	0	0	1	1	1,130713715663026E+005	1,8029555E+000	1,8024123E+000	-2,565362294953096E-002	1,000000000000000E+000	2,4489888E-003	41	-4,6238405E-005
2	0	0	1	1	1,130846995631654E+005	1,7909604E+000	1,7904302E+000	-2,683406568283780E-002	1,000000000000000E+000	2,0984083E-003	41	-4,8044520E-005
2	0	0	1	1	1,130980275600364E+005	1,7789654E+000	1,7784313E+000	-2,815177895904394E-002	1,000000000000000E+000	1,7311658E-003	41	-5,0066006E-005
2	0	0	1	1	1,131113555568696E+005	1,7669702E+000	1,7664353E+000	-2,955389459321417E-002	1,000000000000000E+000	1,3458334E-003	41	-5,2205043E-005
2	0	0	1	1	1,131246835536924E+005	1,7549751E+000	1,7544698E+000	-3,104404301649211E-002	1,000000000000000E+000	9,4110164E-004	41	-5,4465836E-005
2	0	0	1	1	1,131380115505545E+005	1,7429796E+000	1,7424477E+000	-3,262206419097657E-002	1,000000000000000E+000	5,1607547E-004	41	-5,6842240E-005
2	0	0	1	1	1,131513395474274E+005	1,7309844E+000	1,7304544E+000	-3,425545112016049E-002	1,000000000000000E+000	6,9613205E-005	41	-5,9277496E-005
2	0	0	1	1	1,131610475451222E+005	1,7222385E+000	1,7217157E+000	-3,547646190106341E-002	1,000000000000000E+000	-2,6940179E-004	41	-6,1080384E-005