File: Dati/210311/CV_LTO_MX_10 layer_grafite nuova_0.1_1mVs_08_CV_C03.mpt
EC-Lab ASCII FILE
Nb header lines : 57

Cyclic Voltammetry

Run on channel : 3 (SN 6807)
User :
Electrode connection : standard
Ewe ctrl range : min = 0,00 V, max = 5,00 V
Ewe,I filtering : 50 kHz
Safety Limits :
	Do not start on E overload
Channel : Grounded
Acquisition started on : 03/11/2021 17:24:33
Saved on :
	File : CV_LTO_MX_10 layer_grafite nuova_0.1_1mVs_08_CV_C03.mpr
	Directory : C:\Users\labsuperfici\Desktop\Biologic\Users\Prisca Viviani\210311\
	Host : 169.254.114.127
Device : VSP-300 (SN 0638)
Address : USB
EC-Lab for windows v11.31 (software)
Internet server v11.30 (firmware)
Command interpretor v11.31 (firmware)
Electrode material :
Initial state :
Electrolyte :
Comments :
Cable : standard
Reference electrode : SCE Saturated Calomel Electrode (0,241 V)
Electrode surface area : 0,001 cm²
Characteristic mass : 0,001 g
Equivalent Weight : 0,000 g/eq.
Density : 0,000 g/cm3
Cycle Definition : Charge/Discharge alternance
Ei (V)              0,000
vs.                 Eoc
dE/dt               0,800
dE/dt unit          mV/s
E1 (V)              1,000
vs.                 Ref
Step percent        50
N                   10
E range min (V)     0,000
E range max (V)     5,000
I Range             Auto
I Range min         Unset
I Range max         Unset
I Range init        Unset
Bandwidth           8
E2 (V)              3,000
vs.                 Ref
nc cycles           0
Reverse Scan        1
Ef (V)              0,000
vs.                 Eoc

mode	ox/red	error	control changes	counter inc.	time/s	control/V	Ewe/V	<I>/mA	cycle number	(Q-Qo)/C	I Range	P/W
2	0	0	0	0	1,037164095791420E+005	1,7222385E+000	1,7216966E+000	-3,543144464492798E-002	1,000000000000000E+000	0,0000000E+000	41	-6,1002200E-005
2	0	0	1	0	1,037308412757386E+005	1,7106926E+000	1,7101252E+000	-3,418588515915055E-002	1,000000000000000E+000	-4,8126790E-004	41	-5,8462145E-005
2	0	0	1	0	1,037458353722196E+005	1,6986973E+000	1,6981583E+000	-3,612874082148396E-002	1,000000000000000E+000	-1,0096112E-003	41	-6,1352323E-005
2	0	0	1	0	1,037608293686503E+005	1,6867023E+000	1,6861660E+000	-3,805009986659311E-002	1,000000000000000E+000	-1,5668584E-003	41	-6,4158783E-005
2	0	0	1	0	1,037758234650837E+005	1,6747071E+000	1,6741861E+000	-3,997445986895920E-002	1,000000000000000E+000	-2,1527999E-003	41	-6,6924687E-005
2	0	0	1	0	1,037908174615642E+005	1,6627120E+000	1,6621699E+000	-4,197167848704675E-002	1,000000000000000E+000	-2,7681075E-003	41	-6,9764064E-005
2	0	0	1	0	1,038058114580243E+005	1,6507165E+000	1,6501763E+000	-4,406537110208808E-002	1,000000000000000E+000	-3,4140018E-003	41	-7,2715629E-005
2	0	0	1	0	1,038208054544501E+005	1,6387215E+000	1,6381698E+000	-4,629015863038199E-002	1,000000000000000E+000	-4,0922924E-003	41	-7,5831136E-005
2	0	0	1	0	1,038357994509107E+005	1,6267263E+000	1,6261404E+000	-4,865201424021282E-002	1,000000000000000E+000	-4,8049530E-003	41	-7,9115001E-005
2	0	0	1	0	1,038507934473914E+005	1,6147310E+000	1,6141912E+000	-5,118728560501096E-002	1,000000000000000E+000	-5,5542584E-003	41	-8,2626066E-005
2	0	0	1	0	1,038657874438246E+005	1,6027359E+000	1,6022201E+000	-5,387872074927159E-002	1,000000000000000E+000	-6,3427314E-003	41	-8,6325570E-005
2	0	0	1	0	1,038807814402562E+005	1,5907406E+000	1,5902227E+000	-5,674280093096007E-002	1,000000000000000E+000	-7,1728989E-003	41	-9,0233691E-005
2	0	0	1	0	1,038957754367378E+005	1,5787455E+000	1,5782342E+000	-5,981305512267610E-002	1,000000000000000E+000	-8,0476776E-003	41	-9,4399009E-005
2	0	0	1	0	1,039107694332004E+005	1,5667503E+000	1,5662378E+000	-6,309713927232674E-002	1,000000000000000E+000	-8,9700297E-003	41	-9,8825127E-005
2	0	0	1	0	1,039257634296250E+005	1,5547550E+000	1,5542461E+000	-6,660844925340537E-002	1,000000000000000E+000	-9,9432599E-003	41	-1,0352592E-004
2	0	0	1	0	1,039407574260831E+005	1,5427598E+000	1,5422469E+000	-7,039878020031143E-002	1,000000000000000E+000	-1,0971139E-002	41	-1,0857231E-004
2	0	0	1	0	1,039557514225647E+005	1,5307646E+000	1,5302604E+000	-7,446371569089560E-002	1,000000000000000E+000	-1,2057821E-002	41	-1,1394888E-004
2	0	0	1	0	1,039707454190007E+005	1,5187693E+000	1,5182906E+000	-7,880920480471731E-002	1,000000000000000E+000	-1,3207888E-002	41	-1,1965528E-004
2	0	0	1	0	1,039857394154286E+005	1,5067741E+000	1,5062754E+000	-8,349940080022900E-002	1,000000000000000E+000	-1,4425595E-002	41	-1,2577309E-004
2	0	0	1	0	1,040007334119099E+005	1,4947790E+000	1,4943091E+000	-8,841847850859041E-002	1,000000000000000E+000	-1,5715281E-002	41	-1,3212454E-004
2	0	0	1	0	1,040157274083755E+005	1,4827839E+000	1,4823257E+000	-9,367948612666399E-002	1,000000000000000E+000	-1,7081231E-002	41	-1,3886351E-004
2	0	0	1	0	1,040307214048007E+005	1,4707886E+000	1,4703071E+000	-9,915734906439905E-002	1,000000000000000E+000	-1,8528001E-002	41	-1,4579175E-004
2	0	0	1	0	1,040457154012548E+005	1,4587934E+000	1,4582199E+000	-1,049982359579205E-001	1,000000000000000E+000	-2,0059314E-002	40	-1,5311052E-004
2	0	0	1	0	1,040607094977355E+005	1,4467982E+000	1,4462521E+000	-1,107588156131978E-001	1,000000000000000E+000	-2,1677943E-002	40	-1,6018517E-004
2	0	0	1	0	1,040757034941746E+005	1,4348029E+000	1,4342260E+000	-1,166060749888291E-001	1,000000000000000E+000	-2,3383480E-002	40	-1,6723947E-004
2	0	0	1	0	1,040906974906009E+005	1,4228076E+000	1,4222475E+000	-1,222850630790582E-001	1,000000000000000E+000	-2,5175793E-002	40	-1,7391963E-004
2	0	0	1	0	1,041056914870804E+005	1,4108124E+000	1,4102613E+000	-1,277942388548194E-001	1,000000000000000E+000	-2,7052226E-002	40	-1,8022327E-004
2	0	0	1	0	1,041206853835480E+005	1,3988174E+000	1,3982483E+000	-1,330962618434605E-001	1,000000000000000E+000	-2,9009968E-002	40	-1,8610162E-004
2	0	0	1	0	1,041356793799734E+005	1,3868222E+000	1,3862493E+000	-1,380849518711771E-001	1,000000000000000E+000	-3,1044656E-002	40	-1,9142017E-004
2	0	0	1	0	1,041506733764262E+005	1,3748270E+000	1,3742560E+000	-1,427672993788787E-001	1,000000000000000E+000	-3,3151925E-002	40	-1,9619882E-004
2	0	0	1	0	1,041656673729068E+005	1,3628318E+000	1,3623003E+000	-1,471037438615515E-001	1,000000000000000E+000	-3,5326827E-002	40	-2,0039947E-004
2	0	0	1	0	1,041806613693479E+005	1,3508366E+000	1,3502678E+000	-1,511540356972372E-001	1,000000000000000E+000	-3,7564848E-002	40	-2,0409843E-004
2	0	0	1	0	1,041956553657730E+005	1,3388413E+000	1,3382546E+000	-1,548419504625680E-001	1,000000000000000E+000	-3,9860550E-002	40	-2,0721795E-004
2	0	0	1	0	1,042106493622522E+005	1,3268462E+000	1,3262870E+000	-1,582039444175332E-001	1,000000000000000E+000	-4,2209283E-002	40	-2,0982383E-004
2	0	0	1	0	1,042256433587230E+005	1,3148510E+000	1,3142722E+000	-1,612685822872826E-001	1,000000000000000E+000	-4,4606049E-002	40	-2,1195081E-004
2	0	0	1	0	1,042406373551476E+005	1,3028557E+000	1,3022735E+000	-1,639991933036344E-001	1,000000000000000E+000	-4,7046203E-002	40	-2,1357181E-004
2	0	0	1	0	1,042556314515969E+005	1,2908605E+000	1,2902961E+000	-1,665059741989512E-001	1,000000000000000E+000	-4,9525440E-002	40	-2,1484200E-004
2	0	0	1	0	1,042706254480781E+005	1,2788653E+000	1,2782696E+000	-1,687680309815029E-001	1,000000000000000E+000	-5,2040491E-002	40	-2,1573105E-004
2	0	0	1	0	1,042856194445230E+005	1,2668701E+000	1,2662765E+000	-1,707860047141496E-001	1,000000000000000E+000	-5,4587293E-002	40	-2,1626230E-004
2	0	0	1	0	1,043006134409481E+005	1,2548748E+000	1,2542641E+000	-1,723538366051416E-001	1,000000000000000E+000	-5,7161368E-002	40	-2,1617723E-004
2	0	0	1	0	1,043156075374231E+005	1,2428796E+000	1,2422692E+000	-1,736012674387251E-001	1,000000000000000E+000	-5,9756681E-002	40	-2,1565950E-004
2	0	0	1	0	1,043306013338972E+005	1,2308846E+000	1,2302808E+000	-1,743397559689362E-001	1,000000000000000E+000	-6,2366795E-002	40	-2,1448685E-004
2	0	0	1	0	1,043455953303230E+005	1,2188894E+000	1,2183046E+000	-1,745246190608346E-001	1,000000000000000E+000	-6,4983770E-002	40	-2,1262415E-004
2	0	0	1	0	1,043605893267691E+005	1,2068942E+000	1,2063385E+000	-1,742734618832118E-001	1,000000000000000E+000	-6,7600079E-002	40	-2,1023279E-004
2	0	0	1	0	1,043755833232498E+005	1,1948990E+000	1,1943171E+000	-1,739224154294483E-001	1,000000000000000E+000	-7,0211977E-002	40	-2,0771852E-004
2	0	0	1	0	1,043905773196970E+005	1,1829038E+000	1,1823339E+000	-1,733136708976071E-001	1,000000000000000E+000	-7,2816856E-002	40	-2,0491464E-004
2	0	0	1	0	1,044055713161228E+005	1,1709086E+000	1,1703664E+000	-1,726628898257121E-001	1,000000000000000E+000	-7,5411662E-002	40	-2,0207885E-004
2	0	0	1	0	1,044205653125963E+005	1,1589134E+000	1,1583618E+000	-1,719538116100333E-001	1,000000000000000E+000	-7,7996708E-002	40	-1,9918472E-004
2	0	0	1	0	1,044355593090721E+005	1,1469183E+000	1,1463450E+000	-1,711434664249896E-001	1,000000000000000E+000	-8,0570050E-002	40	-1,9618946E-004
2	0	0	1	0	1,044505534054973E+005	1,1349229E+000	1,1343476E+000	-1,703456656475736E-001	1,000000000000000E+000	-8,3131172E-002	40	-1,9323119E-004
2	0	0	1	0	1,044655474019420E+005	1,1229277E+000	1,1223201E+000	-1,696183267694187E-001	1,000000000000000E+000	-8,5680507E-002	40	-1,9036604E-004
2	0	0	1	0	1,044805413984235E+005	1,1109324E+000	1,1103412E+000	-1,687335488240675E-001	1,000000000000000E+000	-8,8219255E-002	40	-1,8735180E-004
2	0	0	1	0	1,044955353948730E+005	1,0989373E+000	1,0983603E+000	-1,678946351645947E-001	1,000000000000000E+000	-9,0743922E-002	40	-1,8440880E-004
2	0	0	1	0	1,045105294912976E+005	1,0869421E+000	1,0863395E+000	-1,669100284715324E-001	1,000000000000000E+000	-9,3254954E-002	40	-1,8132095E-004
2	0	0	1	0	1,045255233877685E+005	1,0749469E+000	1,0743533E+000	-1,658973740441758E-001	1,000000000000000E+000	-9,5751196E-002	40	-1,7823240E-004
2	0	0	1	0	1,045405173842479E+005	1,0629516E+000	1,0623707E+000	-1,650005449915743E-001	1,000000000000000E+000	-9,8232679E-002	40	-1,7529173E-004
2	0	0	1	0	1,045555112806726E+005	1,0509566E+000	1,0503778E+000	-1,640871946045548E-001	1,000000000000000E+000	-1,0070128E-001	40	-1,7235355E-004
2	0	0	1	0	1,045705052771133E+005	1,0389612E+000	1,0383652E+000	-1,632044434036459E-001	1,000000000000000E+000	-1,0315647E-001	40	-1,6946583E-004
2	0	0	1	0	1,045854992735944E+005	1,0269661E+000	1,0263903E+000	-1,623861768805197E-001	1,000000000000000E+000	-1,0559841E-001	40	-1,6667160E-004
2	0	0	1	0	1,046004932700469E+005	1,0149708E+000	1,0143977E+000	-1,615543619979718E-001	1,000000000000000E+000	-1,0802780E-001	40	-1,6388038E-004
2	0	0	1	0	1,046154872664718E+005	1,0029756E+000	1,0023612E+000	-1,608272806235920E-001	1,000000000000000E+000	-1,1044549E-001	40	-1,6120702E-004
2	0	0	1	0	1,046286079633787E+005	1,0075737E+000	1,0069870E+000	-1,473482060112445E-001	1,000000000000000E+000	-1,1247789E-001	40	-1,4837773E-004
2	0	0	1	0	1,046436019598601E+005	1,0195689E+000	1,0189821E+000	-1,354494485345903E-001	1,000000000000000E+000	-1,1459241E-001	40	-1,3802055E-004
2	0	0	1	0	1,046585960562930E+005	1,0315642E+000	1,0309650E+000	-1,259012198484539E-001	1,000000000000000E+000	-1,1654849E-001	40	-1,2979975E-004
2	0	0	1	0	1,046735900527239E+005	1,0435594E+000	1,0429366E+000	-1,176915272311554E-001	1,000000000000000E+000	-1,1837177E-001	40	-1,2274479E-004
2	0	0	1	0	1,046885840492042E+005	1,0555546E+000	1,0549692E+000	-1,105079642701923E-001	1,000000000000000E+000	-1,2008017E-001	40	-1,1658249E-004
2	0	0	1	0	1,047035780456667E+005	1,0675498E+000	1,0669438E+000	-1,040283538295279E-001	1,000000000000000E+000	-1,2168629E-001	40	-1,1099241E-004
2	0	0	1	0	1,047185720420920E+005	1,0795450E+000	1,0789442E+000	-9,819629559062171E-002	1,000000000000000E+000	-1,2320048E-001	40	-1,0594833E-004
2	0	0	1	0	1,047335660385499E+005	1,0915403E+000	1,0909520E+000	-9,286890101663975E-002	1,000000000000000E+000	-1,2463110E-001	40	-1,0131552E-004
2	0	0	1	0	1,047485600350304E+005	1,1035354E+000	1,1029165E+000	-8,795102699681090E-002	1,000000000000000E+000	-1,2598507E-001	40	-9,7002638E-005
2	0	0	1	0	1,047635540314660E+005	1,1155306E+000	1,1149210E+000	-8,341929785243973E-002	1,000000000000000E+000	-1,2726799E-001	40	-9,3005925E-005
2	0	0	1	0	1,047785480278953E+005	1,1275259E+000	1,1269294E+000	-7,913687566904803E-002	1,000000000000000E+000	-1,2848537E-001	40	-8,9181674E-005
2	0	0	1	0	1,047935420243763E+005	1,1395209E+000	1,1389265E+000	-7,513363850393318E-002	1,000000000000000E+000	-1,2964036E-001	40	-8,5571693E-005
2	0	0	1	0	1,048085361208410E+005	1,1515162E+000	1,1509103E+000	-7,139437224111966E-002	1,000000000000000E+000	-1,3073751E-001	40	-8,2168517E-005
2	0	0	1	0	1,048235301172663E+005	1,1635115E+000	1,1628948E+000	-6,783401810219469E-002	1,000000000000000E+000	-1,3177980E-001	40	-7,8883830E-005
2	0	0	1	0	1,048385241137221E+005	1,1755067E+000	1,1749189E+000	-6,447154778665531E-002	1,000000000000000E+000	-1,3277058E-001	40	-7,5748838E-005
2	0	0	1	0	1,048535181102036E+005	1,1875019E+000	1,1868895E+000	-6,131390560404548E-002	1,000000000000000E+000	-1,3371226E-001	40	-7,2772833E-005
2	0	0	1	0	1,048685121066417E+005	1,1994971E+000	1,1988889E+000	-5,824928240085026E-002	1,000000000000000E+000	-1,3460727E-001	40	-6,9834416E-005
2	0	0	1	0	1,048835061030680E+005	1,2114923E+000	1,2109009E+000	-5,536087954198439E-002	1,000000000000000E+000	-1,3545777E-001	40	-6,7036541E-005
2	0	0	1	0	1,048984999995490E+005	1,2234873E+000	1,2228653E+000	-5,254704578486147E-002	1,000000000000000E+000	-1,3626556E-001	40	-6,4257962E-005
2	0	0	1	0	1,049134939960169E+005	1,2354827E+000	1,2348734E+000	-4,985827567615743E-002	1,000000000000000E+000	-1,3703239E-001	40	-6,1568659E-005
2	0	0	1	0	1,049284881924419E+005	1,2474779E+000	1,2469254E+000	-4,720314892880567E-002	1,000000000000000E+000	-1,3775900E-001	41	-5,8858805E-005
2	0	0	1	0	1,049434821888937E+005	1,2594730E+000	1,2589160E+000	-4,468745009426889E-002	1,000000000000000E+000	-1,3844678E-001	41	-5,6257748E-005
2	0	0	1	0	1,049584761853754E+005	1,2714684E+000	1,2709370E+000	-4,229585526195578E-002	1,000000000000000E+000	-1,3909784E-001	41	-5,3755364E-005
2	0	0	1	0	1,049734701818167E+005	1,2834636E+000	1,2829164E+000	-3,992977612385540E-002	1,000000000000000E+000	-1,3971326E-001	41	-5,1226565E-005
2	0	0	1	0	1,049884641782420E+005	1,2954587E+000	1,2948835E+000	-3,763069675501962E-002	1,000000000000000E+000	-1,4029370E-001	41	-4,8727368E-005
2	0	0	1	0	1,050034582747209E+005	1,3074541E+000	1,3068869E+000	-3,539571125221777E-002	1,000000000000000E+000	-1,4084010E-001	41	-4,6258192E-005
2	0	0	1	0	1,050184522711912E+005	1,3194491E+000	1,3188738E+000	-3,320564803089787E-002	1,000000000000000E+000	-1,4135328E-001	41	-4,3794058E-005
2	0	0	1	0	1,050334461676167E+005	1,3314444E+000	1,3308924E+000	-3,102498504125791E-002	1,000000000000000E+000	-1,4183369E-001	41	-4,1290918E-005
2	0	0	1	0	1,050484401640666E+005	1,3434393E+000	1,3428774E+000	-2,887163571937279E-002	1,000000000000000E+000	-1,4228174E-001	41	-3,8771068E-005
2	0	0	1	0	1,050634341605471E+005	1,3554348E+000	1,3548307E+000	-2,676951516001025E-002	1,000000000000000E+000	-1,4269781E-001	41	-3,6268160E-005
2	0	0	1	0	1,050784281569907E+005	1,3674299E+000	1,3668591E+000	-2,463339419271843E-002	1,000000000000000E+000	-1,4308201E-001	41	-3,3670378E-005
2	0	0	1	0	1,050934221534161E+005	1,3794250E+000	1,3788443E+000	-2,251922461166928E-002	1,000000000000000E+000	-1,4343446E-001	41	-3,1050502E-005
2	0	0	1	0	1,051084161498928E+005	1,3914204E+000	1,3908381E+000	-2,039524731185219E-002	1,000000000000000E+000	-1,4375521E-001	41	-2,8366489E-005
2	0	0	1	0	1,051234103463655E+005	1,4034157E+000	1,4028398E+000	-1,824932344791440E-002	1,000000000000000E+000	-1,4404410E-001	41	-2,5600877E-005
2	0	0	1	0	1,051384043427900E+005	1,4154109E+000	1,4148475E+000	-1,609067508247863E-002	1,000000000000000E+000	-1,4430064E-001	41	-2,2765851E-005
2	0	0	1	0	1,051533983392378E+005	1,4274061E+000	1,4268161E+000	-1,390571565548662E-002	1,000000000000000E+000	-1,4452459E-001	41	-1,9840900E-005
2	0	0	1	0	1,051683923357190E+005	1,4394011E+000	1,4388179E+000	-1,164923334541145E-002	1,000000000000000E+000	-1,4471513E-001	41	-1,6761125E-005
2	0	0	1	0	1,051833863321652E+005	1,4513963E+000	1,4507850E+000	-9,331344484493589E-003	1,000000000000000E+000	-1,4487150E-001	41	-1,3537775E-005
2	0	0	1	0	1,051983803285898E+005	1,4633917E+000	1,4628174E+000	-6,946435984864580E-003	1,000000000000000E+000	-1,4499272E-001	41	-1,0161368E-005
2	0	0	1	0	1,052133743250637E+005	1,4753869E+000	1,4748490E+000	-4,437593887496316E-003	1,000000000000000E+000	-1,4507742E-001	42	-6,5447807E-006
2	0	0	1	0	1,052283683215395E+005	1,4873821E+000	1,4868101E+000	-1,914769481926322E-003	1,000000000000000E+000	-1,4512442E-001	42	-2,8468985E-006
2	1	0	1	0	1,052433623179644E+005	1,4993773E+000	1,4986964E+000	6,979120098422043E-004	1,000000000000000E+000	-1,4513248E-001	43	1,0459582E-006
2	1	0	1	0	1,052583563144084E+005	1,5113724E+000	1,5107392E+000	3,556892296300974E-003	1,000000000000000E+000	-1,4509949E-001	42	5,3735366E-006
2	1	0	1	0	1,052733503108891E+005	1,5233674E+000	1,5227157E+000	6,504107082267369E-003	1,000000000000000E+000	-1,4502327E-001	42	9,9039062E-006
2	1	0	1	0	1,052883443073389E+005	1,5353627E+000	1,5346780E+000	9,670408695337501E-003	1,000000000000000E+000	-1,4490147E-001	42	1,4840964E-005
2	1	0	1	0	1,053033383037644E+005	1,5473580E+000	1,5467499E+000	1,308580798950629E-002	1,000000000000000E+000	-1,4472960E-001	41	2,0240474E-005
2	1	0	1	0	1,053183323002351E+005	1,5593531E+000	1,5587637E+000	1,671810287794334E-002	1,000000000000000E+000	-1,4450547E-001	41	2,6059573E-005
2	1	0	1	0	1,053333264967133E+005	1,5713484E+000	1,5707289E+000	2,062570136343565E-002	1,000000000000000E+000	-1,4422491E-001	41	3,2397384E-005
2	1	0	1	0	1,053483204931392E+005	1,5833436E+000	1,5827224E+000	2,503949439620032E-002	1,000000000000000E+000	-1,4388232E-001	41	3,9630570E-005
2	1	0	1	0	1,053633144895814E+005	1,5953388E+000	1,5947167E+000	3,035072577262143E-002	1,000000000000000E+000	-1,4346725E-001	41	4,8400809E-005
2	1	0	1	0	1,053783084860621E+005	1,6073341E+000	1,6067107E+000	3,682950512051136E-002	1,000000000000000E+000	-1,4296405E-001	41	5,9174359E-005
2	1	0	1	0	1,053933024825137E+005	1,6193292E+000	1,6187123E+000	4,439499914066464E-002	1,000000000000000E+000	-1,4235537E-001	41	7,1862734E-005
2	1	0	1	0	1,054082964789395E+005	1,6313244E+000	1,6306649E+000	5,268729789186427E-002	1,000000000000000E+000	-1,4162701E-001	41	8,5915330E-005
2	1	0	1	0	1,054232904754083E+005	1,6433195E+000	1,6426796E+000	6,142943914749244E-002	1,000000000000000E+000	-1,4077075E-001	41	1,0090889E-004
2	1	0	1	0	1,054382843718885E+005	1,6553147E+000	1,6546460E+000	7,035131470949718E-002	1,000000000000000E+000	-1,3978171E-001	41	1,1640653E-004
2	1	0	1	0	1,054532784683143E+005	1,6673101E+000	1,6665992E+000	7,929638935629701E-002	1,000000000000000E+000	-1,3865879E-001	41	1,3215530E-004
2	1	0	1	0	1,054682724647535E+005	1,6793051E+000	1,6786312E+000	8,823664354611982E-002	1,000000000000000E+000	-1,3740167E-001	41	1,4811679E-004
2	1	0	1	0	1,054832664612352E+005	1,6913004E+000	1,6906134E+000	9,709370458829669E-002	1,000000000000000E+000	-1,3601099E-001	41	1,6414792E-004
2	1	0	1	0	1,054982604576896E+005	1,7032956E+000	1,7027198E+000	1,057749493041684E-001	1,000000000000000E+000	-1,3448854E-001	40	1,8010510E-004
2	1	0	1	0	1,055132545541145E+005	1,7152908E+000	1,7146806E+000	1,143013075032974E-001	1,000000000000000E+000	-1,3283722E-001	40	1,9599023E-004
2	1	0	1	0	1,055282486505795E+005	1,7272861E+000	1,7266757E+000	1,226229839238271E-001	1,000000000000000E+000	-1,3105935E-001	40	2,1173013E-004
2	1	0	1	0	1,055432426470607E+005	1,7392813E+000	1,7386696E+000	1,306847914664091E-001	1,000000000000000E+000	-1,2915875E-001	40	2,2721768E-004
2	1	0	1	0	1,055582366434890E+005	1,7512765E+000	1,7506597E+000	1,384553854588897E-001	1,000000000000000E+000	-1,2713969E-001	40	2,4238827E-004
2	1	0	1	0	1,055732306399243E+005	1,7632716E+000	1,7626370E+000	1,458012771510502E-001	1,000000000000000E+000	-1,2500705E-001	40	2,5699474E-004
2	1	0	1	0	1,055882246364049E+005	1,7752668E+000	1,7746547E+000	1,527915179348864E-001	1,000000000000000E+000	-1,2276679E-001	40	2,7115218E-004
2	1	0	1	0	1,056032186328627E+005	1,7872621E+000	1,7866518E+000	1,592726296423461E-001	1,000000000000000E+000	-1,2042558E-001	40	2,8456474E-004
2	1	0	1	0	1,056182126292880E+005	1,7992572E+000	1,7986723E+000	1,654065969978666E-001	1,000000000000000E+000	-1,1798989E-001	40	2,9751228E-004
2	1	0	1	0	1,056332066257508E+005	1,8112524E+000	1,8106472E+000	1,709485253164265E-001	1,000000000000000E+000	-1,1546635E-001	40	3,0952747E-004
2	1	0	1	0	1,056482006222312E+005	1,8232477E+000	1,8226159E+000	1,760117694273325E-001	1,000000000000000E+000	-1,1286335E-001	40	3,2080183E-004
2	1	0	1	0	1,056631946186622E+005	1,8352427E+000	1,8346212E+000	1,805388573598292E-001	1,000000000000000E+000	-1,1018870E-001	40	3,3122042E-004
2	1	0	1	0	1,056781886150962E+005	1,8472382E+000	1,8466250E+000	1,845955337431833E-001	1,000000000000000E+000	-1,0744978E-001	40	3,4087873E-004
2	1	0	1	0	1,056931826115770E+005	1,8592333E+000	1,8585994E+000	1,881839492362931E-001	1,000000000000000E+000	-1,0465291E-001	40	3,4975857E-004
2	1	0	1	0	1,057081767080368E+005	1,8712282E+000	1,8706220E+000	1,911668234187576E-001	1,000000000000000E+000	-1,0180723E-001	40	3,5760086E-004
2	1	0	1	0	1,057231707044616E+005	1,8832234E+000	1,8826231E+000	1,936165941149852E-001	1,000000000000000E+000	-9,8921113E-002	40	3,6450705E-004
2	1	0	1	0	1,057381647009221E+005	1,8952187E+000	1,8946177E+000	1,956601096848996E-001	1,000000000000000E+000	-9,6001193E-002	40	3,7070111E-004
2	1	0	1	0	1,057531586974033E+005	1,9072139E+000	1,9065886E+000	1,972617762832662E-001	1,000000000000000E+000	-9,3053728E-002	40	3,7609704E-004
2	1	0	1	0	1,057681527938363E+005	1,9192094E+000	1,9185843E+000	1,983529842020659E-001	1,000000000000000E+000	-9,0085998E-002	40	3,8055694E-004
2	1	0	1	0	1,057831467902667E+005	1,9312044E+000	1,9306183E+000	1,989662958936198E-001	1,000000000000000E+000	-8,7105632E-002	40	3,8412798E-004
2	1	0	1	0	1,057981407867485E+005	1,9431999E+000	1,9425852E+000	1,989479400199599E-001	1,000000000000000E+000	-8,4120847E-002	40	3,8647332E-004
2	1	0	1	0	1,058131347832116E+005	1,9551950E+000	1,9545785E+000	1,983512725285479E-001	1,000000000000000E+000	-8,1140541E-002	40	3,8769314E-004
2	1	0	1	0	1,058281287796367E+005	1,9671901E+000	1,9665575E+000	1,972826527887461E-001	1,000000000000000E+000	-7,8172706E-002	40	3,8796768E-004
2	1	0	1	0	1,058431227760932E+005	1,9791852E+000	1,9785653E+000	1,956780444124879E-001	1,000000000000000E+000	-7,5225227E-002	40	3,8716180E-004
2	1	0	1	0	1,058581167725748E+005	1,9911805E+000	1,9906083E+000	1,934372748291247E-001	1,000000000000000E+000	-7,2306283E-002	40	3,8505785E-004
2	1	0	1	0	1,058731108690116E+005	2,0031755E+000	2,0025826E+000	1,906751296218205E-001	1,000000000000000E+000	-6,9424778E-002	40	3,8184269E-004
2	1	0	1	0	1,058881048654397E+005	2,0151706E+000	2,0145726E+000	1,873154478639841E-001	1,000000000000000E+000	-6,6589549E-002	40	3,7736059E-004
2	1	0	1	0	1,059030988619204E+005	2,0271657E+000	2,0265841E+000	1,833572177823037E-001	1,000000000000000E+000	-6,3809484E-002	40	3,7158883E-004
2	1	0	1	0	1,059180929583861E+005	2,0391612E+000	2,0385733E+000	1,789358450599310E-001	1,000000000000000E+000	-6,1092086E-002	40	3,6477382E-004
2	1	0	1	0	1,059330870548119E+005	2,0511563E+000	2,0505657E+000	1,739596779086403E-001	1,000000000000000E+000	-5,8445156E-002	40	3,5671575E-004
2	1	0	1	0	1,059480812512666E+005	2,0631516E+000	2,0625470E+000	1,685748664832445E-001	1,000000000000000E+000	-5,5875853E-002	40	3,4769357E-004
2	1	0	1	0	1,059630752477474E+005	2,0751469E+000	2,0745516E+000	1,627377297055126E-001	1,000000000000000E+000	-5,3390697E-002	40	3,3760781E-004
2	1	0	1	0	1,059780692441864E+005	2,0871420E+000	2,0865631E+000	1,565096890406510E-001	1,000000000000000E+000	-5,0995693E-002	40	3,2656733E-004
2	1	0	1	0	1,059930632406133E+005	2,0991371E+000	2,0985672E+000	1,499260519781180E-001	1,000000000000000E+000	-4,8697233E-002	40	3,1462990E-004
2	1	0	1	0	1,060080572370936E+005	2,1111324E+000	2,1105988E+000	1,431046540928689E-001	1,000000000000000E+000	-4,6499323E-002	40	3,0203653E-004
2	1	0	1	0	1,060230511335616E+005	2,1231275E+000	2,1225762E+000	1,362252213590782E-001	1,000000000000000E+000	-4,4404279E-002	40	2,8914842E-004
2	1	0	1	0	1,060380451299862E+005	2,1351225E+000	2,1345618E+000	1,294925392538875E-001	1,000000000000000E+000	-4,2411413E-002	40	2,7640982E-004
2	1	0	1	0	1,060530391264384E+005	2,1471179E+000	2,1465545E+000	1,226991105412527E-001	1,000000000000000E+000	-4,0520258E-002	40	2,6338032E-004
2	1	0	1	0	1,060680331229196E+005	2,1591132E+000	2,1585238E+000	1,160889328900682E-001	1,000000000000000E+000	-3,8729262E-002	40	2,5058072E-004
2	1	0	1	0	1,060830272193612E+005	2,1711085E+000	2,1705377E+000	1,098853343792951E-001	1,000000000000000E+000	-3,7034821E-002	40	2,3851026E-004
2	1	0	1	0	1,060980211157852E+005	2,1831036E+000	2,1825542E+000	1,039473999403006E-001	1,000000000000000E+000	-3,5431068E-002	40	2,2687083E-004
2	1	0	1	0	1,061130152122639E+005	2,1950986E+000	2,1945169E+000	9,835812964652901E-002	1,000000000000000E+000	-3,3914335E-002	40	2,1584857E-004
2	1	0	1	0	1,061280094087353E+005	2,2070940E+000	2,2065165E+000	9,325447602570641E-002	1,000000000000000E+000	-3,2477599E-002	40	2,0576754E-004
2	1	0	1	0	1,061430034051600E+005	2,2190890E+000	2,2184825E+000	8,844158580043326E-002	1,000000000000000E+000	-3,1115169E-002	40	1,9620611E-004
2	1	0	1	0	1,061579973016086E+005	2,2310843E+000	2,2305429E+000	8,417275409185176E-002	1,000000000000000E+000	-2,9820642E-002	40	1,8775093E-004
2	1	0	1	0	1,061729912980895E+005	2,2430797E+000	2,2424996E+000	8,020795085417209E-002	1,000000000000000E+000	-2,8587516E-002	40	1,7986630E-004
2	1	0	1	0	1,061879852945342E+005	2,2550750E+000	2,2544756E+000	7,653728198250670E-002	1,000000000000000E+000	-2,7411813E-002	40	1,7255143E-004
2	1	0	1	0	1,062029792909592E+005	2,2670701E+000	2,2665040E+000	7,320037417522218E-002	1,000000000000000E+000	-2,6288746E-002	40	1,6590895E-004
2	1	0	1	0	1,062179732874348E+005	2,2790651E+000	2,2784967E+000	7,012218722975927E-002	1,000000000000000E+000	-2,5213704E-002	40	1,5977318E-004
2	1	0	1	0	1,062329672839082E+005	2,2910604E+000	2,2904539E+000	6,730369234184974E-002	1,000000000000000E+000	-2,4182634E-002	40	1,5415601E-004
2	1	0	1	0	1,062479613803336E+005	2,3030553E+000	2,3024709E+000	6,459516250142344E-002	1,000000000000000E+000	-2,3192752E-002	40	1,4872849E-004
2	1	0	1	0	1,062629552767805E+005	2,3150508E+000	2,3144779E+000	6,213639623276207E-002	1,000000000000000E+000	-2,2241909E-002	40	1,4381332E-004
2	1	0	1	0	1,062779493732611E+005	2,3270459E+000	2,3264751E+000	5,973145652782813E-002	1,000000000000000E+000	-2,1327520E-002	40	1,3896375E-004
2	1	0	1	0	1,062929433697080E+005	2,3390412E+000	2,3384752E+000	5,745990852272254E-002	1,000000000000000E+000	-2,0448256E-002	40	1,3436857E-004
2	1	0	1	0	1,063079373661338E+005	2,3510361E+000	2,3504734E+000	5,536534226313461E-002	1,000000000000000E+000	-1,9601114E-002	40	1,3013477E-004
2	1	0	1	0	1,063229314626073E+005	2,3630316E+000	2,3624690E+000	5,337710087642200E-002	1,000000000000000E+000	-1,8785134E-002	40	1,2610175E-004
2	1	0	1	0	1,063379254590836E+005	2,3750267E+000	2,3744323E+000	5,148569993807062E-002	1,000000000000000E+000	-1,7998369E-002	40	1,2224932E-004
2	1	0	1	0	1,063529194555085E+005	2,3870220E+000	2,3864636E+000	4,989746686098029E-002	1,000000000000000E+000	-1,7237278E-002	40	1,1907849E-004
2	1	0	1	0	1,063680383519232E+005	2,3991170E+000	2,3985131E+000	4,837789980700902E-002	1,000000000000000E+000	-1,6494563E-002	41	1,1603502E-004
2	1	0	1	0	1,063830324484048E+005	2,4111123E+000	2,4105210E+000	4,716636689474424E-002	1,000000000000000E+000	-1,5777092E-002	41	1,1369552E-004
2	1	0	1	0	1,063980264448540E+005	2,4231074E+000	2,4225407E+000	4,600641402099648E-002	1,000000000000000E+000	-1,5077898E-002	41	1,1145241E-004
2	1	0	1	0	1,064130204412788E+005	2,4351027E+000	2,4345393E+000	4,493983857531535E-002	1,000000000000000E+000	-1,4395250E-002	41	1,0940780E-004
2	1	0	1	0	1,064280144377495E+005	2,4470983E+000	2,4464755E+000	4,403697327519002E-002	1,000000000000000E+000	-1,3727177E-002	41	1,0773537E-004
2	1	0	1	0	1,064430084342287E+005	2,4590933E+000	2,4584858E+000	4,326163393619287E-002	1,000000000000000E+000	-1,3071823E-002	41	1,0635811E-004
2	1	0	1	0	1,064580024306541E+005	2,4710884E+000	2,4704716E+000	4,248603529343042E-002	1,000000000000000E+000	-1,2428031E-002	41	1,0496054E-004
2	1	0	1	0	1,064729964270955E+005	2,4830835E+000	2,4824960E+000	4,171492793172482E-002	1,000000000000000E+000	-1,1795904E-002	41	1,0355714E-004
2	1	0	1	0	1,064879904235763E+005	2,4950790E+000	2,4944665E+000	4,091879090661477E-002	1,000000000000000E+000	-1,1175401E-002	41	1,0207055E-004
2	1	0	1	0	1,065029844200290E+005	2,5070739E+000	2,5064964E+000	4,015418551010075E-002	1,000000000000000E+000	-1,0566536E-002	41	1,0064632E-004
2	1	0	1	0	1,065179785164543E+005	2,5190692E+000	2,5184898E+000	3,938817359258107E-002	1,000000000000000E+000	-9,9692177E-003	41	9,9198718E-005
2	1	0	1	0	1,065329725129223E+005	2,5310645E+000	2,5304465E+000	3,865251422665339E-002	1,000000000000000E+000	-9,3834130E-003	41	9,7808123E-005
2	1	0	1	0	1,065479666094016E+005	2,5430598E+000	2,5424893E+000	3,795493328407790E-002	1,000000000000000E+000	-8,8082785E-003	41	9,6500014E-005
2	1	0	1	0	1,065629606058284E+005	2,5550549E+000	2,5544560E+000	3,722808360403729E-002	1,000000000000000E+000	-8,2437433E-003	41	9,5097501E-005
2	1	0	1	0	1,065779546022675E+005	2,5670505E+000	2,5664549E+000	3,655852364132559E-002	1,000000000000000E+000	-7,6896101E-003	41	9,3825802E-005
2	1	0	1	0	1,065929485987481E+005	2,5790453E+000	2,5784657E+000	3,588921960111572E-002	1,000000000000000E+000	-7,1454211E-003	41	9,2539121E-005
2	1	0	1	0	1,066079425952027E+005	2,5910404E+000	2,5904601E+000	3,521541463952621E-002	1,000000000000000E+000	-6,6114790E-003	41	9,1224123E-005
2	1	0	1	0	1,066229365916278E+005	2,6030354E+000	2,6024618E+000	3,461992827585869E-002	1,000000000000000E+000	-6,0871472E-003	41	9,0097041E-005
2	1	0	1	0	1,066379305880936E+005	2,6150310E+000	2,6144590E+000	3,403203280284850E-002	1,000000000000000E+000	-5,5718799E-003	41	8,8975357E-005
2	1	0	1	0	1,066529245845745E+005	2,6270261E+000	2,6264374E+000	3,351493180549180E-002	1,000000000000000E+000	-5,0646188E-003	41	8,8024870E-005
2	1	0	1	0	1,066679184810028E+005	2,6390209E+000	2,6384456E+000	3,310427479074884E-002	1,000000000000000E+000	-4,5644287E-003	41	8,7343826E-005
2	1	0	1	0	1,066829124774383E+005	2,6510165E+000	2,6504133E+000	3,263896819606982E-002	1,000000000000000E+000	-4,0705642E-003	41	8,6506756E-005
2	1	0	1	0	1,066979064739195E+005	2,6630116E+000	2,6624241E+000	3,215297048842136E-002	1,000000000000000E+000	-3,5836764E-003	41	8,5604843E-005
2	1	0	1	0	1,067129006703771E+005	2,6750066E+000	2,6744275E+000	3,162435233053673E-002	1,000000000000000E+000	-3,1045063E-003	41	8,4577041E-005
2	1	0	1	0	1,067278946668017E+005	2,6870017E+000	2,6864147E+000	3,105589310622653E-002	1,000000000000000E+000	-2,6336997E-003	41	8,3429011E-005
2	1	0	1	0	1,067428887632637E+005	2,6989973E+000	2,6984239E+000	3,052871167339544E-002	1,000000000000000E+000	-2,1713108E-003	41	8,2379403E-005
2	1	0	1	0	1,067578827597450E+005	2,7109923E+000	2,7103930E+000	3,001998209124646E-002	1,000000000000000E+000	-1,7165217E-003	41	8,1365950E-005
2	1	0	1	0	1,067728767561766E+005	2,7229874E+000	2,7223988E+000	2,955979699350639E-002	1,000000000000000E+000	-1,2690305E-003	41	8,0473554E-005
2	1	0	1	0	1,067878707526096E+005	2,7349830E+000	2,7344089E+000	2,910120626089796E-002	1,000000000000000E+000	-8,2838786E-004	41	7,9574595E-005
2	1	0	1	0	1,068028646490905E+005	2,7469778E+000	2,7464097E+000	2,870793277900170E-002	1,000000000000000E+000	-3,9410981E-004	41	7,8843746E-005
2	1	0	1	0	1,068178586455511E+005	2,7589729E+000	2,7584248E+000	2,833903680926519E-002	1,000000000000000E+000	3,4604323E-005	41	7,8171099E-005
2	1	0	1	0	1,068328526419769E+005	2,7709684E+000	2,7703974E+000	2,801541583932876E-002	1,000000000000000E+000	4,5792089E-004	41	7,7613833E-005
2	1	0	1	0	1,068478466384369E+005	2,7829633E+000	2,7823861E+000	2,773439930199620E-002	1,000000000000000E+000	8,7680953E-004	41	7,7167810E-005
2	1	0	1	0	1,068628406349176E+005	2,7949586E+000	2,7944109E+000	2,751174378867332E-002	1,000000000000000E+000	1,2918595E-003	41	7,6879121E-005
2	1	0	1	0	1,068778346313514E+005	2,8069541E+000	2,8063838E+000	2,734086644113802E-002	1,000000000000000E+000	1,7039108E-003	41	7,6728968E-005
2	1	0	1	0	1,068928286277825E+005	2,8189490E+000	2,8184125E+000	2,722658722460630E-002	1,000000000000000E+000	2,1139407E-003	41	7,6735756E-005
2	1	0	1	0	1,069078228242639E+005	2,8309443E+000	2,8303883E+000	2,729835285509719E-002	1,000000000000000E+000	2,5227068E-003	41	7,7264936E-005
2	1	0	1	0	1,069228168207267E+005	2,8429394E+000	2,8423598E+000	2,707304850509526E-002	1,000000000000000E+000	2,9304172E-003	41	7,6951343E-005
2	1	0	1	0	1,069378108171517E+005	2,8549347E+000	2,8543687E+000	2,699334026706379E-002	1,000000000000000E+000	3,3366089E-003	41	7,7048942E-005
2	1	0	1	0	1,069528048136094E+005	2,8669300E+000	2,8663468E+000	2,682737146145980E-002	1,000000000000000E+000	3,7409484E-003	41	7,6896555E-005
2	1	0	1	0	1,069677988100910E+005	2,8789251E+000	2,8783495E+000	2,670240211436076E-002	1,000000000000000E+000	4,1437563E-003	41	7,6858843E-005
2	1	0	1	0	1,069827928065269E+005	2,8909202E+000	2,8903837E+000	2,655190777823323E-002	1,000000000000000E+000	4,5437408E-003	41	7,6745200E-005
2	1	0	1	0	1,069977868029543E+005	2,9029152E+000	2,9023547E+000	2,644111515947933E-002	1,000000000000000E+000	4,9419221E-003	41	7,6741497E-005
2	1	0	1	0	1,070127807994354E+005	2,9149106E+000	2,9143612E+000	2,637477034527958E-002	1,000000000000000E+000	5,3389305E-003	41	7,6865610E-005
2	1	0	1	0	1,070277747959015E+005	2,9269061E+000	2,9263804E+000	2,627669634532404E-002	1,000000000000000E+000	5,7347487E-003	41	7,6895609E-005
2	1	0	1	0	1,070427687923263E+005	2,9389012E+000	2,9383874E+000	2,618987080641380E-002	1,000000000000000E+000	6,1291498E-003	41	7,6955985E-005
2	1	0	1	0	1,070577627887800E+005	2,9508963E+000	2,9503953E+000	2,604213290060226E-002	1,000000000000000E+000	6,5217256E-003	41	7,6834585E-005
2	1	0	1	0	1,070727567852609E+005	2,9628916E+000	2,9623630E+000	2,587430982479633E-002	1,000000000000000E+000	6,9119637E-003	41	7,6649099E-005
2	1	0	1	0	1,070877507817004E+005	2,9748869E+000	2,9743602E+000	2,566102227777978E-002	1,000000000000000E+000	7,2992439E-003	41	7,6325123E-005
2	1	0	1	0	1,071027449781266E+005	2,9868822E+000	2,9863529E+000	2,553865142355828E-002	1,000000000000000E+000	7,6838625E-003	41	7,6267424E-005
2	1	0	1	0	1,071177387746063E+005	2,9988770E+000	2,9983773E+000	2,546846808565467E-002	1,000000000000000E+000	8,0670854E-003	41	7,6364078E-005
2	1	0	1	1	1,071311085714620E+005	2,9904807E+000	2,9899664E+000	1,873415342787532E-002	1,000000000000000E+000	8,3508901E-003	41	5,6014491E-005
2	1	0	1	1	1,071461025678874E+005	2,9784856E+000	2,9779665E+000	1,601559810123451E-002	1,000000000000000E+000	8,6091245E-003	41	4,7693917E-005
2	1	0	1	1	1,071610965643332E+005	2,9664903E+000	2,9659743E+000	1,408988206209505E-002	1,000000000000000E+000	8,8334139E-003	41	4,1790230E-005
2	1	0	1	1	1,071760907608136E+005	2,9544950E+000	2,9540021E+000	1,256460736842396E-002	1,000000000000000E+000	9,0319561E-003	41	3,7115879E-005
2	1	0	1	1	1,071910845572614E+005	2,9424999E+000	2,9419844E+000	1,130844490614391E-002	1,000000000000000E+000	9,2096850E-003	41	3,3269269E-005
2	1	0	1	1	1,072060787536867E+005	2,9305046E+000	2,9300294E+000	1,021971445384391E-002	1,000000000000000E+000	9,3699545E-003	41	2,9944063E-005
2	1	0	1	1	1,072210727501593E+005	2,9185092E+000	2,9179859E+000	9,272264593618990E-003	1,000000000000000E+000	9,5149707E-003	41	2,7056338E-005
2	1	0	1	1	1,072360667466363E+005	2,9065142E+000	2,9059830E+000	8,438285123364059E-003	1,000000000000000E+000	9,6467147E-003	41	2,4521512E-005
2	1	0	1	1	1,072510607430608E+005	2,8945189E+000	2,8940287E+000	7,702313572738734E-003	1,000000000000000E+000	9,7667389E-003	41	2,2290717E-005
2	1	0	1	1	1,072660547395040E+005	2,8825238E+000	2,8820019E+000	7,041921955046743E-003	1,000000000000000E+000	9,8762633E-003	41	2,0294832E-005
2	1	0	1	1	1,072810487359856E+005	2,8705285E+000	2,8700190E+000	6,449582582291835E-003	1,000000000000000E+000	9,9764122E-003	41	1,8510424E-005
2	1	0	1	1	1,072960427324357E+005	2,8585331E+000	2,8580289E+000	5,910652060944696E-003	1,000000000000000E+000	1,0067989E-002	41	1,6892815E-005
2	1	0	1	1	1,073110367288608E+005	2,8465383E+000	2,8460429E+000	5,425408956244769E-003	1,000000000000000E+000	1,0152087E-002	41	1,5440946E-005
2	1	0	1	1	1,073260307253304E+005	2,8345430E+000	2,8340421E+000	4,987318075486736E-003	1,000000000000000E+000	1,0229140E-002	41	1,4134269E-005
2	1	0	1	1	1,073410246218104E+005	2,8225477E+000	2,8219938E+000	4,603835367834361E-003	1,000000000000000E+000	1,0299951E-002	42	1,2991995E-005
2	1	0	1	1	1,073560186182361E+005	2,8105528E+000	2,8100219E+000	4,249213830021643E-003	1,000000000000000E+000	1,0365304E-002	42	1,1940384E-005
2	1	0	1	1	1,073710127146761E+005	2,7985575E+000	2,7980065E+000	3,930846655873829E-003	1,000000000000000E+000	1,0425651E-002	42	1,0998535E-005
2	1	0	1	1	1,073860066111572E+005	2,7865622E+000	2,7860000E+000	3,612553996410445E-003	1,000000000000000E+000	1,0481283E-002	42	1,0064576E-005
2	1	0	1	1	1,074010007076112E+005	2,7745671E+000	2,7739966E+000	3,359858091412829E-003	1,000000000000000E+000	1,0532669E-002	42	9,3202352E-006
2	1	0	1	1	1,074159947040367E+005	2,7625718E+000	2,7619648E+000	3,097985498399937E-003	1,000000000000000E+000	1,0580046E-002	42	8,5565271E-006
2	1	0	1	1	1,074309887005033E+005	2,7505767E+000	2,7500129E+000	2,849259864689349E-003	1,000000000000000E+000	1,0623756E-002	42	7,8355015E-006
2	1	0	1	1	1,074459826969838E+005	2,7385812E+000	2,7380412E+000	2,625687077763447E-003	1,000000000000000E+000	1,0663950E-002	42	7,1892391E-006
2	1	0	1	1	1,074609766934115E+005	2,7265861E+000	2,7260156E+000	2,398900386521977E-003	1,000000000000000E+000	1,0700730E-002	42	6,5394397E-006
2	1	0	1	1	1,074759706898496E+005	2,7145910E+000	2,7140448E+000	2,164582013854928E-003	1,000000000000000E+000	1,0734061E-002	42	5,8747728E-006
2	1	0	1	1	1,074909646863304E+005	2,7025959E+000	2,7020600E+000	1,945527422905269E-003	1,000000000000000E+000	1,0764067E-002	42	5,2569317E-006
2	1	0	1	1	1,075059586827862E+005	2,6906004E+000	2,6900663E+000	1,720345727486465E-003	1,000000000000000E+000	1,0790709E-002	42	4,6278442E-006
2	1	0	1	1	1,075209524792114E+005	2,6786053E+000	2,6780653E+000	1,470144557469858E-003	1,000000000000000E+000	1,0813740E-002	42	3,9371430E-006
2	1	0	1	1	1,075359464756757E+005	2,6666102E+000	2,6660571E+000	1,212609459863549E-003	1,000000000000000E+000	1,0833085E-002	42	3,2328860E-006
2	1	0	1	1	1,075509404721565E+005	2,6546152E+000	2,6540985E+000	9,150271426666065E-004	1,000000000000000E+000	1,0848297E-002	42	2,4285721E-006
2	1	0	1	1	1,075659346685854E+005	2,6426198E+000	2,6420796E+000	5,649602957094616E-004	1,000000000000000E+000	1,0858801E-002	42	1,4926701E-006
2	1	0	1	1	1,075809284650199E+005	2,6306245E+000	2,6300898E+000	2,293731937624524E-004	1,000000000000000E+000	1,0864179E-002	43	6,0327210E-007
2	0	0	1	1	1,075959226615011E+005	2,6186292E+000	2,6181319E+000	-8,229742242173935E-005	1,000000000000000E+000	1,0864511E-002	43	-2,1546550E-007
2	0	0	1	1	1,076109164579604E+005	2,6066341E+000	2,6061423E+000	-3,448806635941333E-004	1,000000000000000E+000	1,0860503E-002	43	-8,9880808E-007
2	0	0	1	1	1,076259106543846E+005	2,5946391E+000	2,5941620E+000	-5,476992956960254E-004	1,000000000000000E+000	1,0853060E-002	43	-1,4208207E-006
2	0	0	1	1	1,076409045508455E+005	2,5826440E+000	2,5821989E+000	-6,885231754225982E-004	1,000000000000000E+000	1,0843131E-002	43	-1,7779038E-006
2	0	0	1	1	1,076558985473268E+005	2,5706487E+000	2,5701962E+000	-8,348748454189998E-004	1,000000000000000E+000	1,0831000E-002	43	-2,1457922E-006
2	0	0	1	1	1,076708925437593E+005	2,5586536E+000	2,5581059E+000	-1,009614895692620E-003	1,000000000000000E+000	1,0816217E-002	42	-2,5827019E-006
2	0	0	1	1	1,076858865401912E+005	2,5466583E+000	2,5461266E+000	-1,197861503099505E-003	1,000000000000000E+000	1,0798798E-002	42	-3,0499070E-006
2	0	0	1	1	1,077008805366715E+005	2,5346632E+000	2,5341418E+000	-1,410850011880179E-003	1,000000000000000E+000	1,0778422E-002	42	-3,5752939E-006
2	0	0	1	1	1,077158744331333E+005	2,5226676E+000	2,5221500E+000	-1,622775692356577E-003	1,000000000000000E+000	1,0754904E-002	42	-4,0928840E-006
2	0	0	1	1	1,077308683295586E+005	2,5106728E+000	2,5101473E+000	-1,822986946120111E-003	1,000000000000000E+000	1,0728250E-002	42	-4,5759657E-006
2	0	0	1	1	1,077458623260173E+005	2,4986775E+000	2,4981582E+000	-2,022577013567575E-003	1,000000000000000E+000	1,0698497E-002	42	-5,0527174E-006
2	0	0	1	1	1,077608564224979E+005	2,4866822E+000	2,4861529E+000	-2,232252095390526E-003	1,000000000000000E+000	1,0665689E-002	42	-5,5497198E-006
2	0	0	1	1	1,077758502189332E+005	2,4746869E+000	2,4741709E+000	-2,439572578597032E-003	1,000000000000000E+000	1,0629765E-002	42	-6,0359193E-006
2	0	0	1	1	1,077908444153629E+005	2,4626918E+000	2,4621687E+000	-2,660668177395426E-003	1,000000000000000E+000	1,0590577E-002	42	-6,5510139E-006
2	0	0	1	1	1,078058384118443E+005	2,4506965E+000	2,4501908E+000	-2,881486645189208E-003	1,000000000000000E+000	1,0548131E-002	42	-7,0601918E-006
2	0	0	1	1	1,078208324083085E+005	2,4387012E+000	2,4382117E+000	-3,101369301076962E-003	1,000000000000000E+000	1,0502401E-002	42	-7,5617950E-006
2	0	0	1	1	1,078358264047335E+005	2,4267061E+000	2,4262202E+000	-3,292742423667159E-003	1,000000000000000E+000	1,0453515E-002	42	-7,9889178E-006
2	0	0	1	1	1,078508204011898E+005	2,4147110E+000	2,4141972E+000	-3,464501378165952E-003	1,000000000000000E+000	1,0401850E-002	42	-8,3639898E-006
2	0	0	1	1	1,078658143976714E+005	2,4027157E+000	2,4022303E+000	-3,613709341562396E-003	1,000000000000000E+000	1,0347816E-002	42	-8,6809623E-006
2	0	0	1	1	1,078808083941084E+005	2,3907204E+000	2,3902328E+000	-3,740339842804655E-003	1,000000000000000E+000	1,0291895E-002	42	-8,9402829E-006
2	0	0	1	1	1,078958023905351E+005	2,3787251E+000	2,3782418E+000	-3,844715064111756E-003	1,000000000000000E+000	1,0234306E-002	42	-9,1436623E-006
2	0	0	1	1	1,079107963870161E+005	2,3667302E+000	2,3662577E+000	-3,945238800532366E-003	1,000000000000000E+000	1,0175029E-002	42	-9,3354520E-006
2	0	0	1	1	1,079257901834836E+005	2,3547349E+000	2,3542466E+000	-4,075138300688001E-003	1,000000000000000E+000	1,0113968E-002	42	-9,5938803E-006
2	0	0	1	1	1,079407841799089E+005	2,3427396E+000	2,3422618E+000	-4,196200433718753E-003	1,000000000000000E+000	1,0051060E-002	42	-9,8286000E-006
2	0	0	1	1	1,079557782763618E+005	2,3307445E+000	2,3302462E+000	-4,342835666975436E-003	1,000000000000000E+000	9,9861659E-003	42	-1,0119877E-005
2	0	0	1	1	1,079707721728430E+005	2,3187494E+000	2,3182569E+000	-4,483343458919174E-003	1,000000000000000E+000	9,9190865E-003	42	-1,0393542E-005
2	0	0	1	1	1,079857662692839E+005	2,3067541E+000	2,3062916E+000	-4,632593602541976E-003	1,000000000000000E+000	9,8499143E-003	42	-1,0684112E-005
2	0	0	1	1	1,080007602657096E+005	2,2947590E+000	2,2942481E+000	-4,798938433348020E-003	1,000000000000000E+000	9,7783217E-003	42	-1,1009955E-005
2	0	0	1	1	1,080157542621885E+005	2,2827637E+000	2,2822747E+000	-4,967705961256605E-003	1,000000000000000E+000	9,7042136E-003	42	-1,1337670E-005
2	0	0	1	1	1,080307482586580E+005	2,2707684E+000	2,2702780E+000	-5,148774965724443E-003	1,000000000000000E+000	9,6274382E-003	42	-1,1689151E-005
2	0	0	1	1	1,080457422550834E+005	2,2587733E+000	2,2582870E+000	-5,343595697009318E-003	1,000000000000000E+000	9,5479302E-003	42	-1,2067372E-005
2	0	0	1	1	1,080607362515341E+005	2,2467780E+000	2,2462802E+000	-5,533708693788886E-003	1,000000000000000E+000	9,4654700E-003	42	-1,2430261E-005
2	0	0	1	1	1,080757301480146E+005	2,2347827E+000	2,2343042E+000	-5,744563511600305E-003	1,000000000000000E+000	9,3800100E-003	42	-1,2835102E-005
2	0	0	1	1	1,080907242444574E+005	2,2227876E+000	2,2223222E+000	-5,961937991355429E-003	1,000000000000000E+000	9,2914216E-003	42	-1,3249347E-005
2	0	0	1	1	1,081057181408827E+005	2,2107928E+000	2,2103381E+000	-6,174382938049366E-003	1,000000000000000E+000	9,1994889E-003	42	-1,3647474E-005
2	0	0	1	1	1,081207121373602E+005	2,1987972E+000	2,1983271E+000	-6,413085267634164E-003	1,000000000000000E+000	9,1041783E-003	42	-1,4098059E-005
2	0	0	1	1	1,081357059338330E+005	2,1868021E+000	2,1863492E+000	-6,668737077385689E-003	1,000000000000000E+000	9,0052644E-003	42	-1,4580188E-005
2	0	0	1	1	1,081507001302575E+005	2,1748068E+000	2,1743474E+000	-6,913310942166004E-003	1,000000000000000E+000	8,9025339E-003	42	-1,5031939E-005
2	0	0	1	1	1,081656941267049E+005	2,1628115E+000	2,1623499E+000	-7,190278395742447E-003	1,000000000000000E+000	8,7958407E-003	42	-1,5547897E-005
2	0	0	1	1	1,081806881231861E+005	2,1508162E+000	2,1503608E+000	-7,479411567286542E-003	1,000000000000000E+000	8,6849378E-003	42	-1,6083433E-005
2	0	0	1	1	1,081956821196321E+005	2,1388211E+000	2,1383512E+000	-7,773349115843514E-003	1,000000000000000E+000	8,5696960E-003	42	-1,6622151E-005
2	0	0	1	1	1,082106761160567E+005	2,1268263E+000	2,1263700E+000	-8,106653339131520E-003	1,000000000000000E+000	8,4499205E-003	42	-1,7237744E-005
2	0	0	1	1	1,082256701125304E+005	2,1148307E+000	2,1143827E+000	-8,421942343244226E-003	1,000000000000000E+000	8,3252741E-003	42	-1,7807210E-005
2	0	0	1	1	1,082406641090058E+005	2,1028354E+000	2,1024055E+000	-8,754912797076717E-003	1,000000000000000E+000	8,1956340E-003	42	-1,8406377E-005
2	0	0	1	1	1,082556581054315E+005	2,0908403E+000	2,0904098E+000	-9,113708419420420E-003	1,000000000000000E+000	8,0607450E-003	42	-1,9051386E-005
2	0	0	1	1	1,082706521018762E+005	2,0788453E+000	2,0784173E+000	-9,490663900111940E-003	1,000000000000000E+000	7,9203714E-003	42	-1,9725559E-005
2	0	0	1	1	1,082856461983568E+005	2,0668502E+000	2,0664079E+000	-9,882474729803609E-003	1,000000000000000E+000	7,7742999E-003	42	-2,0421225E-005
2	0	0	1	1	1,083006400948060E+005	2,0548546E+000	2,0543153E+000	-1,029525221006614E-002	1,000000000000000E+000	7,6218117E-003	41	-2,1149694E-005
2	0	0	1	1	1,083156341912318E+005	2,0428596E+000	2,0423007E+000	-1,073310121092702E-002	1,000000000000000E+000	7,4632126E-003	41	-2,1920219E-005
2	0	0	1	1	1,083306279877033E+005	2,0308642E+000	2,0303378E+000	-1,118429687602818E-002	1,000000000000000E+000	7,2979289E-003	41	-2,2707902E-005
2	0	0	1	1	1,083456219841810E+005	2,0188692E+000	2,0183227E+000	-1,167094456884998E-002	1,000000000000000E+000	7,1256594E-003	41	-2,3555733E-005
2	0	0	1	1	1,083606159806063E+005	2,0068741E+000	2,0063221E+000	-1,217872587434982E-002	1,000000000000000E+000	6,9458606E-003	41	-2,4434448E-005
2	0	0	1	1	1,083756099770491E+005	1,9948791E+000	1,9943670E+000	-1,270313475387926E-002	1,000000000000000E+000	6,7584375E-003	41	-2,5334713E-005
2	0	0	1	1	1,083906039735305E+005	1,9828838E+000	1,9823143E+000	-1,322067470788188E-002	1,000000000000000E+000	6,5631499E-003	41	-2,6207534E-005
2	0	0	1	1	1,084055979699816E+005	1,9708887E+000	1,9703337E+000	-1,374997628537442E-002	1,000000000000000E+000	6,3599879E-003	41	-2,7092041E-005
2	0	0	1	1	1,084205919664066E+005	1,9588935E+000	1,9583366E+000	-1,427483144540892E-002	1,000000000000000E+000	6,1489861E-003	41	-2,7954924E-005
2	0	0	1	1	1,084355859628760E+005	1,9468982E+000	1,9463317E+000	-1,483701166650078E-002	1,000000000000000E+000	5,9298524E-003	41	-2,8877746E-005
2	0	0	1	1	1,084505799593562E+005	1,9349031E+000	1,9343386E+000	-1,543542923896906E-002	1,000000000000000E+000	5,7021757E-003	41	-2,9857347E-005
2	0	0	1	1	1,084655740557821E+005	1,9229079E+000	1,9223638E+000	-1,602922407792512E-002	1,000000000000000E+000	5,4654633E-003	41	-3,0814001E-005
2	0	0	1	1	1,084805680522209E+005	1,9109125E+000	1,9103833E+000	-1,669664068316079E-002	1,000000000000000E+000	5,2192188E-003	41	-3,1896983E-005
2	0	0	1	1	1,084955620487020E+005	1,8989174E+000	1,8983727E+000	-1,737206846163747E-002	1,000000000000000E+000	4,9629542E-003	41	-3,2978660E-005
2	0	0	1	1	1,085105560451564E+005	1,8869220E+000	1,8863727E+000	-1,808153773107757E-002	1,000000000000000E+000	4,6961680E-003	41	-3,4108518E-005
2	0	0	1	1	1,085255499415812E+005	1,8749270E+000	1,8743953E+000	-1,884420722394264E-002	1,000000000000000E+000	4,4183428E-003	41	-3,5321493E-005
2	0	0	1	1	1,085405439380466E+005	1,8629318E+000	1,8623713E+000	-1,963485229673290E-002	1,000000000000000E+000	4,1288943E-003	41	-3,6567384E-005
2	0	0	1	1	1,085555379345274E+005	1,8509368E+000	1,8503717E+000	-2,044773604914274E-002	1,000000000000000E+000	3,8275053E-003	41	-3,7835911E-005
2	0	0	1	1	1,085705319309553E+005	1,8389415E+000	1,8384033E+000	-2,130591007944760E-002	1,000000000000000E+000	3,5135397E-003	41	-3,9168855E-005
2	0	0	1	1	1,085855259273923E+005	1,8269463E+000	1,8263921E+000	-2,223001241536460E-002	1,000000000000000E+000	3,1861684E-003	41	-4,0600717E-005
2	0	0	1	1	1,086005199238728E+005	1,8149512E+000	1,8144292E+000	-2,321846119046245E-002	1,000000000000000E+000	2,8445148E-003	41	-4,2128253E-005
2	0	0	1	1	1,086155139203295E+005	1,8029557E+000	1,8024120E+000	-2,427594386985077E-002	1,000000000000000E+000	2,4876106E-003	41	-4,3755252E-005
2	0	0	1	1	1,086305079167549E+005	1,7909604E+000	1,7904429E+000	-2,545403104825436E-002	1,000000000000000E+000	2,1139886E-003	41	-4,5573990E-005
2	0	0	1	1	1,086455019132186E+005	1,7789654E+000	1,7784264E+000	-2,673981088646443E-002	1,000000000000000E+000	1,7219614E-003	41	-4,7554786E-005
2	0	0	1	1	1,086604960096991E+005	1,7669702E+000	1,7664298E+000	-2,807595901328852E-002	1,000000000000000E+000	1,3101035E-003	41	-4,9594211E-005
2	0	0	1	1	1,086754900061290E+005	1,7549750E+000	1,7544553E+000	-2,951284937050858E-002	1,000000000000000E+000	8,7735784E-004	41	-5,1778974E-005
2	0	0	1	1	1,086904840025633E+005	1,7429796E+000	1,7424414E+000	-3,102425606270998E-002	1,000000000000000E+000	4,2267714E-004	41	-5,4057949E-005
2	0	0	1	1	1,087054779990446E+005	1,7309846E+000	1,7304709E+000	-3,256327221309213E-002	1,000000000000000E+000	-5,4955319E-005	41	-5,6349796E-005
2	0	0	1	1	1,087163995964752E+005	1,7222385E+000	1,7217501E+000	-3,373768460738852E-002	1,000000000000000E+000	-4,1771028E-004	41	-5,8087862E-005