File: Dati/210416/CV_LTO-CB_10_CV_C05.mpt
EC-Lab ASCII FILE
Nb header lines : 57

Cyclic Voltammetry

Run on channel : 5 (SN 6809)
User : Seelab
Electrode connection : standard
Ewe ctrl range : min = 0,00 V, max = 5,00 V
Ewe,I filtering : 50 kHz
Safety Limits :
	Do not start on E overload
Channel : Grounded
Acquisition started on : 04/16/2021 18:38:45
Saved on :
	File : CV_LTO-CB_10_CV_C05.mpr
	Directory : C:\Users\labsuperfici\Desktop\Biologic\Users\Prisca Viviani\210416\
	Host : 10.78.33.0
Device : VSP-300 (SN 0638)
Address : USB
EC-Lab for windows v11.31 (software)
Internet server v11.30 (firmware)
Command interpretor v11.31 (firmware)
Electrode material :
Initial state :
Electrolyte :
Comments :
Cable : standard
Reference electrode : SCE Saturated Calomel Electrode (0,241 V)
Electrode surface area : 0,001 cm²
Characteristic mass : 0,001 g
Equivalent Weight : 0,000 g/eq.
Density : 0,000 g/cm3
Cycle Definition : Charge/Discharge alternance
Ei (V)              0,000
vs.                 Eoc
dE/dt               0,900
dE/dt unit          mV/s
E1 (V)              1,000
vs.                 Ref
Step percent        50
N                   10
E range min (V)     0,000
E range max (V)     5,000
I Range             Auto
I Range min         Unset
I Range max         Unset
I Range init        Unset
Bandwidth           8
E2 (V)              3,000
vs.                 Ref
nc cycles           1
Reverse Scan        1
Ef (V)              0,000
vs.                 Eoc

mode	ox/red	error	control changes	counter inc.	time/s	control/V	Ewe/V	<I>/mA	cycle number	(Q-Qo)/C	I Range	P/W
2	0	0	0	0	2,186335746084824E+005	2,0588205E+000	2,0595753E+000	-1,989669352769852E-002	1,000000000000000E+000	0,0000000E+000	41	-4,0978739E-005
2	0	0	1	0	2,186597226125710E+005	2,0352869E+000	2,0360949E+000	-2,040199970506296E-002	1,000000000000000E+000	-5,0382176E-004	41	-4,1540407E-005
2	0	0	1	0	2,186863703167429E+005	2,0113034E+000	2,0121241E+000	-2,295941658607165E-002	1,000000000000000E+000	-1,0844838E-003	41	-4,6197194E-005
2	0	0	1	0	2,187130182209099E+005	1,9873209E+000	1,9881001E+000	-2,568338106113199E-002	1,000000000000000E+000	-1,7354075E-003	41	-5,1061132E-005
2	0	0	1	0	2,187396659250814E+005	1,9633380E+000	1,9641281E+000	-2,857671035657067E-002	1,000000000000000E+000	-2,4611771E-003	41	-5,6128320E-005
2	0	0	1	0	2,187663137292495E+005	1,9393547E+000	1,9401180E+000	-3,168625218471000E-002	1,000000000000000E+000	-3,2671122E-003	41	-6,1475068E-005
2	0	0	1	0	2,187929614334190E+005	1,9153720E+000	1,9161569E+000	-3,510013712588933E-002	1,000000000000000E+000	-4,1598328E-003	41	-6,7257366E-005
2	0	0	1	0	2,188196092375885E+005	1,8913888E+000	1,8921719E+000	-3,888715497012946E-002	1,000000000000000E+000	-5,1481645E-003	41	-7,3581177E-005
2	0	0	1	0	2,188462570417575E+005	1,8674059E+000	1,8681952E+000	-4,311522524626582E-002	1,000000000000000E+000	-6,2429844E-003	41	-8,0547659E-005
2	0	0	1	0	2,188729047459271E+005	1,8434232E+000	1,8442148E+000	-4,778229920523025E-002	1,000000000000000E+000	-7,4562649E-003	41	-8,8120825E-005
2	0	0	1	0	2,188995525500961E+005	1,8194399E+000	1,8202597E+000	-5,300952405512610E-002	1,000000000000000E+000	-8,8014733E-003	41	-9,6491101E-005
2	0	0	1	0	2,189262002542666E+005	1,7954570E+000	1,7962503E+000	-5,883018391812345E-002	1,000000000000000E+000	-1,0293541E-002	41	-1,0567374E-004
2	0	0	1	0	2,189528480584337E+005	1,7714739E+000	1,7722566E+000	-6,531673409732064E-002	1,000000000000000E+000	-1,1950049E-002	41	-1,1575801E-004
2	0	0	1	0	2,189794958626060E+005	1,7474911E+000	1,7482711E+000	-7,255319559489903E-002	1,000000000000000E+000	-1,3788339E-002	41	-1,2684266E-004
2	0	0	1	0	2,190061435667728E+005	1,7235080E+000	1,7242640E+000	-8,052091122989702E-002	1,000000000000000E+000	-1,5829584E-002	41	-1,3883931E-004
2	0	0	1	0	2,190327912709438E+005	1,6995251E+000	1,7002920E+000	-8,933049732160270E-002	1,000000000000000E+000	-1,8093858E-002	41	-1,5188793E-004
2	0	0	1	0	2,190594390751125E+005	1,6755422E+000	1,6763191E+000	-9,893105887134043E-002	1,000000000000000E+000	-2,0602444E-002	41	-1,6584003E-004
2	0	0	1	0	2,190860868792823E+005	1,6515589E+000	1,6523367E+000	-1,091993474398127E-001	1,000000000000000E+000	-2,3376400E-002	40	-1,8043409E-004
2	0	0	1	0	2,191127345834512E+005	1,6275761E+000	1,6283736E+000	-1,207376617474301E-001	1,000000000000000E+000	-2,6441902E-002	40	-1,9660602E-004
2	0	0	1	0	2,191393823876209E+005	1,6035932E+000	1,6043859E+000	-1,333948034131520E-001	1,000000000000000E+000	-2,9828660E-002	40	-2,1401673E-004
2	0	0	1	0	2,191660300917900E+005	1,5796102E+000	1,5803931E+000	-1,477028700530283E-001	1,000000000000000E+000	-3,3573490E-002	40	-2,3342860E-004
2	0	0	1	0	2,191926777959587E+005	1,5556273E+000	1,5564331E+000	-1,637939261077408E-001	1,000000000000000E+000	-3,7722200E-002	40	-2,5493428E-004
2	0	0	1	0	2,192193256001296E+005	1,5316442E+000	1,5324165E+000	-1,821945719073961E-001	1,000000000000000E+000	-4,2332586E-002	40	-2,7919796E-004
2	0	0	1	0	2,192459733042968E+005	1,5076615E+000	1,5084449E+000	-2,031650220966912E-001	1,000000000000000E+000	-4,7465719E-002	40	-3,0646325E-004
2	0	0	1	0	2,192726211084689E+005	1,4836783E+000	1,4844478E+000	-2,260200773292733E-001	1,000000000000000E+000	-5,3185575E-002	40	-3,3551501E-004
2	0	0	1	0	2,192992689126357E+005	1,4596955E+000	1,4605016E+000	-2,479336209760423E-001	1,000000000000000E+000	-5,9509240E-002	40	-3,6210744E-004
2	0	0	1	0	2,193259166168072E+005	1,4357126E+000	1,4364989E+000	-2,659778969362367E-001	1,000000000000000E+000	-6,6369340E-002	40	-3,8207695E-004
2	0	0	1	0	2,193525643209749E+005	1,4117295E+000	1,4125303E+000	-2,786871868953611E-001	1,000000000000000E+000	-7,3637083E-002	40	-3,9365410E-004
2	0	0	1	0	2,193792121251454E+005	1,3877465E+000	1,3885390E+000	-2,869037226989564E-001	1,000000000000000E+000	-8,1186794E-002	40	-3,9837699E-004
2	0	0	1	0	2,194058599293142E+005	1,3637635E+000	1,3645570E+000	-2,919270852720457E-001	1,000000000000000E+000	-8,8907674E-002	40	-3,9835114E-004
2	0	0	1	0	2,194325076334840E+005	1,3397804E+000	1,3405490E+000	-2,953598863594649E-001	1,000000000000000E+000	-9,6739084E-002	40	-3,9594440E-004
2	0	0	1	0	2,194591554376531E+005	1,3157976E+000	1,3165971E+000	-2,968350481530733E-001	1,000000000000000E+000	-1,0463793E-001	40	-3,9081217E-004
2	0	0	1	0	2,194858031418216E+005	1,2918144E+000	1,2925978E+000	-2,962564042091138E-001	1,000000000000000E+000	-1,1254741E-001	40	-3,8294037E-004
2	0	0	1	0	2,195124509459918E+005	1,2678316E+000	1,2686136E+000	-2,939578534080272E-001	1,000000000000000E+000	-1,2041763E-001	40	-3,7291893E-004
2	0	0	1	0	2,195390987501596E+005	1,2438484E+000	1,2446448E+000	-2,900980385755321E-001	1,000000000000000E+000	-1,2820487E-001	40	-3,6106902E-004
2	0	0	1	0	2,195657464543318E+005	1,2198658E+000	1,2206604E+000	-2,851122871023297E-001	1,000000000000000E+000	-1,3587405E-001	40	-3,4802529E-004
2	0	0	1	0	2,195923942584984E+005	1,1958826E+000	1,1967275E+000	-2,795081471699019E-001	1,000000000000000E+000	-1,4340249E-001	40	-3,3449510E-004
2	0	0	1	0	2,196190419626702E+005	1,1718997E+000	1,1727138E+000	-2,733925888085127E-001	1,000000000000000E+000	-1,5077327E-001	40	-3,2061126E-004
2	0	0	1	0	2,196456897668380E+005	1,1479167E+000	1,1487305E+000	-2,670082155672683E-001	1,000000000000000E+000	-1,5797648E-001	40	-3,0672050E-004
2	0	0	1	0	2,196723375710081E+005	1,1239337E+000	1,1247408E+000	-2,605889699608928E-001	1,000000000000000E+000	-1,6500942E-001	40	-2,9309504E-004
2	0	0	1	0	2,196989852751767E+005	1,0999507E+000	1,1007578E+000	-2,543231675487778E-001	1,000000000000000E+000	-1,7187232E-001	40	-2,7994823E-004
2	0	0	1	0	2,197256330793472E+005	1,0759679E+000	1,0767930E+000	-2,482999156336207E-001	1,000000000000000E+000	-1,7857175E-001	40	-2,6736761E-004
2	0	0	1	0	2,197522807835159E+005	1,0519849E+000	1,0528131E+000	-2,426597751687734E-001	1,000000000000000E+000	-1,8511473E-001	40	-2,5547537E-004
2	0	0	1	0	2,197789284876850E+005	1,0280018E+000	1,0288036E+000	-2,374483804185843E-001	1,000000000000000E+000	-1,9151251E-001	40	-2,4428774E-004
2	0	0	1	0	2,198055762918548E+005	1,0040189E+000	1,0048409E+000	-2,327481772098914E-001	1,000000000000000E+000	-1,9777903E-001	40	-2,3387487E-004
2	0	0	1	0	2,198306699957810E+005	1,0185086E+000	1,0193087E+000	-1,936996433760519E-001	1,000000000000000E+000	-2,0312718E-001	40	-1,9743973E-004
2	0	0	1	0	2,198573177999491E+005	1,0424916E+000	1,0433207E+000	-1,675626414364113E-001	1,000000000000000E+000	-2,0791490E-001	40	-1,7482156E-004
2	0	0	1	0	2,198839655041206E+005	1,0664744E+000	1,0672996E+000	-1,485215596436147E-001	1,000000000000000E+000	-2,1211284E-001	40	-1,5851700E-004
2	0	0	1	0	2,199106133082872E+005	1,0904576E+000	1,0912851E+000	-1,332537444352329E-001	1,000000000000000E+000	-2,1585782E-001	40	-1,4541783E-004
2	0	0	1	0	2,199372610124596E+005	1,1144406E+000	1,1152554E+000	-1,204468581801184E-001	1,000000000000000E+000	-2,1923040E-001	40	-1,3432901E-004
2	0	0	1	0	2,199639088166268E+005	1,1384234E+000	1,1392598E+000	-1,093570881788411E-001	1,000000000000000E+000	-2,2228618E-001	40	-1,2458613E-004
2	0	0	1	0	2,199905566207976E+005	1,1624064E+000	1,1632297E+000	-9,963224322710085E-002	1,000000000000000E+000	-2,2506540E-001	40	-1,1589519E-004
2	0	0	1	0	2,200172043249659E+005	1,1863892E+000	1,1871873E+000	-9,090445381594514E-002	1,000000000000000E+000	-2,2759925E-001	40	-1,0792061E-004
2	0	0	1	0	2,200438521291357E+005	1,2103723E+000	1,2111685E+000	-8,300097064121759E-002	1,000000000000000E+000	-2,2991155E-001	40	-1,0052817E-004
2	0	0	1	0	2,200704998333048E+005	1,2343553E+000	1,2351604E+000	-7,577179284643037E-002	1,000000000000000E+000	-2,3202322E-001	40	-9,3590315E-005
2	0	0	1	0	2,200971476374739E+005	1,2583383E+000	1,2591307E+000	-6,897138760261154E-002	1,000000000000000E+000	-2,3394813E-001	40	-8,6843989E-005
2	0	0	1	0	2,201237954416439E+005	1,2823212E+000	1,2831135E+000	-6,249678514167414E-002	1,000000000000000E+000	-2,3569706E-001	40	-8,0190468E-005
2	0	0	1	0	2,201504431458125E+005	1,3063042E+000	1,3070877E+000	-5,611093835809877E-002	1,000000000000000E+000	-2,3727450E-001	40	-7,3341915E-005
2	0	0	1	0	2,201770909499831E+005	1,3302872E+000	1,3310637E+000	-4,970942249913846E-002	1,000000000000000E+000	-2,3868211E-001	40	-6,6166409E-005
2	0	0	1	0	2,202037387541505E+005	1,3542701E+000	1,3550602E+000	-4,331061746682952E-002	1,000000000000000E+000	-2,3992069E-001	41	-5,8688496E-005
2	0	0	1	0	2,202303864583224E+005	1,3782533E+000	1,3790157E+000	-3,653619038031894E-002	1,000000000000000E+000	-2,4098265E-001	41	-5,0383980E-005
2	0	0	1	0	2,202570342624891E+005	1,4022361E+000	1,4029994E+000	-2,941835622766747E-002	1,000000000000000E+000	-2,4186002E-001	41	-4,1273935E-005
2	0	0	1	0	2,202836819666610E+005	1,4262189E+000	1,4269726E+000	-2,189236730071745E-002	1,000000000000000E+000	-2,4254228E-001	41	-3,1239808E-005
2	0	0	1	0	2,203103297708289E+005	1,4502021E+000	1,4510037E+000	-1,379153523308681E-002	1,000000000000000E+000	-2,4301656E-001	41	-2,0011568E-005
2	0	0	1	0	2,203369774749987E+005	1,4741851E+000	1,4749755E+000	-5,091414844295990E-003	1,000000000000000E+000	-2,4326718E-001	41	-7,5097118E-006
2	1	0	1	0	2,203637362791848E+005	1,4982680E+000	1,4990777E+000	4,413888089584178E-003	1,000000000000000E+000	-2,4327584E-001	42	6,6167613E-006
2	1	0	1	0	2,203903842833550E+005	1,5222508E+000	1,5230371E+000	1,481846927104841E-002	1,000000000000000E+000	-2,4301949E-001	41	2,2569078E-005
2	1	0	1	0	2,204170320875237E+005	1,5462339E+000	1,5470325E+000	2,653656241602259E-002	1,000000000000000E+000	-2,4246950E-001	41	4,1052925E-005
2	1	0	1	0	2,204436797916936E+005	1,5702170E+000	1,5710007E+000	3,993710834408076E-002	1,000000000000000E+000	-2,4158534E-001	41	6,2741223E-005
2	1	0	1	0	2,204703274958628E+005	1,5941998E+000	1,5949777E+000	5,619455400460860E-002	1,000000000000000E+000	-2,4031138E-001	41	8,9629066E-005
2	1	0	1	0	2,204969753000317E+005	1,6181830E+000	1,6189681E+000	8,080842481824169E-002	1,000000000000000E+000	-2,3850979E-001	41	1,3082626E-004
2	1	0	1	0	2,205236230042016E+005	1,6421658E+000	1,6429348E+000	1,158027332425173E-001	1,000000000000000E+000	-2,3590286E-001	40	1,9025634E-004
2	1	0	1	0	2,205502708083699E+005	1,6661488E+000	1,6669033E+000	1,563574769920595E-001	1,000000000000000E+000	-2,3228070E-001	40	2,6063278E-004
2	1	0	1	0	2,205769185125411E+005	1,6901318E+000	1,6909230E+000	1,999276146068271E-001	1,000000000000000E+000	-2,2753869E-001	40	3,3806221E-004
2	1	0	1	0	2,206035665167077E+005	1,7141148E+000	1,7148932E+000	2,469268976047929E-001	1,000000000000000E+000	-2,2158873E-001	40	4,2345325E-004
2	1	0	1	0	2,206302142208805E+005	1,7380978E+000	1,7388594E+000	2,979051616059731E-001	1,000000000000000E+000	-2,1431799E-001	40	5,1801518E-004
2	1	0	1	0	2,206568620250477E+005	1,7620807E+000	1,7628716E+000	3,488048931914207E-001	1,000000000000000E+000	-2,0569579E-001	40	6,1489822E-004
2	1	0	1	0	2,206835097292182E+005	1,7860637E+000	1,7868438E+000	3,977413077027148E-001	1,000000000000000E+000	-1,9573769E-001	40	7,1070157E-004
2	1	0	1	0	2,207101575333867E+005	1,8100467E+000	1,8108307E+000	4,420272688944620E-001	1,000000000000000E+000	-1,8453084E-001	40	8,0043654E-004
2	1	0	1	0	2,207368053375562E+005	1,8340296E+000	1,8347648E+000	4,774286983530520E-001	1,000000000000000E+000	-1,7225075E-001	40	8,7596942E-004
2	1	0	1	0	2,207634530417254E+005	1,8580128E+000	1,8588034E+000	5,013053656181956E-001	1,000000000000000E+000	-1,5917480E-001	40	9,3182811E-004
2	1	0	1	0	2,207901008458948E+005	1,8819956E+000	1,8827794E+000	5,090466149474224E-001	1,000000000000000E+000	-1,4568342E-001	40	9,5842243E-004
2	1	0	1	0	2,208167485500645E+005	1,9059787E+000	1,9067516E+000	5,010456521571447E-001	1,000000000000000E+000	-1,3218154E-001	40	9,5536961E-004
2	1	0	1	0	2,208433963542329E+005	1,9299614E+000	1,9307544E+000	4,780717806743201E-001	1,000000000000000E+000	-1,1909955E-001	40	9,2303922E-004
2	1	0	1	0	2,208700441584038E+005	1,9539443E+000	1,9547286E+000	4,426736609254665E-001	1,000000000000000E+000	-1,0680672E-001	40	8,6530688E-004
2	1	0	1	0	2,208966918625711E+005	1,9779274E+000	1,9786898E+000	3,996639240421312E-001	1,000000000000000E+000	-9,5570825E-002	40	7,9081091E-004
2	1	0	1	0	2,209233397667431E+005	2,0019102E+000	2,0026834E+000	3,544316804058028E-001	1,000000000000000E+000	-8,5521095E-002	40	7,0981443E-004
2	1	0	1	0	2,209499873709097E+005	2,0258932E+000	2,0266593E+000	3,108300428885391E-001	1,000000000000000E+000	-7,6662175E-002	40	6,2994659E-004
2	1	0	1	0	2,209766351750814E+005	2,0498760E+000	2,0506580E+000	2,712889828722975E-001	1,000000000000000E+000	-6,8913676E-002	40	5,5632094E-004
2	1	0	1	0	2,210032831792495E+005	2,0738590E+000	2,0746372E+000	2,364039534045208E-001	1,000000000000000E+000	-6,2157057E-002	40	4,9045245E-004
2	1	0	1	0	2,210299309834195E+005	2,0978422E+000	2,0985899E+000	2,060833314578563E-001	1,000000000000000E+000	-5,6267686E-002	40	4,3248440E-004
2	1	0	1	0	2,210565787875885E+005	2,1218252E+000	2,1225805E+000	1,800306874564175E-001	1,000000000000000E+000	-5,1128883E-002	40	3,8212963E-004
2	1	0	1	0	2,210832265917580E+005	2,1458080E+000	2,1465640E+000	1,578241380000343E-001	1,000000000000000E+000	-4,6632763E-002	40	3,3877962E-004
2	1	0	1	0	2,211098743959271E+005	2,1697912E+000	2,1705377E+000	1,389734097972224E-001	1,000000000000000E+000	-4,2683039E-002	40	3,0164703E-004
2	1	0	1	0	2,211365222000964E+005	2,1937740E+000	2,1945076E+000	1,231746103795031E-001	1,000000000000000E+000	-3,9193384E-002	40	2,7030762E-004
2	1	0	1	0	2,211631700042663E+005	2,2177575E+000	2,2185159E+000	1,100714076811273E-001	1,000000000000000E+000	-3,6088370E-002	40	2,4419517E-004
2	1	0	1	0	2,211898177084345E+005	2,2417400E+000	2,2424796E+000	9,905995160468772E-002	1,000000000000000E+000	-3,3303645E-002	40	2,2213992E-004
2	1	0	1	0	2,212164655126059E+005	2,2657230E+000	2,2664709E+000	8,987226583631225E-002	1,000000000000000E+000	-3,0786866E-002	40	2,0369288E-004
2	1	0	1	0	2,212431132167724E+005	2,2897058E+000	2,2904429E+000	8,208788177700493E-002	1,000000000000000E+000	-2,8495582E-002	40	1,8801761E-004
2	1	0	1	0	2,212697609209446E+005	2,3136888E+000	2,3144183E+000	7,542932438264249E-002	1,000000000000000E+000	-2,6395239E-002	40	1,7457501E-004
2	1	0	1	0	2,212964087251122E+005	2,3376720E+000	2,3384397E+000	6,979117000718404E-002	1,000000000000000E+000	-2,4458423E-002	40	1,6320244E-004
2	1	0	1	0	2,213230564292828E+005	2,3616545E+000	2,3623919E+000	6,486641105726521E-002	1,000000000000000E+000	-2,2662319E-002	40	1,5323989E-004
2	1	0	1	0	2,213497042334512E+005	2,3856378E+000	2,3863788E+000	6,061419500288609E-002	1,000000000000000E+000	-2,0987714E-002	40	1,4464842E-004
2	1	0	1	0	2,213763520376207E+005	2,4096208E+000	2,4103737E+000	5,701571101169656E-002	1,000000000000000E+000	-1,9418409E-002	40	1,3742918E-004
2	1	0	1	0	2,214030000417900E+005	2,4336038E+000	2,4343369E+000	5,388696758889999E-002	1,000000000000000E+000	-1,7938307E-002	40	1,3117904E-004
2	1	0	1	0	2,214296477459595E+005	2,4575870E+000	2,4583340E+000	5,117117197384258E-002	1,000000000000000E+000	-1,6535735E-002	40	1,2579584E-004
2	1	0	1	0	2,214562955501293E+005	2,4815698E+000	2,4822991E+000	4,857441604009061E-002	1,000000000000000E+000	-1,5203991E-002	40	1,2057623E-004
2	1	0	1	0	2,214830542543158E+005	2,5056529E+000	2,5064003E+000	4,598337189643742E-002	1,000000000000000E+000	-1,3937275E-002	41	1,1525274E-004
2	1	0	1	0	2,215097019584852E+005	2,5296357E+000	2,5303998E+000	4,370284181489026E-002	1,000000000000000E+000	-1,2739553E-002	41	1,1058566E-004
2	1	0	1	0	2,215363497626539E+005	2,5536184E+000	2,5543585E+000	4,160554319633142E-002	1,000000000000000E+000	-1,1599940E-002	41	1,0627547E-004
2	1	0	1	0	2,215629974668243E+005	2,5776017E+000	2,5783458E+000	3,967717380793812E-002	1,000000000000000E+000	-1,0514199E-002	41	1,0230147E-004
2	1	0	1	0	2,215896452709916E+005	2,6015842E+000	2,6023262E+000	3,793122253941159E-002	1,000000000000000E+000	-9,4775418E-003	41	9,8709410E-005
2	1	0	1	0	2,216162930751636E+005	2,6255677E+000	2,6263294E+000	3,655556244709263E-002	1,000000000000000E+000	-8,4821545E-003	41	9,6006952E-005
2	1	0	1	0	2,216429408793305E+005	2,6495502E+000	2,6502957E+000	3,528565004996220E-002	1,000000000000000E+000	-7,5211390E-003	41	9,3517410E-005
2	1	0	1	0	2,216695886835023E+005	2,6735332E+000	2,6742671E+000	3,377850622970358E-002	1,000000000000000E+000	-6,5970486E-003	41	9,0332745E-005
2	1	0	1	0	2,216962364876701E+005	2,6975164E+000	2,6982429E+000	3,230948512834197E-002	1,000000000000000E+000	-5,7133930E-003	41	8,7178836E-005
2	1	0	1	0	2,217228842918403E+005	2,7214992E+000	2,7222614E+000	3,102675802822390E-002	1,000000000000000E+000	-4,8665451E-003	41	8,4462947E-005
2	1	0	1	0	2,217495320960089E+005	2,7454824E+000	2,7462399E+000	2,998912613126647E-002	1,000000000000000E+000	-4,0506427E-003	41	8,2357335E-005
2	1	0	1	0	2,217761797001786E+005	2,7694650E+000	2,7702134E+000	2,915937450769164E-002	1,000000000000000E+000	-3,2599289E-003	41	8,0777689E-005
2	1	0	1	0	2,218028276043481E+005	2,7934484E+000	2,7941921E+000	2,856316992045242E-002	1,000000000000000E+000	-2,4880345E-003	41	7,9810983E-005
2	1	0	1	0	2,218294753085170E+005	2,8174312E+000	2,8181698E+000	2,826483927308164E-002	1,000000000000000E+000	-1,7280552E-003	41	7,9655118E-005
2	1	0	1	0	2,218561230126868E+005	2,8414140E+000	2,8421414E+000	2,806957682027589E-002	1,000000000000000E+000	-9,7424223E-004	41	7,9777703E-005
2	1	0	1	0	2,218827708168551E+005	2,8653975E+000	2,8661199E+000	2,766250682272908E-002	1,000000000000000E+000	-2,2808542E-004	41	7,9284058E-005
2	1	0	1	0	2,219094185210264E+005	2,8893800E+000	2,8901246E+000	2,700629685987949E-002	1,000000000000000E+000	5,0337217E-004	41	7,8051562E-005
2	1	0	1	0	2,219360663251930E+005	2,9133630E+000	2,9140971E+000	2,639980315944285E-002	1,000000000000000E+000	1,2182439E-003	41	7,6931588E-005
2	1	0	1	0	2,219627141293655E+005	2,9373462E+000	2,9380658E+000	2,583600497857858E-002	1,000000000000000E+000	1,9175968E-003	41	7,5907883E-005
2	1	0	1	0	2,219893621335325E+005	2,9613292E+000	2,9620149E+000	2,522777489663458E-002	1,000000000000000E+000	2,6011467E-003	41	7,4725045E-005
2	1	0	1	0	2,220160098377038E+005	2,9853125E+000	2,9860365E+000	2,472277075340729E-002	1,000000000000000E+000	3,2698235E-003	41	7,3823096E-005
2	1	0	1	1	2,220406588415590E+005	2,9924071E+000	2,9931381E+000	1,796641351011280E-002	1,000000000000000E+000	3,8359880E-003	41	5,3775955E-005
2	1	0	1	1	2,220673066457296E+005	2,9684243E+000	2,9691527E+000	1,316020192744015E-002	1,000000000000000E+000	4,2390311E-003	41	3,9074650E-005
2	1	0	1	1	2,220939543498977E+005	2,9444411E+000	2,9451714E+000	1,037580841403896E-002	1,000000000000000E+000	4,5463801E-003	41	3,0558534E-005
2	1	0	1	1	2,221206021540677E+005	2,9204583E+000	2,9211829E+000	8,411691657356626E-003	1,000000000000000E+000	4,7918311E-003	41	2,4572089E-005
2	1	0	1	1	2,221472499582369E+005	2,8964748E+000	2,8972087E+000	6,904128333653725E-003	1,000000000000000E+000	4,9918313E-003	41	2,0002701E-005
2	1	0	1	1	2,221738976624063E+005	2,8724923E+000	2,8732164E+000	5,684381548769241E-003	1,000000000000000E+000	5,1557883E-003	41	1,6332458E-005
2	1	0	1	1	2,222005454665759E+005	2,8485091E+000	2,8492477E+000	4,677584488884626E-003	1,000000000000000E+000	5,2901255E-003	42	1,3327597E-005
2	1	0	1	1	2,222271930707442E+005	2,8245263E+000	2,8252842E+000	3,961904385966695E-003	1,000000000000000E+000	5,4016085E-003	42	1,1193506E-005
2	1	0	1	1	2,222538407749149E+005	2,8005435E+000	2,8013015E+000	3,315468839586545E-003	1,000000000000000E+000	5,4949760E-003	42	9,2876280E-006
2	1	0	1	1	2,222804885790818E+005	2,7765598E+000	2,7772889E+000	2,780707099368543E-003	1,000000000000000E+000	5,5728275E-003	42	7,7228269E-006
2	1	0	1	1	2,223071362832547E+005	2,7525773E+000	2,7533262E+000	2,268966004051746E-003	1,000000000000000E+000	5,6369691E-003	42	6,2472036E-006
2	1	0	1	1	2,223337839874215E+005	2,7285943E+000	2,7293475E+000	1,816464484855806E-003	1,000000000000000E+000	5,6883162E-003	42	4,9577629E-006
2	1	0	1	1	2,223604317915924E+005	2,7046113E+000	2,7053530E+000	1,376220983036268E-003	1,000000000000000E+000	5,7273707E-003	42	3,7231637E-006
2	1	0	1	1	2,223870795957608E+005	2,6806285E+000	2,6813574E+000	8,956362768972157E-004	1,000000000000000E+000	5,7544615E-003	42	2,4015210E-006
2	1	0	1	1	2,224137273999304E+005	2,6566451E+000	2,6573868E+000	3,753511767710972E-004	1,000000000000000E+000	5,7684639E-003	42	9,9745330E-007
2	0	0	1	1	2,224415409042817E+005	2,6316133E+000	2,6323395E+000	-3,162224833492158E-004	1,000000000000000E+000	5,7659713E-003	43	-8,3240491E-007
2	0	0	1	1	2,224686883085294E+005	2,6071806E+000	2,6079197E+000	-9,070593089885500E-004	1,000000000000000E+000	5,7452372E-003	42	-2,3655377E-006
2	0	0	1	1	2,224953358126991E+005	2,5831974E+000	2,5839489E+000	-1,209183824724324E-003	1,000000000000000E+000	5,7131802E-003	42	-3,1244692E-006
2	0	0	1	1	2,225219836168683E+005	2,5592146E+000	2,5599427E+000	-1,426829970238185E-003	1,000000000000000E+000	5,6750407E-003	42	-3,6526030E-006
2	0	0	1	1	2,225486314210370E+005	2,5352318E+000	2,5359416E+000	-1,766673641810201E-003	1,000000000000000E+000	5,6294077E-003	42	-4,4801814E-006
2	0	0	1	1	2,225752792252076E+005	2,5112484E+000	2,5119662E+000	-2,198794843342926E-003	1,000000000000000E+000	5,5734031E-003	42	-5,5232986E-006
2	0	0	1	1	2,226019270293755E+005	2,4872661E+000	2,4879766E+000	-2,624200748566459E-003	1,000000000000000E+000	5,5058096E-003	42	-6,5289501E-006
2	0	0	1	1	2,226285748335468E+005	2,4632826E+000	2,4639747E+000	-3,062996926189596E-003	1,000000000000000E+000	5,4265019E-003	42	-7,5471471E-006
2	0	0	1	1	2,226552225377138E+005	2,4392998E+000	2,4400675E+000	-3,534780551825489E-003	1,000000000000000E+000	5,3350762E-003	42	-8,6251030E-006
2	0	0	1	1	2,226818702418855E+005	2,4153163E+000	2,4160516E+000	-3,974383059475228E-003	1,000000000000000E+000	5,2315248E-003	42	-9,6023150E-006
2	0	0	1	1	2,227085178460530E+005	2,3913336E+000	2,3920507E+000	-4,372772202037419E-003	1,000000000000000E+000	5,1167537E-003	42	-1,0459893E-005
2	0	0	1	1	2,227351656502238E+005	2,3673506E+000	2,3680699E+000	-4,839067542318498E-003	1,000000000000000E+000	4,9908916E-003	42	-1,1459250E-005
2	0	0	1	1	2,227618132543924E+005	2,3433676E+000	2,3440993E+000	-5,370829988001258E-003	1,000000000000000E+000	4,8517380E-003	42	-1,2589759E-005
2	0	0	1	1	2,227884610585622E+005	2,3193851E+000	2,3201425E+000	-5,981994392402629E-003	1,000000000000000E+000	4,6972097E-003	42	-1,3879079E-005
2	0	0	1	1	2,228151088627314E+005	2,2954021E+000	2,2961299E+000	-6,695037266177985E-003	1,000000000000000E+000	4,5250794E-003	42	-1,5372676E-005
2	0	0	1	1	2,228417566669001E+005	2,2714188E+000	2,2721481E+000	-7,453645908826689E-003	1,000000000000000E+000	4,3332996E-003	42	-1,6935788E-005
2	0	0	1	1	2,228684044710700E+005	2,2474360E+000	2,2481651E+000	-8,314253791824572E-003	1,000000000000000E+000	4,1198051E-003	42	-1,8691815E-005
2	0	0	1	1	2,228950520752380E+005	2,2234530E+000	2,2241766E+000	-9,291486543157979E-003	1,000000000000000E+000	3,8822591E-003	42	-2,0665908E-005
2	0	0	1	1	2,229216998794097E+005	2,1994700E+000	2,2002068E+000	-1,030257057358968E-002	1,000000000000000E+000	3,6183244E-003	41	-2,2667786E-005
2	0	0	1	1	2,229483476835769E+005	2,1754870E+000	2,1762357E+000	-1,146849625104794E-002	1,000000000000000E+000	3,3251219E-003	41	-2,4958150E-005
2	0	0	1	1	2,229749954877486E+005	2,1515038E+000	2,1522682E+000	-1,276465930404622E-002	1,000000000000000E+000	2,9990522E-003	41	-2,7472970E-005
2	0	0	1	1	2,230016430919161E+005	2,1275210E+000	2,1282890E+000	-1,424654773282423E-002	1,000000000000000E+000	2,6360766E-003	41	-3,0320771E-005
2	0	0	1	1	2,230282908960865E+005	2,1035378E+000	2,1042824E+000	-1,583876435120010E-002	1,000000000000000E+000	2,2319977E-003	41	-3,3329234E-005
2	0	0	1	1	2,230549386002549E+005	2,0795553E+000	2,0803287E+000	-1,762894258232739E-002	1,000000000000000E+000	1,7828071E-003	41	-3,6673995E-005
2	0	0	1	1	2,230798097041473E+005	2,0571711E+000	2,0579393E+000	-1,946684891183383E-002	2,000000000000000E+000	1,3183890E-003	41	-4,0061594E-005
2	0	0	1	1	2,231064575083149E+005	2,0331881E+000	2,0339139E+000	-2,163875779608782E-002	2,000000000000000E+000	7,6736999E-004	41	-4,4011369E-005
2	0	0	1	1	2,231331053124871E+005	2,0092049E+000	2,0099511E+000	-2,400593086968621E-002	2,000000000000000E+000	1,5619380E-004	41	-4,8250746E-005
2	0	0	1	1	2,231597530166539E+005	1,9852223E+000	1,9859612E+000	-2,663084847511742E-002	2,000000000000000E+000	-5,2158011E-004	41	-5,2887830E-005
2	0	0	1	1	2,231864007208250E+005	1,9612396E+000	1,9619895E+000	-2,947614463245529E-002	2,000000000000000E+000	-1,2723355E-003	41	-5,7831887E-005
2	0	0	1	1	2,232130485249932E+005	1,9372563E+000	1,9379995E+000	-3,262963097893995E-002	2,000000000000000E+000	-2,1027108E-003	41	-6,3236206E-005
2	0	0	1	1	2,232396963291629E+005	1,9132735E+000	1,9140183E+000	-3,605934025706925E-002	2,000000000000000E+000	-3,0205175E-003	41	-6,9018235E-005
2	0	0	1	1	2,232663440333323E+005	1,8892902E+000	1,8900408E+000	-3,991133814774250E-002	2,000000000000000E+000	-4,0353769E-003	41	-7,5434058E-005
2	0	0	1	1	2,232929917375017E+005	1,8653075E+000	1,8660815E+000	-4,415598499695544E-002	2,000000000000000E+000	-5,1579564E-003	41	-8,2398663E-005
2	0	0	1	1	2,233196395416710E+005	1,8413246E+000	1,8420798E+000	-4,898728167812982E-002	2,000000000000000E+000	-6,4016697E-003	41	-9,0238478E-005
2	0	0	1	1	2,233462873458397E+005	1,8173413E+000	1,8181201E+000	-5,430258405712132E-002	2,000000000000000E+000	-7,7799940E-003	41	-9,8728618E-005
2	0	0	1	1	2,233729350500102E+005	1,7933587E+000	1,7941214E+000	-6,024139458802985E-002	2,000000000000000E+000	-9,3085337E-003	41	-1,0808038E-004
2	0	0	1	1	2,233995828541778E+005	1,7693753E+000	1,7701147E+000	-6,691713282103628E-002	2,000000000000000E+000	-1,1004769E-002	41	-1,1845100E-004
2	0	0	1	1	2,234262305583500E+005	1,7453926E+000	1,7461286E+000	-7,428678901529287E-002	2,000000000000000E+000	-1,2887536E-002	41	-1,2971429E-004
2	0	0	1	1	2,234528783625164E+005	1,7214098E+000	1,7221448E+000	-8,241568307327207E-002	2,000000000000000E+000	-1,4977320E-002	41	-1,4193174E-004
2	0	0	1	1	2,234795261666882E+005	1,6974266E+000	1,6981710E+000	-9,143423470669654E-002	2,000000000000000E+000	-1,7295104E-002	41	-1,5527097E-004
2	0	0	1	1	2,235061739708560E+005	1,6734437E+000	1,6741970E+000	-1,013145544294352E-001	2,000000000000000E+000	-1,9864967E-002	41	-1,6962051E-004
2	0	0	1	1	2,235328217750262E+005	1,6494604E+000	1,6501855E+000	-1,118860563209032E-001	2,000000000000000E+000	-2,2705536E-002	40	-1,8463275E-004
2	0	0	1	1	2,235594694791948E+005	1,6254776E+000	1,6262183E+000	-1,236883849453285E-001	2,000000000000000E+000	-2,5844991E-002	40	-2,0114431E-004
2	0	0	1	1	2,235861172833643E+005	1,6014947E+000	1,6022416E+000	-1,365322300224516E-001	2,000000000000000E+000	-2,9313440E-002	40	-2,1875762E-004
2	0	0	1	1	2,236127649875340E+005	1,5775117E+000	1,5782695E+000	-1,512644198127502E-001	2,000000000000000E+000	-3,3148363E-002	40	-2,3873601E-004
2	0	0	1	1	2,236394127917029E+005	1,5535288E+000	1,5542773E+000	-1,680068053715635E-001	2,000000000000000E+000	-3,7401356E-002	40	-2,6112917E-004
2	0	0	1	1	2,236660604958727E+005	1,5295457E+000	1,5302808E+000	-1,872367232016163E-001	2,000000000000000E+000	-4,2132832E-002	40	-2,8652477E-004
2	0	0	1	1	2,236927082000407E+005	1,5055628E+000	1,5063061E+000	-2,079750104531812E-001	2,000000000000000E+000	-4,7398716E-002	40	-3,1327401E-004
2	0	0	1	1	2,237193560042123E+005	1,4815797E+000	1,4823308E+000	-2,314099866626504E-001	2,000000000000000E+000	-5,3256143E-002	40	-3,4302616E-004
2	0	0	1	1	2,237460037083789E+005	1,4575969E+000	1,4583238E+000	-2,532012568738580E-001	2,000000000000000E+000	-5,9727181E-002	40	-3,6924944E-004
2	0	0	1	1	2,237726515125516E+005	1,4336139E+000	1,4343383E+000	-2,707744167232677E-001	2,000000000000000E+000	-6,6724114E-002	40	-3,8838212E-004
2	0	0	1	1	2,237992992167189E+005	1,4096309E+000	1,4103835E+000	-2,832583833156415E-001	2,000000000000000E+000	-7,4121520E-002	40	-3,9950293E-004
2	0	0	1	1	2,238259469208894E+005	1,3856480E+000	1,3864064E+000	-2,912518554587855E-001	2,000000000000000E+000	-8,1789419E-002	40	-4,0379344E-004
2	0	0	1	1	2,238525947250579E+005	1,3616649E+000	1,3624210E+000	-2,969481578417095E-001	2,000000000000000E+000	-8,9634292E-002	40	-4,0456842E-004
2	0	0	1	1	2,238792424292276E+005	1,3376820E+000	1,3384045E+000	-3,003262184563322E-001	2,000000000000000E+000	-9,7601116E-002	40	-4,0195798E-004
2	0	0	1	1	2,239058902333966E+005	1,3136991E+000	1,3144470E+000	-3,015197446720697E-001	2,000000000000000E+000	-1,0562844E-001	40	-3,9633174E-004
2	0	0	1	1	2,239325380375660E+005	1,2897160E+000	1,2904710E+000	-3,004449868931476E-001	2,000000000000000E+000	-1,1365782E-001	40	-3,8771552E-004
2	0	0	1	1	2,239591857417357E+005	1,2657331E+000	1,2664796E+000	-2,974827559392448E-001	2,000000000000000E+000	-1,2163202E-001	40	-3,7675584E-004
2	0	0	1	1	2,239858335459041E+005	1,2417500E+000	1,2425095E+000	-2,932298917125227E-001	2,000000000000000E+000	-1,2950921E-001	40	-3,6434093E-004
2	0	0	1	1	2,240124812500752E+005	1,2177672E+000	1,2185402E+000	-2,878667850235779E-001	2,000000000000000E+000	-1,3725719E-001	40	-3,5077723E-004
2	0	0	1	1	2,240391290542423E+005	1,1937842E+000	1,1945838E+000	-2,819225699981294E-001	2,000000000000000E+000	-1,4485404E-001	40	-3,3678013E-004
2	0	0	1	1	2,240657768584141E+005	1,1698010E+000	1,1705748E+000	-2,754913592909720E-001	2,000000000000000E+000	-1,5228544E-001	40	-3,2248325E-004
2	0	0	1	1	2,240924245625811E+005	1,1458182E+000	1,1465952E+000	-2,687452770121588E-001	2,000000000000000E+000	-1,5953954E-001	40	-3,0814204E-004
2	0	0	1	1	2,241190723667527E+005	1,1218352E+000	1,1226306E+000	-2,620848560608025E-001	2,000000000000000E+000	-1,6661534E-001	40	-2,9422448E-004
2	0	0	1	1	2,241457200709207E+005	1,0978522E+000	1,0986453E+000	-2,555905094365487E-001	2,000000000000000E+000	-1,7351569E-001	40	-2,8080333E-004
2	0	0	1	1	2,241723678750903E+005	1,0738693E+000	1,0746354E+000	-2,494027867311481E-001	2,000000000000000E+000	-1,8024640E-001	40	-2,6801706E-004
2	0	0	1	1	2,241990156792597E+005	1,0498863E+000	1,0506489E+000	-2,436310266697683E-001	2,000000000000000E+000	-1,8681769E-001	40	-2,5597066E-004
2	0	0	1	1	2,242256633834289E+005	1,0259033E+000	1,0266665E+000	-2,383954877161010E-001	2,000000000000000E+000	-1,9324145E-001	40	-2,4475268E-004
2	0	0	1	1	2,242523111875983E+005	1,0019202E+000	1,0027043E+000	-2,336891782369328E-001	2,000000000000000E+000	-1,9953276E-001	40	-2,3432114E-004
2	0	0	1	1	2,242772938915079E+005	1,0205073E+000	1,0212777E+000	-1,918448224619129E-001	2,000000000000000E+000	-2,0478949E-001	40	-1,9592683E-004
2	0	0	1	1	2,243039416956748E+005	1,0444902E+000	1,0452657E+000	-1,663627828928074E-001	2,000000000000000E+000	-2,0953737E-001	40	-1,7389331E-004
2	0	0	1	1	2,243305894998475E+005	1,0684732E+000	1,0692756E+000	-1,475012363436203E-001	2,000000000000000E+000	-2,1370606E-001	40	-1,5771948E-004
2	0	0	1	1	2,243572372040146E+005	1,0924562E+000	1,0932528E+000	-1,323194500563981E-001	2,000000000000000E+000	-2,1742550E-001	40	-1,4465861E-004
2	0	0	1	1	2,243838850081856E+005	1,1164391E+000	1,1172431E+000	-1,195429370340655E-001	2,000000000000000E+000	-2,2077401E-001	40	-1,3355851E-004
2	0	0	1	1	2,244105327123537E+005	1,1404220E+000	1,1412174E+000	-1,085146405877908E-001	2,000000000000000E+000	-2,2380680E-001	40	-1,2383879E-004
2	0	0	1	1	2,244371804165235E+005	1,1644050E+000	1,1651908E+000	-9,876774017962520E-002	2,000000000000000E+000	-2,2656363E-001	40	-1,1508326E-004
2	0	0	1	1	2,244638282206924E+005	1,1883879E+000	1,1891658E+000	-9,003701434319433E-002	2,000000000000000E+000	-2,2907448E-001	40	-1,0706894E-004
2	0	0	1	1	2,244904759248621E+005	1,2123710E+000	1,2131424E+000	-8,213629499024050E-002	2,000000000000000E+000	-2,3136395E-001	40	-9,9643024E-005
2	0	0	1	1	2,245171237290315E+005	1,2363540E+000	1,2371159E+000	-7,489823301785159E-002	2,000000000000000E+000	-2,3345272E-001	40	-9,2657792E-005
2	0	0	1	1	2,245437714332002E+005	1,2603369E+000	1,2611135E+000	-6,809647512665573E-002	2,000000000000000E+000	-2,3535456E-001	40	-8,5877386E-005
2	0	0	1	1	2,245704192373708E+005	1,2843199E+000	1,2850603E+000	-6,161537534832173E-002	2,000000000000000E+000	-2,3708017E-001	40	-7,9179474E-005
2	0	0	1	1	2,245970669415379E+005	1,3083028E+000	1,3090848E+000	-5,518964940335536E-002	2,000000000000000E+000	-2,3863354E-001	40	-7,2247931E-005
2	0	0	1	1	2,246237146457098E+005	1,3322859E+000	1,3330399E+000	-4,877831349142664E-002	2,000000000000000E+000	-2,4001649E-001	40	-6,5023436E-005
2	0	0	1	1	2,246503626498771E+005	1,3562686E+000	1,3570328E+000	-4,232841447549013E-002	2,000000000000000E+000	-2,4122980E-001	41	-5,7441044E-005
2	0	0	1	1	2,246770103540486E+005	1,3802518E+000	1,3810155E+000	-3,550392082805515E-002	2,000000000000000E+000	-2,4226491E-001	41	-4,9031467E-005
2	0	0	1	1	2,247036581582165E+005	1,4042348E+000	1,4050065E+000	-2,834924529710922E-002	2,000000000000000E+000	-2,4311393E-001	41	-3,9830873E-005
2	0	0	1	1	2,247303059623865E+005	1,4282176E+000	1,4289864E+000	-2,071315754269132E-002	2,000000000000000E+000	-2,4376623E-001	41	-2,9598821E-005
2	0	0	1	1	2,247569536665553E+005	1,4522008E+000	1,4529850E+000	-1,254312493248257E-002	2,000000000000000E+000	-2,4420819E-001	41	-1,8224973E-005
2	0	0	1	1	2,247836014707247E+005	1,4761838E+000	1,4769551E+000	-3,742787211944154E-003	2,000000000000000E+000	-2,4442418E-001	42	-5,5279284E-006
2	1	0	1	1	2,248103602749113E+005	1,5002667E+000	1,5010576E+000	5,936122493501877E-003	2,000000000000000E+000	-2,4439454E-001	42	8,9104624E-006
2	1	0	1	1	2,248370079790815E+005	1,5242494E+000	1,5250201E+000	1,655022307984988E-002	2,000000000000000E+000	-2,4409530E-001	41	2,5239424E-005
2	1	0	1	1	2,248636557832505E+005	1,5482324E+000	1,5490128E+000	2,855247382731491E-002	2,000000000000000E+000	-2,4349549E-001	41	4,4228145E-005
2	1	0	1	1	2,248903035874194E+005	1,5722154E+000	1,5729897E+000	4,233397196633906E-002	2,000000000000000E+000	-2,4255295E-001	41	6,6590903E-005
2	1	0	1	1	2,249169512915894E+005	1,5961984E+000	1,5969683E+000	5,930766474476312E-002	2,000000000000000E+000	-2,4120708E-001	41	9,4712457E-005
2	1	0	1	1	2,249435990957576E+005	1,6201814E+000	1,6209943E+000	8,567848113049870E-002	2,000000000000000E+000	-2,3930070E-001	41	1,3888434E-004
2	1	0	1	1	2,249702467999286E+005	1,6441642E+000	1,6449182E+000	1,221561531871715E-001	2,000000000000000E+000	-2,3654333E-001	40	2,0093688E-004
2	1	0	1	1	2,249968946040957E+005	1,6681473E+000	1,6689065E+000	1,633264830019749E-001	2,000000000000000E+000	-2,3274355E-001	40	2,7257661E-004
2	1	0	1	1	2,250235424082680E+005	1,6921304E+000	1,6929172E+000	2,078204910476870E-001	2,000000000000000E+000	-2,2780226E-001	40	3,5182288E-004
2	1	0	1	1	2,250501903124352E+005	1,7161133E+000	1,7169191E+000	2,556467019156319E-001	2,000000000000000E+000	-2,2163230E-001	40	4,3892470E-004
2	1	0	1	1	2,250768380166059E+005	1,7400963E+000	1,7408547E+000	3,066737905658878E-001	2,000000000000000E+000	-2,1414094E-001	40	5,3387450E-004
2	1	0	1	1	2,251034858207742E+005	1,7640792E+000	1,7648250E+000	3,586931586390438E-001	2,000000000000000E+000	-2,0527133E-001	40	6,3303066E-004
2	1	0	1	1	2,251301335249441E+005	1,7880622E+000	1,7888284E+000	4,087204658009826E-001	2,000000000000000E+000	-1,9503279E-001	40	7,3113077E-004
2	1	0	1	1	2,251567812291134E+005	1,8120451E+000	1,8128159E+000	4,534771978364467E-001	2,000000000000000E+000	-1,8352443E-001	40	8,2207069E-004
2	1	0	1	1	2,251834290332827E+005	1,8360281E+000	1,8367920E+000	4,888259411784008E-001	2,000000000000000E+000	-1,7093809E-001	40	8,9787156E-004
2	1	0	1	1	2,252100768374521E+005	1,8600112E+000	1,8607748E+000	5,107315520188731E-001	2,000000000000000E+000	-1,5757987E-001	40	9,5035636E-004
2	1	0	1	1	2,252367247416209E+005	1,8839940E+000	1,8847603E+000	5,162536136135518E-001	2,000000000000000E+000	-1,4386253E-001	40	9,7301428E-004
2	1	0	1	1	2,252633725457913E+005	1,9079770E+000	1,9087592E+000	5,059351596646202E-001	2,000000000000000E+000	-1,3020425E-001	40	9,6570840E-004
2	1	0	1	1	2,252900202499586E+005	1,9319601E+000	1,9327205E+000	4,797647340987190E-001	2,000000000000000E+000	-1,1703619E-001	40	9,2725118E-004
2	1	0	1	1	2,253166680541311E+005	1,9559430E+000	1,9566787E+000	4,422018089708128E-001	2,000000000000000E+000	-1,0472924E-001	40	8,6524687E-004
2	1	0	1	1	2,253433158582975E+005	1,9799262E+000	1,9806718E+000	3,976497336431046E-001	2,000000000000000E+000	-9,3529686E-002	40	7,8761362E-004
2	1	0	1	1	2,253699635624695E+005	2,0039086E+000	2,0046492E+000	3,516455033443586E-001	2,000000000000000E+000	-8,3545625E-002	40	7,0492586E-004
2	1	0	1	1	2,253966113666373E+005	2,0278921E+000	2,0286729E+000	3,080242958175701E-001	2,000000000000000E+000	-7,4760877E-002	40	6,2488054E-004
2	1	0	1	1	2,254232590708071E+005	2,0518749E+000	2,0526502E+000	2,687693011263872E-001	2,000000000000000E+000	-6,7082658E-002	40	5,5168936E-004
2	1	0	1	1	2,254499071749760E+005	2,0758576E+000	2,0766065E+000	2,343160081368191E-001	2,000000000000000E+000	-6,0387325E-002	40	4,8658214E-004
2	1	0	1	1	2,254765549791465E+005	2,0998411E+000	2,1006107E+000	2,044056186578669E-001	2,000000000000000E+000	-5,4548521E-002	40	4,2937664E-004
2	1	0	1	1	2,255032026833151E+005	2,1238239E+000	2,1245756E+000	1,787202396346164E-001	2,000000000000000E+000	-4,9448945E-002	40	3,7970467E-004
2	1	0	1	1	2,255298503874843E+005	2,1478064E+000	2,1485798E+000	1,567928617376571E-001	2,000000000000000E+000	-4,4983890E-002	40	3,3688199E-004
2	1	0	1	1	2,255564981916541E+005	2,1717896E+000	2,1725280E+000	1,382064377774656E-001	2,000000000000000E+000	-4,1058101E-002	40	3,0025735E-004
2	1	0	1	1	2,255831458958220E+005	2,1957724E+000	2,1965044E+000	1,226095373252754E-001	2,000000000000000E+000	-3,7585385E-002	40	2,6931238E-004
2	1	0	1	1	2,256097936999933E+005	2,2197556E+000	2,2205050E+000	1,096554180756322E-001	2,000000000000000E+000	-3,4492962E-002	40	2,4349040E-004
2	1	0	1	1	2,256364415041599E+005	2,2437387E+000	2,2444756E+000	9,873637947531266E-002	2,000000000000000E+000	-3,1717207E-002	40	2,2161139E-004
2	1	0	1	1	2,256630893083327E+005	2,2677214E+000	2,2684653E+000	8,967229303126723E-002	2,000000000000000E+000	-2,9207064E-002	40	2,0341849E-004
2	1	0	1	1	2,256897371124998E+005	2,2917047E+000	2,2924623E+000	8,197138675175530E-002	2,000000000000000E+000	-2,6920145E-002	40	1,8791632E-004
2	1	0	1	1	2,257163849166706E+005	2,3156874E+000	2,3164637E+000	7,544378023966425E-002	2,000000000000000E+000	-2,4822606E-002	40	1,7476278E-004
2	1	0	1	1	2,257430327208390E+005	2,3396707E+000	2,3404300E+000	6,974465888808523E-002	2,000000000000000E+000	-2,2887437E-002	40	1,6323250E-004
2	1	0	1	1	2,257696805250086E+005	2,3636537E+000	2,3644094E+000	6,484718578370322E-002	2,000000000000000E+000	-2,1092128E-002	40	1,5332529E-004
2	1	0	1	1	2,257963282291777E+005	2,3876367E+000	2,3884101E+000	6,063863828756411E-002	2,000000000000000E+000	-1,9417904E-002	40	1,4482993E-004
2	1	0	1	1	2,258229759333474E+005	2,4116192E+000	2,4123738E+000	5,704554935729789E-002	2,000000000000000E+000	-1,7847709E-002	40	1,3761519E-004
2	1	0	1	1	2,258496238375169E+005	2,4356019E+000	2,4363389E+000	5,397436947265988E-002	2,000000000000000E+000	-1,6366335E-002	40	1,3149985E-004
2	1	0	1	1	2,258762714416855E+005	2,4595854E+000	2,4603233E+000	5,124239538756054E-002	2,000000000000000E+000	-1,4961684E-002	40	1,2607286E-004
2	1	0	1	1	2,259029192458561E+005	2,4835680E+000	2,4843152E+000	4,859138648915634E-002	2,000000000000000E+000	-1,3628168E-002	40	1,2071631E-004
2	1	0	1	1	2,259296779500414E+005	2,5076511E+000	2,5084052E+000	4,597048612981736E-002	2,000000000000000E+000	-1,2361526E-002	41	1,1531261E-004
2	1	0	1	1	2,259563257542118E+005	2,5316341E+000	2,5324020E+000	4,369535517320589E-002	2,000000000000000E+000	-1,1163933E-002	41	1,1065420E-004
2	1	0	1	1	2,259829735583793E+005	2,5556171E+000	2,5563602E+000	4,159100918582370E-002	2,000000000000000E+000	-1,0024501E-002	41	1,0632160E-004
2	1	0	1	1	2,260096213625516E+005	2,5796001E+000	2,5803273E+000	3,963404334731013E-002	2,000000000000000E+000	-8,9395260E-003	41	1,0226880E-004
2	1	0	1	1	2,260362692667183E+005	2,6035831E+000	2,6043396E+000	3,789861641944203E-002	2,000000000000000E+000	-7,9035712E-003	41	9,8700868E-005
2	1	0	1	1	2,260629170708903E+005	2,6275663E+000	2,6283114E+000	3,654628794413017E-002	2,000000000000000E+000	-6,9088866E-003	41	9,6055024E-005
2	1	0	1	1	2,260895647750578E+005	2,6515491E+000	2,6522715E+000	3,520587794726926E-002	2,000000000000000E+000	-5,9488760E-003	41	9,3375544E-005
2	1	0	1	1	2,261162125792280E+005	2,6755319E+000	2,6762676E+000	3,371509317891019E-002	2,000000000000000E+000	-5,0270543E-003	41	9,0230613E-005
2	1	0	1	1	2,261428602833966E+005	2,6995151E+000	2,7002459E+000	3,223616295711881E-002	2,000000000000000E+000	-4,1454765E-003	41	8,7045562E-005
2	1	0	1	1	2,261695080875671E+005	2,7234979E+000	2,7242501E+000	3,097240734561474E-002	2,000000000000000E+000	-3,3004060E-003	41	8,4376581E-005
2	1	0	1	1	2,261961556917357E+005	2,7474809E+000	2,7481892E+000	2,995401785839787E-002	2,000000000000000E+000	-2,4857477E-003	41	8,2319311E-005
2	1	0	1	1	2,262228034959049E+005	2,7714636E+000	2,7722034E+000	2,913932385624834E-002	2,000000000000000E+000	-1,6958104E-003	41	8,0780133E-005
2	1	0	1	1	2,262494514000746E+005	2,7954466E+000	2,7961688E+000	2,855131411887879E-002	2,000000000000000E+000	-9,2427578E-004	41	7,9834295E-005
2	1	0	1	1	2,262760992042427E+005	2,8194299E+000	2,8201799E+000	2,823725492509244E-002	2,000000000000000E+000	-1,6464836E-004	41	7,9634141E-005
2	1	0	1	1	2,263027470084138E+005	2,8434129E+000	2,8441520E+000	2,801182269877589E-002	2,000000000000000E+000	5,8857520E-004	41	7,9669881E-005
2	1	0	1	1	2,263293948125807E+005	2,8673961E+000	2,8681583E+000	2,755712034763319E-002	2,000000000000000E+000	1,3329781E-003	41	7,9038182E-005
2	1	0	1	1	2,263560426167534E+005	2,8913791E+000	2,8921227E+000	2,693515801433072E-002	2,000000000000000E+000	2,0622564E-003	41	7,7899786E-005
2	1	0	1	1	2,263826903209204E+005	2,9153621E+000	2,9160764E+000	2,632804773220060E-002	2,000000000000000E+000	2,7749492E-003	41	7,6774602E-005
2	1	0	1	1	2,264093380250912E+005	2,9393444E+000	2,9400887E+000	2,577185724569830E-002	2,000000000000000E+000	3,4727769E-003	41	7,5771546E-005
2	1	0	1	1	2,264359858292596E+005	2,9633276E+000	2,9640558E+000	2,520076759085978E-002	2,000000000000000E+000	4,1553634E-003	41	7,4696480E-005
2	1	0	1	1	2,264626335334294E+005	2,9873109E+000	2,9880381E+000	2,470939420806564E-002	2,000000000000000E+000	4,8232717E-003	41	7,3832613E-005
2	1	0	1	0	2,264872830372857E+005	2,9904084E+000	2,9911375E+000	1,737926231851628E-002	2,000000000000000E+000	5,3736083E-003	41	5,1983763E-005
2	1	0	1	0	2,265139307414559E+005	2,9664257E+000	2,9671130E+000	1,288246312210367E-002	2,000000000000000E+000	5,7668192E-003	41	3,8223723E-005
2	1	0	1	0	2,265405784456245E+005	2,9424419E+000	2,9431624E+000	1,021846343639179E-002	2,000000000000000E+000	6,0692015E-003	41	3,0074598E-005
2	1	0	1	0	2,265672261497942E+005	2,9184594E+000	2,9191687E+000	8,312036924372629E-003	2,000000000000000E+000	6,3115009E-003	41	2,4264238E-005
2	1	0	1	0	2,265938738539635E+005	2,8944764E+000	2,8952308E+000	6,844029934587936E-003	2,000000000000000E+000	6,5095746E-003	41	1,9815046E-005
2	1	0	1	0	2,266205216581319E+005	2,8704937E+000	2,8712201E+000	5,662623868712392E-003	2,000000000000000E+000	6,6722808E-003	41	1,6258640E-005
2	1	0	1	0	2,266471694623027E+005	2,8465106E+000	2,8472548E+000	4,649181829133995E-003	2,000000000000000E+000	6,8059820E-003	42	1,3237405E-005
2	1	0	1	0	2,266738171664705E+005	2,8225276E+000	2,8232574E+000	3,875595678322283E-003	2,000000000000000E+000	6,9157667E-003	42	1,0941804E-005
2	1	0	1	0	2,267004649706422E+005	2,7985449E+000	2,7992830E+000	3,238817744749802E-003	2,000000000000000E+000	7,0067956E-003	42	9,0663680E-006
2	1	0	1	0	2,267271126748088E+005	2,7745616E+000	2,7752945E+000	2,685361794761861E-003	2,000000000000000E+000	7,0823538E-003	42	7,4526697E-006
2	1	0	1	0	2,267537603789805E+005	2,7505789E+000	2,7512989E+000	2,192202418626929E-003	2,000000000000000E+000	7,1441550E-003	42	6,0314042E-006
2	1	0	1	0	2,267804081831482E+005	2,7265956E+000	2,7273300E+000	1,732899849810444E-003	2,000000000000000E+000	7,1932790E-003	42	4,7261897E-006
2	1	0	1	0	2,268070557873189E+005	2,7026126E+000	2,7033513E+000	1,285753019373587E-003	2,000000000000000E+000	7,2302115E-003	42	3,4758420E-006
2	1	0	1	0	2,268337035914875E+005	2,6786299E+000	2,6793685E+000	8,348405934881595E-004	2,000000000000000E+000	7,2552818E-003	42	2,2368456E-006
2	1	0	1	0	2,268604068956655E+005	2,6545968E+000	2,6553214E+000	2,781219463817387E-004	2,000000000000000E+000	7,2673000E-003	42	7,3850316E-007
2	0	0	1	0	2,268882205000171E+005	2,6295643E+000	2,6302946E+000	-4,005740732283946E-004	2,000000000000000E+000	7,2625927E-003	43	-1,0536278E-006
2	0	0	1	0	2,269150903042227E+005	2,6053817E+000	2,6060941E+000	-9,457244060142849E-004	2,000000000000000E+000	7,2404770E-003	42	-2,4646467E-006
2	0	0	1	0	2,269417379083894E+005	2,5813987E+000	2,5821285E+000	-1,228227684600309E-003	2,000000000000000E+000	7,2075310E-003	42	-3,1714417E-006
2	0	0	1	0	2,269683857125612E+005	2,5574157E+000	2,5581431E+000	-1,468987399949426E-003	2,000000000000000E+000	7,1686278E-003	42	-3,7578800E-006
2	0	0	1	0	2,269950334167290E+005	2,5334330E+000	2,5341806E+000	-1,832711060768499E-003	2,000000000000000E+000	7,1219723E-003	42	-4,6444211E-006
2	0	0	1	0	2,270216812208993E+005	2,5094497E+000	2,5101609E+000	-2,241713961545690E-003	2,000000000000000E+000	7,0646242E-003	42	-5,6270628E-006
2	0	0	1	0	2,270483288250677E+005	2,4854672E+000	2,4861937E+000	-2,660417743479575E-003	2,000000000000000E+000	6,9960984E-003	42	-6,6143139E-006
2	0	0	1	0	2,270749766292381E+005	2,4614844E+000	2,4621892E+000	-3,107461319081697E-003	2,000000000000000E+000	6,9157733E-003	42	-7,6511578E-006
2	0	0	1	0	2,271016243334069E+005	2,4375012E+000	2,4382329E+000	-3,575701527024060E-003	2,000000000000000E+000	6,8233898E-003	42	-8,7183935E-006
2	0	0	1	0	2,271282720375760E+005	2,4135182E+000	2,4142420E+000	-4,013487429270615E-003	2,000000000000000E+000	6,7188973E-003	42	-9,6895301E-006
2	0	0	1	0	2,271549198417459E+005	2,3895350E+000	2,3902595E+000	-4,390126875545311E-003	2,000000000000000E+000	6,6033513E-003	42	-1,0493543E-005
2	0	0	1	0	2,271815675459136E+005	2,3655522E+000	2,3662744E+000	-4,876601376196513E-003	2,000000000000000E+000	6,4765830E-003	42	-1,1539377E-005
2	0	0	1	0	2,272082153500852E+005	2,3415689E+000	2,3423061E+000	-5,417448980587193E-003	2,000000000000000E+000	6,3363118E-003	42	-1,2689324E-005
2	0	0	1	0	2,272348631542523E+005	2,3175862E+000	2,3183136E+000	-6,029733418411579E-003	2,000000000000000E+000	6,1804745E-003	42	-1,3978813E-005
2	0	0	1	0	2,272615108584245E+005	2,2936034E+000	2,2943423E+000	-6,737037079597783E-003	2,000000000000000E+000	6,0069226E-003	42	-1,5457070E-005
2	0	0	1	0	2,272881586625918E+005	2,2696199E+000	2,2703414E+000	-7,510686173815062E-003	2,000000000000000E+000	5,8135591E-003	42	-1,7051821E-005
2	0	0	1	0	2,273148063667621E+005	2,2456372E+000	2,2463636E+000	-8,389117084062758E-003	2,000000000000000E+000	5,5981297E-003	42	-1,8845007E-005
2	0	0	1	0	2,273414539709307E+005	2,2216542E+000	2,2223699E+000	-9,361205065622824E-003	2,000000000000000E+000	5,3583281E-003	42	-2,0804060E-005
2	0	0	1	0	2,273681017751000E+005	2,1976714E+000	2,1983905E+000	-1,037765945335780E-002	2,000000000000000E+000	5,0920304E-003	41	-2,2814147E-005
2	0	0	1	0	2,273947494792699E+005	2,1736884E+000	2,1744280E+000	-1,157679819093324E-002	2,000000000000000E+000	4,7960742E-003	41	-2,5172914E-005
2	0	0	1	0	2,274213972834391E+005	2,1497052E+000	2,1504169E+000	-1,292338165102702E-002	2,000000000000000E+000	4,4666105E-003	41	-2,7790658E-005
2	0	0	1	0	2,274480449876087E+005	2,1257224E+000	2,1264770E+000	-1,437521998534016E-002	2,000000000000000E+000	4,1002161E-003	41	-3,0568575E-005
2	0	0	1	0	2,274746927917767E+005	2,1017392E+000	2,1024923E+000	-1,601138718179636E-002	2,000000000000000E+000	3,6923934E-003	41	-3,3663819E-005
2	0	0	1	0	2,275013405959480E+005	2,0777564E+000	2,0784943E+000	-1,783345585169638E-002	2,000000000000000E+000	3,2382654E-003	41	-3,7066737E-005
2	0	0	0	0	2,275223247992315E+005	2,0588205E+000	2,0595334E+000	-1,966948467340784E-002	2,000000000000000E+000	2,8452259E-003	41	-4,0509960E-005