File: Dati/210416/CV_LTO-CB_06_CV_C05.mpt
EC-Lab ASCII FILE
Nb header lines : 57

Cyclic Voltammetry

Run on channel : 5 (SN 6809)
User : Seelab
Electrode connection : standard
Ewe ctrl range : min = 0,00 V, max = 5,00 V
Ewe,I filtering : 50 kHz
Safety Limits :
	Do not start on E overload
Channel : Grounded
Acquisition started on : 04/16/2021 18:38:45
Saved on :
	File : CV_LTO-CB_06_CV_C05.mpr
	Directory : C:\Users\labsuperfici\Desktop\Biologic\Users\Prisca Viviani\210416\
	Host : 10.78.33.0
Device : VSP-300 (SN 0638)
Address : USB
EC-Lab for windows v11.31 (software)
Internet server v11.30 (firmware)
Command interpretor v11.31 (firmware)
Electrode material :
Initial state :
Electrolyte :
Comments :
Cable : standard
Reference electrode : SCE Saturated Calomel Electrode (0,241 V)
Electrode surface area : 0,001 cm²
Characteristic mass : 0,001 g
Equivalent Weight : 0,000 g/eq.
Density : 0,000 g/cm3
Cycle Definition : Charge/Discharge alternance
Ei (V)              0,000
vs.                 Eoc
dE/dt               0,500
dE/dt unit          mV/s
E1 (V)              1,000
vs.                 Ref
Step percent        50
N                   10
E range min (V)     0,000
E range max (V)     5,000
I Range             Auto
I Range min         Unset
I Range max         Unset
I Range init        Unset
Bandwidth           8
E2 (V)              3,000
vs.                 Ref
nc cycles           1
Reverse Scan        1
Ef (V)              0,000
vs.                 Eoc

mode	ox/red	error	control changes	counter inc.	time/s	control/V	Ewe/V	<I>/mA	cycle number	(Q-Qo)/C	I Range	P/W
2	0	0	1	0	1,678715164661614E+005	2,0588205E+000	2,0594456E+000	-1,123696751892567E-002	1,000000000000000E+000	0,0000000E+000	41	-2,3141924E-005
2	0	0	1	0	1,679185827735271E+005	2,0352867E+000	2,0359671E+000	-1,251621400677455E-002	1,000000000000000E+000	-5,4880243E-004	41	-2,5482601E-005
2	0	0	1	0	1,679665487810317E+005	2,0113037E+000	2,0119982E+000	-1,433084768150000E-002	1,000000000000000E+000	-1,1970047E-003	41	-2,8833640E-005
2	0	0	1	0	1,680145149885351E+005	1,9873208E+000	1,9879998E+000	-1,619375876635110E-002	1,000000000000000E+000	-1,9330502E-003	41	-3,2193188E-005
2	0	0	1	0	1,680624808960394E+005	1,9633378E+000	1,9640207E+000	-1,818133297034363E-002	1,000000000000000E+000	-2,7611300E-003	41	-3,5708515E-005
2	0	0	1	0	1,681104468035446E+005	1,9393548E+000	1,9400265E+000	-2,030898235764739E-002	1,000000000000000E+000	-3,6875026E-003	41	-3,9399965E-005
2	0	0	1	0	1,681584126110496E+005	1,9153720E+000	1,9160539E+000	-2,264503318127148E-002	1,000000000000000E+000	-4,7213472E-003	41	-4,3389104E-005
2	0	0	1	0	1,682063786185561E+005	1,8913888E+000	1,8920565E+000	-2,526564879288221E-002	1,000000000000000E+000	-5,8743102E-003	41	-4,7804035E-005
2	0	0	1	0	1,682543446260598E+005	1,8674058E+000	1,8680772E+000	-2,814569754189150E-002	1,000000000000000E+000	-7,1587083E-003	41	-5,2578336E-005
2	0	0	1	0	1,683023105335636E+005	1,8434229E+000	1,8440993E+000	-3,130189300231601E-002	1,000000000000000E+000	-8,5879061E-003	41	-5,7723799E-005
2	0	0	1	0	1,683502765410682E+005	1,8194399E+000	1,8201334E+000	-3,481947568812760E-002	1,000000000000000E+000	-1,0176960E-002	41	-6,3376094E-005
2	0	0	1	0	1,683982424485735E+005	1,7954569E+000	1,7961333E+000	-3,873476673672155E-002	1,000000000000000E+000	-1,1943044E-002	41	-6,9572801E-005
2	0	0	1	0	1,684462084560795E+005	1,7714738E+000	1,7721597E+000	-4,305520290856617E-002	1,000000000000000E+000	-1,3906959E-002	41	-7,6300697E-005
2	0	0	1	0	1,684941742635854E+005	1,7474909E+000	1,7481852E+000	-4,786898841107734E-002	1,000000000000000E+000	-1,6089519E-002	41	-8,3683852E-005
2	0	0	1	0	1,685421401710883E+005	1,7235079E+000	1,7241950E+000	-5,313528312110209E-002	1,000000000000000E+000	-1,8514153E-002	41	-9,1615591E-005
2	0	0	1	0	1,685901060785926E+005	1,6995250E+000	1,7001890E+000	-5,897282178608576E-002	1,000000000000000E+000	-2,1204846E-002	41	-1,0026494E-004
2	0	0	1	0	1,686380721860975E+005	1,6755420E+000	1,6761988E+000	-6,529363925389298E-002	1,000000000000000E+000	-2,4186812E-002	41	-1,0944512E-004
2	0	0	1	0	1,686860381936030E+005	1,6515591E+000	1,6522329E+000	-7,209289044582415E-002	1,000000000000000E+000	-2,7483972E-002	41	-1,1911424E-004
2	0	0	1	0	1,687340041011097E+005	1,6275764E+000	1,6282423E+000	-7,955373178353609E-002	1,000000000000000E+000	-3,1124162E-002	41	-1,2953275E-004
2	0	0	1	0	1,687819701086134E+005	1,6035931E+000	1,6042525E+000	-8,790281201849126E-002	1,000000000000000E+000	-3,5141937E-002	41	-1,4101830E-004
2	0	0	1	0	1,688299361161175E+005	1,5796102E+000	1,5802777E+000	-9,757666690145239E-002	1,000000000000000E+000	-3,9588101E-002	41	-1,5419823E-004
2	0	0	1	0	1,688779019236215E+005	1,5556272E+000	1,5563089E+000	-1,086542340374834E-001	1,000000000000000E+000	-4,4531472E-002	40	-1,6909954E-004
2	0	0	1	0	1,689258677311270E+005	1,5316443E+000	1,5323285E+000	-1,219599511248013E-001	1,000000000000000E+000	-5,0059956E-002	40	-1,8688271E-004
2	0	0	1	0	1,689738337386334E+005	1,5076611E+000	1,5083677E+000	-1,374875739808267E-001	1,000000000000000E+000	-5,6277085E-002	40	-2,0738180E-004
2	0	0	1	0	1,690217997461390E+005	1,4836782E+000	1,4843527E+000	-1,546822736140525E-001	1,000000000000000E+000	-6,3287206E-002	40	-2,2960306E-004
2	0	0	1	0	1,690697657536420E+005	1,4596953E+000	1,4603933E+000	-1,709260228610028E-001	1,000000000000000E+000	-7,1109317E-002	40	-2,4961922E-004
2	0	0	1	0	1,691177316611456E+005	1,4357122E+000	1,4363929E+000	-1,849950330308907E-001	1,000000000000000E+000	-7,9658769E-002	40	-2,6572554E-004
2	0	0	1	0	1,691656975686508E+005	1,4117293E+000	1,4124098E+000	-1,964171106200827E-001	1,000000000000000E+000	-8,8820145E-002	40	-2,7742144E-004
2	0	0	1	0	1,692136635761568E+005	1,3877465E+000	1,3884057E+000	-2,052075647501659E-001	1,000000000000000E+000	-9,8465189E-002	40	-2,8491134E-004
2	0	0	1	0	1,692616295836624E+005	1,3637633E+000	1,3644505E+000	-2,114059131581691E-001	1,000000000000000E+000	-1,0846806E-001	40	-2,8845289E-004
2	0	0	1	0	1,693095952911675E+005	1,3397804E+000	1,3404530E+000	-2,147997097819498E-001	1,000000000000000E+000	-1,1870344E-001	40	-2,8792891E-004
2	0	0	1	0	1,693575612986705E+005	1,3157973E+000	1,3164622E+000	-2,162631734079816E-001	1,000000000000000E+000	-1,2905425E-001	40	-2,8470228E-004
2	0	0	1	0	1,694055272061746E+005	1,2918144E+000	1,2924968E+000	-2,157005890497299E-001	1,000000000000000E+000	-1,3942468E-001	40	-2,7879231E-004
2	0	0	1	0	1,694534932136806E+005	1,2678316E+000	1,2684945E+000	-2,134639901389136E-001	1,000000000000000E+000	-1,4972626E-001	40	-2,7077791E-004
2	0	0	1	0	1,695014592211852E+005	1,2438487E+000	1,2445420E+000	-2,098781249538719E-001	1,000000000000000E+000	-1,5988828E-001	40	-2,6120213E-004
2	0	0	1	0	1,695494251286909E+005	1,2198656E+000	1,2205353E+000	-2,052006790399328E-001	1,000000000000000E+000	-1,6985077E-001	40	-2,5045467E-004
2	0	0	1	0	1,695973911361953E+005	1,1958827E+000	1,1965754E+000	-1,996983294241328E-001	1,000000000000000E+000	-1,7956650E-001	40	-2,3895410E-004
2	0	0	1	0	1,696453570436991E+005	1,1718997E+000	1,1725880E+000	-1,938332946415171E-001	1,000000000000000E+000	-1,8900993E-001	40	-2,2728660E-004
2	0	0	1	0	1,696933228512038E+005	1,1479167E+000	1,1486270E+000	-1,877285771248003E-001	1,000000000000000E+000	-1,9816419E-001	40	-2,1563012E-004
2	0	0	1	0	1,697412888587089E+005	1,1239338E+000	1,1246245E+000	-1,816850571608977E-001	1,000000000000000E+000	-2,0702659E-001	40	-2,0432746E-004
2	0	0	1	0	1,697892547662156E+005	1,0999508E+000	1,1006505E+000	-1,757677407541025E-001	1,000000000000000E+000	-2,1559927E-001	40	-1,9345887E-004
2	0	0	1	0	1,698372207737202E+005	1,0759679E+000	1,0766987E+000	-1,701347006626635E-001	1,000000000000000E+000	-2,2389609E-001	40	-1,8318380E-004
2	0	0	1	0	1,698851866812236E+005	1,0519848E+000	1,0526978E+000	-1,647702938786153E-001	1,000000000000000E+000	-2,3193085E-001	40	-1,7345333E-004
2	0	0	1	0	1,699331526887275E+005	1,0280019E+000	1,0286950E+000	-1,597989362226033E-001	1,000000000000000E+000	-2,3971759E-001	40	-1,6438437E-004
2	0	0	1	0	1,699811186962333E+005	1,0040188E+000	1,0047092E+000	-1,553580384224520E-001	1,000000000000000E+000	-2,4727760E-001	40	-1,5608966E-004
2	0	0	1	0	1,700262871033018E+005	1,0185086E+000	1,0192211E+000	-1,274698514099777E-001	1,000000000000000E+000	-2,5366485E-001	40	-1,2991996E-004
2	0	0	1	0	1,700742531108074E+005	1,0424917E+000	1,0431939E+000	-1,084894112871464E-001	1,000000000000000E+000	-2,5929096E-001	40	-1,1317550E-004
2	0	0	1	0	1,701222190183105E+005	1,0664746E+000	1,0672269E+000	-9,455556909784613E-002	1,000000000000000E+000	-2,6414293E-001	40	-1,0091224E-004
2	0	0	1	0	1,701701850258147E+005	1,0904576E+000	1,0911849E+000	-8,345442317246077E-002	1,000000000000000E+000	-2,6840031E-001	40	-9,1064205E-005
2	0	0	1	0	1,702181509333197E+005	1,1144403E+000	1,1151358E+000	-7,425031527580139E-002	1,000000000000000E+000	-2,7217284E-001	40	-8,2799183E-005
2	0	0	1	0	1,702661169408252E+005	1,1384234E+000	1,1390712E+000	-6,634967587006457E-002	1,000000000000000E+000	-2,7553681E-001	40	-7,5577009E-005
2	0	0	1	0	1,703140831483314E+005	1,1624064E+000	1,1631064E+000	-5,951582889979656E-002	1,000000000000000E+000	-2,7854764E-001	40	-6,9223242E-005
2	0	0	1	0	1,703620489558354E+005	1,1863894E+000	1,1870980E+000	-5,349107693170341E-002	1,000000000000000E+000	-2,8125137E-001	40	-6,3499152E-005
2	0	0	1	0	1,704100149633391E+005	1,2103726E+000	1,2110523E+000	-4,829750934766780E-002	1,000000000000000E+000	-2,8368428E-001	41	-5,8490808E-005
2	0	0	1	0	1,704579808708434E+005	1,2343553E+000	1,2350326E+000	-4,355095182025903E-002	1,000000000000000E+000	-2,8588170E-001	41	-5,3786844E-005
2	0	0	1	0	1,705059468783489E+005	1,2583382E+000	1,2590173E+000	-3,920174289402578E-002	1,000000000000000E+000	-2,8786159E-001	41	-4,9355673E-005
2	0	0	1	0	1,705539129858548E+005	1,2823212E+000	1,2829770E+000	-3,510202550098496E-002	1,000000000000000E+000	-2,8964028E-001	41	-4,5035093E-005
2	0	0	1	0	1,706018788933596E+005	1,3063042E+000	1,3069855E+000	-3,112302566545971E-002	1,000000000000000E+000	-2,9122549E-001	41	-4,0677343E-005
2	0	0	1	0	1,706498449008651E+005	1,3302871E+000	1,3309327E+000	-2,714959407601436E-002	1,000000000000000E+000	-2,9262030E-001	41	-3,6134283E-005
2	0	0	1	0	1,706978108083680E+005	1,3542701E+000	1,3549325E+000	-2,305566828179068E-002	1,000000000000000E+000	-2,9382193E-001	41	-3,1238877E-005
2	0	0	1	0	1,707457770158723E+005	1,3782531E+000	1,3789296E+000	-1,880117727321839E-002	1,000000000000000E+000	-2,9482400E-001	41	-2,5925499E-005
2	0	0	1	0	1,707937430233783E+005	1,4022362E+000	1,4029287E+000	-1,432315874907383E-002	1,000000000000000E+000	-2,9561710E-001	41	-2,0094370E-005
2	0	0	1	0	1,708417089308836E+005	1,4262192E+000	1,4268845E+000	-9,587486806955620E-003	1,000000000000000E+000	-2,9618907E-001	41	-1,3680236E-005
2	0	0	1	0	1,708896749383891E+005	1,4502019E+000	1,4508424E+000	-4,496545712573893E-003	1,000000000000000E+000	-2,9652485E-001	42	-6,5237791E-006
2	1	0	1	0	1,709376409458930E+005	1,4741850E+000	1,4748849E+000	1,051805688543937E-003	1,000000000000000E+000	-2,9660621E-001	42	1,5512923E-006
2	1	0	1	0	1,709856069533967E+005	1,4981681E+000	1,4988790E+000	7,065493423884461E-003	1,000000000000000E+000	-2,9641119E-001	42	1,0590319E-005
2	1	0	1	0	1,710335729609015E+005	1,5221509E+000	1,5228283E+000	1,367902500208076E-002	1,000000000000000E+000	-2,9591423E-001	41	2,0830807E-005
2	1	0	1	0	1,710815388684077E+005	1,5461340E+000	1,5468142E+000	2,115257851811489E-002	1,000000000000000E+000	-2,9508027E-001	41	3,2719108E-005
2	1	0	1	0	1,711295049759122E+005	1,5701170E+000	1,5708303E+000	2,995510151083758E-002	1,000000000000000E+000	-2,9385629E-001	41	4,7054382E-005
2	1	0	1	0	1,711774708834179E+005	1,5940999E+000	1,5947917E+000	4,092363091709228E-002	1,000000000000000E+000	-2,9216829E-001	41	6,5264663E-005
2	1	0	1	0	1,712254368909216E+005	1,6180828E+000	1,6187696E+000	5,920249225076055E-002	1,000000000000000E+000	-2,8980368E-001	41	9,5835196E-005
2	1	0	1	0	1,712734028984252E+005	1,6420658E+000	1,6427521E+000	8,492006771080307E-002	1,000000000000000E+000	-2,8636104E-001	41	1,3950262E-004
2	1	0	1	0	1,713213690059311E+005	1,6660489E+000	1,6667290E+000	1,147932951952875E-001	1,000000000000000E+000	-2,8158489E-001	40	1,9132931E-004
2	1	0	1	0	1,713693351134369E+005	1,6900319E+000	1,6907430E+000	1,490881777023472E-001	1,000000000000000E+000	-2,7526826E-001	40	2,5206979E-004
2	1	0	1	0	1,714173010209417E+005	1,7140146E+000	1,7146966E+000	1,870665077766325E-001	1,000000000000000E+000	-2,6721409E-001	40	3,2076231E-004
2	1	0	1	0	1,714652670284472E+005	1,7379979E+000	1,7387015E+000	2,276371158488046E-001	1,000000000000000E+000	-2,5727272E-001	40	3,9579297E-004
2	1	0	1	0	1,715132331359505E+005	1,7619807E+000	1,7626663E+000	2,697196852589934E-001	1,000000000000000E+000	-2,4534026E-001	40	4,7542583E-004
2	1	0	1	0	1,715611991434549E+005	1,7859637E+000	1,7866281E+000	3,102231946118457E-001	1,000000000000000E+000	-2,3140937E-001	40	5,5425346E-004
2	1	0	1	0	1,716091651509604E+005	1,8099468E+000	1,8106300E+000	3,439036922359899E-001	1,000000000000000E+000	-2,1567702E-001	40	6,2268233E-004
2	1	0	1	0	1,716571309584659E+005	1,8339297E+000	1,8346192E+000	3,661882019072713E-001	1,000000000000000E+000	-1,9859003E-001	40	6,7181588E-004
2	1	0	1	0	1,717050968659716E+005	1,8579127E+000	1,8585867E+000	3,748004056194363E-001	1,000000000000000E+000	-1,8075237E-001	40	6,9659902E-004
2	1	0	1	0	1,717530629734753E+005	1,8818955E+000	1,8825911E+000	3,688026108106723E-001	1,000000000000000E+000	-1,6285294E-001	40	6,9430453E-004
2	1	0	1	0	1,718010289809792E+005	1,9058785E+000	1,9065586E+000	3,507202079036764E-001	1,000000000000000E+000	-1,4554864E-001	40	6,6866865E-004
2	1	0	1	0	1,718489948884845E+005	1,9298614E+000	1,9305564E+000	3,230706860120174E-001	1,000000000000000E+000	-1,2935978E-001	40	6,2370620E-004
2	1	0	1	0	1,718969608959891E+005	1,9538444E+000	1,9545455E+000	2,903756891540024E-001	1,000000000000000E+000	-1,1463316E-001	40	5,6755252E-004
2	1	0	1	0	1,719449270034954E+005	1,9778274E+000	1,9784839E+000	2,564080120477530E-001	1,000000000000000E+000	-1,0151308E-001	40	5,0729915E-004
2	1	0	1	0	1,719928930110000E+005	2,0018103E+000	2,0025082E+000	2,235169035920315E-001	1,000000000000000E+000	-9,0008363E-002	40	4,4759442E-004
2	1	0	1	0	1,720408590185039E+005	2,0257931E+000	2,0264881E+000	1,932845624129631E-001	1,000000000000000E+000	-8,0021709E-002	40	3,9168887E-004
2	1	0	1	0	1,720888250260081E+005	2,0497761E+000	2,0504487E+000	1,664968846745776E-001	1,000000000000000E+000	-7,1403384E-002	40	3,4139332E-004
2	1	0	1	0	1,721367912335135E+005	2,0737593E+000	2,0744548E+000	1,431834490031663E-001	1,000000000000000E+000	-6,3985154E-002	40	2,9702758E-004
2	1	0	1	0	1,721847572410190E+005	2,0977423E+000	2,0984046E+000	1,231012032687094E-001	1,000000000000000E+000	-5,7607561E-002	40	2,5831614E-004
2	1	0	1	0	1,722327232485255E+005	2,1217253E+000	2,1223888E+000	1,062177458933249E-001	1,000000000000000E+000	-5,2115515E-002	40	2,2543536E-004
2	1	0	1	0	1,722806892560292E+005	2,1457083E+000	2,1463678E+000	9,223938137426879E-002	1,000000000000000E+000	-4,7361810E-002	40	1,9797964E-004
2	1	0	1	0	1,723286556635331E+005	2,1696911E+000	2,1703575E+000	8,079411802830686E-002	1,000000000000000E+000	-4,3216605E-002	40	1,7535212E-004
2	1	0	1	0	1,723766213710373E+005	2,1936738E+000	2,1943359E+000	7,144816269365911E-002	1,000000000000000E+000	-3,9568227E-002	40	1,5678127E-004
2	1	0	1	0	1,724245873785424E+005	2,2176571E+000	2,2183197E+000	6,373422003744800E-002	1,000000000000000E+000	-3,6327884E-002	40	1,4138287E-004
2	1	0	1	0	1,724725531860488E+005	2,2416399E+000	2,2423093E+000	5,736215296784630E-002	1,000000000000000E+000	-3,3423398E-002	40	1,2862369E-004
2	1	0	1	0	1,725205195935536E+005	2,2656231E+000	2,2663095E+000	5,200578720395660E-002	1,000000000000000E+000	-3,0799570E-002	40	1,1786121E-004
2	1	0	1	0	1,725684856010582E+005	2,2896061E+000	2,2902701E+000	4,734915878036181E-002	1,000000000000000E+000	-2,8413439E-002	41	1,0844236E-004
2	1	0	1	0	1,726164516085619E+005	2,3135889E+000	2,3142424E+000	4,346291045132211E-002	1,000000000000000E+000	-2,6232980E-002	41	1,0058371E-004
2	1	0	1	0	1,726644176160661E+005	2,3375721E+000	2,3382690E+000	4,012978526391658E-002	1,000000000000000E+000	-2,4225241E-002	41	9,3834235E-005
2	1	0	1	0	1,727123840235719E+005	2,3615549E+000	2,3622260E+000	3,723735853244103E-002	1,000000000000000E+000	-2,2366662E-002	41	8,7963053E-005
2	1	0	1	0	1,727603500310769E+005	2,3855381E+000	2,3862138E+000	3,474016138973834E-002	1,000000000000000E+000	-2,0637000E-002	41	8,2897452E-005
2	1	0	1	0	1,728083160385834E+005	2,4095209E+000	2,4101899E+000	3,262634493161143E-002	1,000000000000000E+000	-1,9017840E-002	41	7,8635683E-005
2	1	0	1	0	1,728562820460871E+005	2,4335041E+000	2,4341516E+000	3,082918289735803E-002	1,000000000000000E+000	-1,7492186E-002	41	7,5042910E-005
2	1	0	1	0	1,729042478535906E+005	2,4574866E+000	2,4581399E+000	2,920168833015813E-002	1,000000000000000E+000	-1,6047908E-002	41	7,1781833E-005
2	1	0	1	0	1,729522142610955E+005	2,4814696E+000	2,4821019E+000	2,762704991276677E-002	1,000000000000000E+000	-1,4680430E-002	41	6,8573150E-005
2	1	0	1	0	1,730001799686006E+005	2,5054526E+000	2,5061076E+000	2,615865290022312E-002	1,000000000000000E+000	-1,3385944E-002	41	6,5556400E-005
2	1	0	1	0	1,730481459761066E+005	2,5294359E+000	2,5301046E+000	2,481550824521900E-002	1,000000000000000E+000	-1,2159144E-002	41	6,2785832E-005
2	1	0	1	0	1,730961119836122E+005	2,5534186E+000	2,5540917E+000	2,358365143479546E-002	1,000000000000000E+000	-1,0994461E-002	41	6,0234808E-005
2	1	0	1	0	1,731440783911159E+005	2,5774016E+000	2,5780547E+000	2,239767767154788E-002	1,000000000000000E+000	-9,8876916E-003	41	5,7742436E-005
2	1	0	1	0	1,731920443986196E+005	2,6013844E+000	2,6020200E+000	2,140536670316412E-002	1,000000000000000E+000	-8,8332901E-003	41	5,5697194E-005
2	1	0	1	0	1,732400104061249E+005	2,6253676E+000	2,6260290E+000	2,066116082789421E-002	1,000000000000000E+000	-7,8201815E-003	41	5,4256809E-005
2	1	0	1	0	1,732879764136299E+005	2,6493504E+000	2,6500070E+000	1,983951579797724E-002	1,000000000000000E+000	-6,8435990E-003	41	5,2574855E-005
2	1	0	1	0	1,733359428211367E+005	2,6733336E+000	2,6739867E+000	1,889730610989700E-002	1,000000000000000E+000	-5,9105456E-003	41	5,0531144E-005
2	1	0	1	0	1,733839086286407E+005	2,6973164E+000	2,6979766E+000	1,802972533898327E-002	1,000000000000000E+000	-5,0213155E-003	41	4,8643778E-005
2	1	0	1	0	1,734318746361448E+005	2,7212996E+000	2,7219622E+000	1,735077022983575E-002	1,000000000000000E+000	-4,1687833E-003	41	4,7228143E-005
2	1	0	1	0	1,734798404436484E+005	2,7452824E+000	2,7459714E+000	1,683640491746839E-002	1,000000000000000E+000	-3,3451177E-003	41	4,6232286E-005
2	1	0	1	0	1,735278068511542E+005	2,7692652E+000	2,7699397E+000	1,645686250965023E-002	1,000000000000000E+000	-2,5432552E-003	41	4,5584515E-005
2	1	0	1	0	1,735757728586597E+005	2,7932482E+000	2,7939305E+000	1,630281070734499E-002	1,000000000000000E+000	-1,7541404E-003	41	4,5548921E-005
2	1	0	1	0	1,736237388661662E+005	2,8172314E+000	2,8178804E+000	1,639173376952958E-002	1,000000000000000E+000	-9,6632174E-004	41	4,6189944E-005
2	1	0	1	0	1,736717048736699E+005	2,8412142E+000	2,8418999E+000	1,643624140033795E-002	1,000000000000000E+000	-1,7334765E-004	41	4,6710153E-005
2	1	0	1	0	1,737196712811738E+005	2,8651974E+000	2,8658564E+000	1,622514381611939E-002	1,000000000000000E+000	6,1530748E-004	41	4,6498932E-005
2	1	0	1	0	1,737676372886775E+005	2,8891802E+000	2,8898344E+000	1,586070679487162E-002	1,000000000000000E+000	1,3897732E-003	41	4,5834815E-005
2	1	0	1	0	1,738156032961831E+005	2,9131632E+000	2,9138362E+000	1,544936408268438E-002	1,000000000000000E+000	2,1456177E-003	41	4,5016917E-005
2	1	0	1	0	1,738635690036891E+005	2,9371459E+000	2,9378085E+000	1,499542672018220E-002	1,000000000000000E+000	2,8801353E-003	41	4,4053693E-005
2	1	0	1	0	1,739115354111949E+005	2,9611290E+000	2,9617469E+000	1,463998570355041E-002	1,000000000000000E+000	3,5946725E-003	41	4,3359934E-005
2	1	0	1	0	1,739595012186989E+005	2,9851120E+000	2,9857547E+000	1,444899616066736E-002	1,000000000000000E+000	4,2968378E-003	41	4,3141157E-005
2	1	0	1	1	1,740042695257040E+005	2,9924071E+000	2,9930356E+000	1,040552793348909E-002	1,000000000000000E+000	4,8989509E-003	41	3,1144114E-005
2	1	0	1	1	1,740522355332077E+005	2,9684241E+000	2,9690850E+000	7,423578139232764E-003	1,000000000000000E+000	5,3132521E-003	41	2,2041235E-005
2	1	0	1	1	1,741002015407120E+005	2,9444413E+000	2,9451315E+000	5,736532110374150E-003	1,000000000000000E+000	5,6214142E-003	41	1,6894841E-005
2	1	0	1	1	1,741481675482164E+005	2,9204578E+000	2,9211237E+000	4,561575936298037E-003	1,000000000000000E+000	5,8624209E-003	42	1,3324928E-005
2	1	0	1	1	1,741961335557224E+005	2,8964746E+000	2,8971443E+000	3,693741939103962E-003	1,000000000000000E+000	6,0553197E-003	42	1,0701304E-005
2	1	0	1	1	1,742440992632275E+005	2,8724918E+000	2,8731592E+000	3,008736412338883E-003	1,000000000000000E+000	6,2111667E-003	42	8,6445789E-006
2	1	0	1	1	1,742920651707333E+005	2,8485091E+000	2,8491764E+000	2,426621122918561E-003	1,000000000000000E+000	6,3365982E-003	42	6,9138719E-006
2	1	0	1	1	1,743400309782366E+005	2,8245263E+000	2,8251946E+000	1,969899759426113E-003	1,000000000000000E+000	6,4370129E-003	42	5,5653500E-006
2	1	0	1	1	1,743879969857405E+005	2,8005431E+000	2,8012044E+000	1,586236342633360E-003	1,000000000000000E+000	6,5176669E-003	42	4,4433723E-006
2	1	0	1	1	1,744359629932456E+005	2,7765603E+000	2,7772155E+000	1,292271602632372E-003	1,000000000000000E+000	6,5824953E-003	42	3,5889168E-006
2	1	0	1	1	1,744839289007513E+005	2,7525775E+000	2,7532310E+000	1,024142821217025E-003	1,000000000000000E+000	6,6336882E-003	42	2,8197019E-006
2	1	0	1	1	1,745318949082578E+005	2,7285943E+000	2,7292979E+000	7,721995615376336E-004	1,000000000000000E+000	6,6724643E-003	42	2,1075625E-006
2	1	0	1	1	1,745798609157614E+005	2,7046111E+000	2,7052777E+000	5,213520355402098E-004	1,000000000000000E+000	6,6990368E-003	42	1,4104020E-006
2	1	0	1	1	1,746280267232964E+005	2,6805284E+000	2,6811986E+000	2,656818903731127E-004	1,000000000000000E+000	6,7136246E-003	43	7,1234592E-007
2	1	0	1	1	1,746759926308016E+005	2,6565452E+000	2,6572142E+000	-4,064229385868003E-005	1,000000000000000E+000	6,7144958E-003	43	-1,0799528E-007
2	0	0	1	1	1,747239586383076E+005	2,6325624E+000	2,6332481E+000	-4,576369707978666E-004	1,000000000000000E+000	6,6979975E-003	43	-1,2050717E-006
2	0	0	1	1	1,747719244458126E+005	2,6085794E+000	2,6092670E+000	-8,082187450806806E-004	1,000000000000000E+000	6,6623958E-003	42	-2,1088586E-006
2	0	0	1	1	1,748198904533163E+005	2,5845966E+000	2,5852754E+000	-9,421909152364794E-004	1,000000000000000E+000	6,6153775E-003	42	-2,4358230E-006
2	0	0	1	1	1,748678562608201E+005	2,5606136E+000	2,5612500E+000	-1,050750151908432E-003	1,000000000000000E+000	6,5635750E-003	42	-2,6912337E-006
2	0	0	1	1	1,749158220683252E+005	2,5366304E+000	2,5373020E+000	-1,261366388569912E-003	1,000000000000000E+000	6,5042563E-003	42	-3,2004675E-006
2	0	0	1	1	1,749637880758308E+005	2,5126476E+000	2,5133066E+000	-1,516496131697052E-003	1,000000000000000E+000	6,4334148E-003	42	-3,8114197E-006
2	0	0	1	1	1,750117540833363E+005	2,4886646E+000	2,4893389E+000	-1,768001085468682E-003	1,000000000000000E+000	6,3501140E-003	42	-4,4011540E-006
2	0	0	1	1	1,750597200908409E+005	2,4646819E+000	2,4653339E+000	-2,029074063527543E-003	1,000000000000000E+000	6,2544034E-003	42	-5,0023450E-006
2	0	0	1	1	1,751076860983451E+005	2,4406986E+000	2,4413962E+000	-2,291224373754407E-003	1,000000000000000E+000	6,1459555E-003	42	-5,5937867E-006
2	0	0	1	1	1,751556521058488E+005	2,4167159E+000	2,4174006E+000	-2,564402648149874E-003	1,000000000000000E+000	6,0246787E-003	42	-6,1991886E-006
2	0	0	1	1	1,752036181133548E+005	2,3927326E+000	2,3934300E+000	-2,818033701621148E-003	1,000000000000000E+000	5,8913464E-003	42	-6,7447663E-006
2	0	0	1	1	1,752515841208594E+005	2,3687496E+000	2,3694308E+000	-3,093188536467242E-003	1,000000000000000E+000	5,7453807E-003	42	-7,3290962E-006
2	0	0	1	1	1,752995498283654E+005	2,3447666E+000	2,3454022E+000	-3,438681471401472E-003	1,000000000000000E+000	5,5844169E-003	42	-8,0650916E-006
2	0	0	1	1	1,753475158358696E+005	2,3207836E+000	2,3214760E+000	-3,809018377404522E-003	1,000000000000000E+000	5,4065883E-003	42	-8,8425450E-006
2	0	0	1	1	1,753954815433731E+005	2,2968011E+000	2,2974520E+000	-4,229096580487000E-003	1,000000000000000E+000	5,2095214E-003	42	-9,7161465E-006
2	0	0	1	1	1,754434475508789E+005	2,2728179E+000	2,2734766E+000	-4,677784468929469E-003	1,000000000000000E+000	4,9913223E-003	42	-1,0634833E-005
2	0	0	1	1	1,754914135583835E+005	2,2488348E+000	2,2494996E+000	-5,212950360254445E-003	1,000000000000000E+000	4,7494331E-003	42	-1,1726530E-005
2	0	0	1	1	1,755393795658899E+005	2,2248521E+000	2,2255049E+000	-5,794049934352702E-003	1,000000000000000E+000	4,4813142E-003	42	-1,2894687E-005
2	0	0	1	1	1,755873455733946E+005	2,2008691E+000	2,2015476E+000	-6,442705297075149E-003	1,000000000000000E+000	4,1837757E-003	42	-1,4183923E-005
2	0	0	1	1	1,756353115808982E+005	2,1768861E+000	2,1775477E+000	-7,171069053414261E-003	1,000000000000000E+000	3,8531432E-003	42	-1,5615346E-005
2	0	0	1	1	1,756832774884023E+005	2,1529028E+000	2,1535528E+000	-8,009553853849209E-003	1,000000000000000E+000	3,4850189E-003	42	-1,7248996E-005
2	0	0	1	1	1,757312434959081E+005	2,1289201E+000	2,1296027E+000	-8,937945951921294E-003	1,000000000000000E+000	3,0747268E-003	42	-1,9034274E-005
2	0	0	1	1	1,757792093034135E+005	2,1049371E+000	2,1056037E+000	-9,959731499910668E-003	1,000000000000000E+000	2,6172041E-003	41	-2,0971247E-005
2	0	0	1	1	1,758271753109191E+005	2,0809541E+000	2,0816393E+000	-1,110425746322791E-002	1,000000000000000E+000	2,1079511E-003	41	-2,3115059E-005
2	0	0	1	1	1,758727430180474E+005	2,0581703E+000	2,0588624E+000	-1,232292873897637E-002	2,000000000000000E+000	1,5706694E-003	41	-2,5371215E-005
2	0	0	1	1	1,759207090255534E+005	2,0341873E+000	2,0348799E+000	-1,371955128675175E-002	2,000000000000000E+000	9,4229408E-004	41	-2,7917640E-005
2	0	0	1	1	1,759686750330580E+005	2,0102043E+000	2,0109222E+000	-1,527714061852163E-002	2,000000000000000E+000	2,4262709E-004	41	-3,0721141E-005
2	0	0	1	1	1,760166409405621E+005	1,9862214E+000	1,9869039E+000	-1,701785428196027E-002	2,000000000000000E+000	-5,3650228E-004	41	-3,3812841E-005
2	0	0	1	1	1,760646069480658E+005	1,9622387E+000	1,9629198E+000	-1,889944621429346E-002	2,000000000000000E+000	-1,4015869E-003	41	-3,7098096E-005
2	0	0	1	1	1,761125726555707E+005	1,9382555E+000	1,9389378E+000	-2,100527644540801E-002	2,000000000000000E+000	-2,3623977E-003	41	-4,0727926E-005
2	0	0	1	1	1,761605386630772E+005	1,9142727E+000	1,9149644E+000	-2,330785905203248E-002	2,000000000000000E+000	-3,4284866E-003	41	-4,4633722E-005
2	0	0	1	1	1,762085046705818E+005	1,8902895E+000	1,8909631E+000	-2,592080785515352E-002	2,000000000000000E+000	-4,6130824E-003	41	-4,9015289E-005
2	0	0	1	1	1,762564705780875E+005	1,8663067E+000	1,8669811E+000	-2,881543977087364E-002	2,000000000000000E+000	-5,9293839E-003	41	-5,3797881E-005
2	0	0	1	1	1,763044365855905E+005	1,8423237E+000	1,8429965E+000	-3,203579138304191E-002	2,000000000000000E+000	-7,3924894E-003	41	-5,9041849E-005
2	0	0	1	1	1,763524024930946E+005	1,8183407E+000	1,8190401E+000	-3,563295854306214E-002	2,000000000000000E+000	-9,0180691E-003	41	-6,4817781E-005
2	0	0	1	1	1,764003685006006E+005	1,7943577E+000	1,7950279E+000	-3,962134309739884E-002	2,000000000000000E+000	-1,0825669E-002	41	-7,1121416E-005
2	0	0	1	1	1,764483345081052E+005	1,7703747E+000	1,7710747E+000	-4,406161325652086E-002	2,000000000000000E+000	-1,2835128E-002	41	-7,8036406E-005
2	0	0	1	1	1,764963002156112E+005	1,7463918E+000	1,7470744E+000	-4,901360068442273E-002	2,000000000000000E+000	-1,5068926E-002	41	-8,5630403E-005
2	0	0	1	1	1,765442662231154E+005	1,7224088E+000	1,7230967E+000	-5,444404629987687E-002	2,000000000000000E+000	-1,7552676E-002	41	-9,3812356E-005
2	0	0	1	1	1,765922321306192E+005	1,6984258E+000	1,6991292E+000	-6,043839325381073E-002	2,000000000000000E+000	-2,0309824E-002	41	-1,0269264E-004
2	0	0	1	1	1,766401982381241E+005	1,6744429E+000	1,6751289E+000	-6,697122920868226E-002	2,000000000000000E+000	-2,3368089E-002	41	-1,1218544E-004
2	0	0	1	1	1,766881641456294E+005	1,6504599E+000	1,6511199E+000	-7,415325201384296E-002	2,000000000000000E+000	-2,6754001E-002	41	-1,2243591E-004
2	0	0	1	1	1,767361301531354E+005	1,6264769E+000	1,6271570E+000	-8,201571246507622E-002	2,000000000000000E+000	-3,0501543E-002	41	-1,3345244E-004
2	0	0	1	1	1,767840961606409E+005	1,6024939E+000	1,6031520E+000	-9,099820399776171E-002	2,000000000000000E+000	-3,4651380E-002	41	-1,4588395E-004
2	0	0	1	1	1,768320620681439E+005	1,5785110E+000	1,5791978E+000	-1,014824415767095E-001	2,000000000000000E+000	-3,9264843E-002	41	-1,6026084E-004
2	0	0	1	1	1,768800278756476E+005	1,5545279E+000	1,5552227E+000	-1,135824838389412E-001	2,000000000000000E+000	-4,4416338E-002	40	-1,7664606E-004
2	0	0	1	1	1,769279937831536E+005	1,5305449E+000	1,5312349E+000	-1,281572320328377E-001	2,000000000000000E+000	-5,0209977E-002	40	-1,9623882E-004
2	0	0	1	1	1,769759597906591E+005	1,5065621E+000	1,5072541E+000	-1,454756590054096E-001	2,000000000000000E+000	-5,6767609E-002	40	-2,1926878E-004
2	0	0	1	1	1,770239257981647E+005	1,4825791E+000	1,4832784E+000	-1,644817246326120E-001	2,000000000000000E+000	-6,4207152E-002	40	-2,4397219E-004
2	0	0	1	1	1,770718917056695E+005	1,4585962E+000	1,4592998E+000	-1,814818772886091E-001	2,000000000000000E+000	-7,2527118E-002	40	-2,6483648E-004
2	0	0	1	1	1,771198577131724E+005	1,4346131E+000	1,4353062E+000	-1,936387324449109E-001	2,000000000000000E+000	-8,1546374E-002	40	-2,7793087E-004
2	0	0	1	1	1,771678236206770E+005	1,4106302E+000	1,4113183E+000	-2,026415235875678E-001	2,000000000000000E+000	-9,1063932E-002	40	-2,8599170E-004
2	0	0	1	1	1,772157896281825E+005	1,3866472E+000	1,3873063E+000	-2,095090499472643E-001	2,000000000000000E+000	-1,0096398E-001	40	-2,9065323E-004
2	0	0	1	1	1,772637556356890E+005	1,3626642E+000	1,3633462E+000	-2,138065148433279E-001	2,000000000000000E+000	-1,1112998E-001	40	-2,9149230E-004
2	0	0	1	1	1,773117213431932E+005	1,3386812E+000	1,3393303E+000	-2,161147714138347E-001	2,000000000000000E+000	-1,2145286E-001	40	-2,8944906E-004
2	0	0	1	1	1,773596873506971E+005	1,3146981E+000	1,3153750E+000	-2,163551340636838E-001	2,000000000000000E+000	-1,3183621E-001	40	-2,8458814E-004
2	0	0	1	1	1,774076532582012E+005	1,2907152E+000	1,2913870E+000	-2,147042512027948E-001	2,000000000000000E+000	-1,4218384E-001	40	-2,7726628E-004
2	0	0	1	1	1,774556192657063E+005	1,2667322E+000	1,2673938E+000	-2,117049175862391E-001	2,000000000000000E+000	-1,5242001E-001	40	-2,6831351E-004
2	0	0	1	1	1,775035852732118E+005	1,2427493E+000	1,2434381E+000	-2,075930004956992E-001	2,000000000000000E+000	-1,6248505E-001	40	-2,5812906E-004
2	0	0	1	1	1,775515510807177E+005	1,2187663E+000	1,2194623E+000	-2,024468016132442E-001	2,000000000000000E+000	-1,7232674E-001	40	-2,4687624E-004
2	0	0	1	1	1,775995170882223E+005	1,1947833E+000	1,1954931E+000	-1,967770440287284E-001	2,000000000000000E+000	-1,8190722E-001	40	-2,3524559E-004
2	0	0	1	1	1,776474829957259E+005	1,1708006E+000	1,1715158E+000	-1,906907357571153E-001	2,000000000000000E+000	-1,9120416E-001	40	-2,2339722E-004
2	0	0	1	1	1,776954489032300E+005	1,1468173E+000	1,1475375E+000	-1,845524980383755E-001	2,000000000000000E+000	-2,0020670E-001	40	-2,1178091E-004
2	0	0	1	1	1,777434149107365E+005	1,1228344E+000	1,1235412E+000	-1,785747632839834E-001	2,000000000000000E+000	-2,0891905E-001	40	-2,0063612E-004
2	0	0	1	1	1,777913808182413E+005	1,0988516E+000	1,0995864E+000	-1,727076535579237E-001	2,000000000000000E+000	-2,1734624E-001	40	-1,8990698E-004
2	0	0	1	1	1,778393468257468E+005	1,0748686E+000	1,0755827E+000	-1,671490637824216E-001	2,000000000000000E+000	-2,2549833E-001	40	-1,7978266E-004
2	0	0	1	1	1,778873127332507E+005	1,0508857E+000	1,0515984E+000	-1,619109816225595E-001	2,000000000000000E+000	-2,3339181E-001	40	-1,7026534E-004
2	0	0	1	1	1,779352787407544E+005	1,0269027E+000	1,0276126E+000	-1,571659881087534E-001	2,000000000000000E+000	-2,4104531E-001	40	-1,6150574E-004
2	0	0	1	1	1,779832447482594E+005	1,0029197E+000	1,0036465E+000	-1,528312457649990E-001	2,000000000000000E+000	-2,4848120E-001	40	-1,5338854E-004
2	0	0	1	1	1,780282131552952E+005	1,0195078E+000	1,0202066E+000	-1,241038578446680E-001	2,000000000000000E+000	-2,5467059E-001	40	-1,2661157E-004
2	0	0	1	1	1,780761791628003E+005	1,0434908E+000	1,0442072E+000	-1,056608048074833E-001	2,000000000000000E+000	-2,6014847E-001	40	-1,1033178E-004
2	0	0	1	1	1,781241450703060E+005	1,0674738E+000	1,0682108E+000	-9,208072596268990E-002	2,000000000000000E+000	-2,6487368E-001	40	-9,8361626E-005
2	0	0	1	1	1,781721110778116E+005	1,0914569E+000	1,0921825E+000	-8,126719715127817E-002	2,000000000000000E+000	-2,6901868E-001	40	-8,8758614E-005
2	0	0	1	1	1,782200770853153E+005	1,1154398E+000	1,1161683E+000	-7,225697628863781E-002	2,000000000000000E+000	-2,7269110E-001	40	-8,0650942E-005
2	0	0	1	1	1,782680429928193E+005	1,1394227E+000	1,1401607E+000	-6,454610286223961E-002	2,000000000000000E+000	-2,7596381E-001	40	-7,3592928E-005
2	0	0	1	1	1,783160091003249E+005	1,1634057E+000	1,1641251E+000	-5,783526137317080E-002	2,000000000000000E+000	-2,7889216E-001	40	-6,7327477E-005
2	0	0	1	1	1,783639750078311E+005	1,1873885E+000	1,1880987E+000	-5,195798878646418E-002	2,000000000000000E+000	-2,8151864E-001	40	-6,1731218E-005
2	0	0	1	1	1,784119410153357E+005	1,2113717E+000	1,2120590E+000	-4,682090274452211E-002	2,000000000000000E+000	-2,8388080E-001	41	-5,6749697E-005
2	0	0	1	1	1,784599070228399E+005	1,2353547E+000	1,2360463E+000	-4,212423721177239E-002	2,000000000000000E+000	-2,8600883E-001	41	-5,2067509E-005
2	0	0	1	1	1,785078731303439E+005	1,2593374E+000	1,2600212E+000	-3,782250842831991E-002	2,000000000000000E+000	-2,8792143E-001	41	-4,7657162E-005
2	0	0	1	1	1,785558391378485E+005	1,2833204E+000	1,2840251E+000	-3,378274624207109E-002	2,000000000000000E+000	-2,8963482E-001	41	-4,3377891E-005
2	0	0	1	1	1,786038050453542E+005	1,3073034E+000	1,3080181E+000	-2,985018131275032E-002	2,000000000000000E+000	-2,9115769E-001	41	-3,9044578E-005
2	0	0	1	1	1,786517710528597E+005	1,3312864E+000	1,3319714E+000	-2,592829936038821E-002	2,000000000000000E+000	-2,9249266E-001	41	-3,4535755E-005
2	0	0	1	1	1,786997370603643E+005	1,3552697E+000	1,3559803E+000	-2,193086575567868E-002	2,000000000000000E+000	-2,9363734E-001	41	-2,9737821E-005
2	0	0	1	1	1,787477030678685E+005	1,3792526E+000	1,3799595E+000	-1,774839988617233E-002	2,000000000000000E+000	-2,9458645E-001	41	-2,4492072E-005
2	0	0	1	1	1,787956690753726E+005	1,4032353E+000	1,4039502E+000	-1,332206159603172E-002	2,000000000000000E+000	-2,9532960E-001	41	-1,8703511E-005
2	0	0	1	1	1,788436349828779E+005	1,4272184E+000	1,4279122E+000	-8,620346662853051E-003	2,000000000000000E+000	-2,9585415E-001	41	-1,2309099E-005
2	0	0	1	1	1,788916009903830E+005	1,4512014E+000	1,4519057E+000	-3,559193433469873E-003	2,000000000000000E+000	-2,9614455E-001	42	-5,1676134E-006
2	1	0	1	1	1,789395670978893E+005	1,4751843E+000	1,4758989E+000	1,964922931153648E-003	2,000000000000000E+000	-2,9618153E-001	42	2,9000275E-006
2	1	0	1	1	1,789875330053940E+005	1,4991672E+000	1,4998835E+000	7,981644018320083E-003	2,000000000000000E+000	-2,9594207E-001	42	1,1971537E-005
2	1	0	1	1	1,790354990128975E+005	1,5231503E+000	1,5238631E+000	1,466594051320758E-002	2,000000000000000E+000	-2,9539853E-001	41	2,2348886E-005
2	1	0	1	1	1,790834649204016E+005	1,5471333E+000	1,5478457E+000	2,226794608817617E-002	2,000000000000000E+000	-2,9451472E-001	41	3,4467346E-005
2	1	0	1	1	1,791314311279072E+005	1,5711162E+000	1,5718125E+000	3,126583913918257E-002	2,000000000000000E+000	-2,9323295E-001	41	4,9144037E-005
2	1	0	1	1	1,791793971354123E+005	1,5950992E+000	1,5958121E+000	4,274052637595749E-002	2,000000000000000E+000	-2,9147214E-001	41	6,8205845E-005
2	1	0	1	1	1,792273630429180E+005	1,6190822E+000	1,6197902E+000	6,249752010952547E-002	2,000000000000000E+000	-2,8898841E-001	41	1,0123287E-004
2	1	0	1	1	1,792753290504224E+005	1,6430651E+000	1,6437948E+000	8,983524806872767E-002	2,000000000000000E+000	-2,8534788E-001	41	1,4767071E-004
2	1	0	1	1	1,793232950579263E+005	1,6670481E+000	1,6677396E+000	1,209160987236386E-001	2,000000000000000E+000	-2,8030482E-001	40	2,0165657E-004
2	1	0	1	1	1,793712611654308E+005	1,6910310E+000	1,6917623E+000	1,565950566718595E-001	2,000000000000000E+000	-2,7366361E-001	40	2,6492160E-004
2	1	0	1	1	1,794192270729365E+005	1,7150140E+000	1,7157391E+000	1,967230167030489E-001	2,000000000000000E+000	-2,6519993E-001	40	3,3752539E-004
2	1	0	1	1	1,794671930804420E+005	1,7389971E+000	1,7396958E+000	2,400441496844201E-001	2,000000000000000E+000	-2,5473005E-001	40	4,1760379E-004
2	1	0	1	1	1,795151591879474E+005	1,7629800E+000	1,7636886E+000	2,845823615656169E-001	2,000000000000000E+000	-2,4213992E-001	40	5,0191465E-004
2	1	0	1	1	1,795631250954510E+005	1,7869632E+000	1,7876700E+000	3,261439910513770E-001	2,000000000000000E+000	-2,2746168E-001	40	5,8303785E-004
2	1	0	1	1	1,796110911029549E+005	1,8109461E+000	1,8116560E+000	3,583270576757114E-001	2,000000000000000E+000	-2,1099256E-001	40	6,4916536E-004
2	1	0	1	1	1,796590570104597E+005	1,8349289E+000	1,8356334E+000	3,771783755249234E-001	2,000000000000000E+000	-1,9328913E-001	40	6,9236121E-004
2	1	0	1	1	1,797070231179660E+005	1,8589119E+000	1,8596196E+000	3,806692874924460E-001	2,000000000000000E+000	-1,7504992E-001	40	7,0790009E-004
2	1	0	1	1	1,797549892254714E+005	1,8828948E+000	1,8835942E+000	3,699005236407897E-001	2,000000000000000E+000	-1,5699238E-001	40	6,9674244E-004
2	1	0	1	1	1,798029551329762E+005	1,9068778E+000	1,9075854E+000	3,471617659788642E-001	2,000000000000000E+000	-1,3975309E-001	40	6,6224072E-004
2	1	0	1	1	1,798509211404796E+005	1,9308608E+000	1,9315536E+000	3,166843548906124E-001	2,000000000000000E+000	-1,2380701E-001	40	6,1169278E-004
2	1	0	1	1	1,798988870479839E+005	1,9548438E+000	1,9555343E+000	2,824990884775813E-001	2,000000000000000E+000	-1,0942699E-001	40	5,5243669E-004
2	1	0	1	1	1,799468532554894E+005	1,9788268E+000	1,9795289E+000	2,481393537211085E-001	2,000000000000000E+000	-9,6701294E-002	40	4,9119903E-004
2	1	0	1	1	1,799948194629950E+005	2,0028095E+000	2,0035310E+000	2,157778477398054E-001	2,000000000000000E+000	-8,5582949E-002	40	4,3231761E-004
2	1	0	1	1	1,800427851705011E+005	2,0267925E+000	2,0274844E+000	1,865398401199621E-001	2,000000000000000E+000	-7,5942174E-002	40	3,7820661E-004
2	1	0	1	1	1,800907511780048E+005	2,0507755E+000	2,0514877E+000	1,608022458881659E-001	2,000000000000000E+000	-6,7621149E-002	40	3,2988383E-004
2	1	0	1	1	1,801387170855084E+005	2,0747585E+000	2,0754609E+000	1,383989599614928E-001	2,000000000000000E+000	-6,0454812E-002	40	2,8724162E-004
2	1	0	1	1	1,801866830930132E+005	2,0987415E+000	2,0994170E+000	1,191992663494654E-001	2,000000000000000E+000	-5,4285139E-002	40	2,5024897E-004
2	1	0	1	1	1,802346491005188E+005	2,1227245E+000	2,1234009E+000	1,030995529379586E-001	2,000000000000000E+000	-4,8960149E-002	40	2,1892169E-004
2	1	0	1	1	1,802826151080243E+005	2,1467075E+000	2,1474011E+000	8,976406224488565E-002	2,000000000000000E+000	-4,4339802E-002	40	1,9275944E-004
2	1	0	1	1	1,803305815155301E+005	2,1706905E+000	2,1714005E+000	7,881974227110988E-002	2,000000000000000E+000	-4,0300317E-002	40	1,7114924E-004
2	1	0	1	1	1,803785475230336E+005	2,1946735E+000	2,1953678E+000	6,985909139096824E-002	2,000000000000000E+000	-3,6737293E-002	40	1,5336640E-004
2	1	0	1	1	1,804265135305375E+005	2,2186563E+000	2,2193267E+000	6,242971130385994E-002	2,000000000000000E+000	-3,3565350E-002	40	1,3855193E-004
2	1	0	1	1	1,804744795380421E+005	2,2426393E+000	2,2433181E+000	5,628222735823774E-002	2,000000000000000E+000	-3,0718096E-002	40	1,2625894E-004
2	1	0	1	1	1,805224459455474E+005	2,2666221E+000	2,2672915E+000	5,107519904182090E-002	2,000000000000000E+000	-2,8141752E-002	40	1,1580237E-004
2	1	0	1	1	1,805704117530538E+005	2,2906051E+000	2,2912815E+000	4,659150357096531E-002	2,000000000000000E+000	-2,5796454E-002	41	1,0675425E-004
2	1	0	1	1	1,806183777605593E+005	2,3145883E+000	2,3152645E+000	4,280839978655060E-002	2,000000000000000E+000	-2,3650140E-002	41	9,9112767E-005
2	1	0	1	1	1,806663435680624E+005	2,3385713E+000	2,3392580E+000	3,953683762048535E-002	2,000000000000000E+000	-2,1671768E-002	41	9,2486865E-005
2	1	0	1	1	1,807143099755663E+005	2,3625543E+000	2,3632302E+000	3,675018550376585E-002	2,000000000000000E+000	-1,9838704E-002	41	8,6849148E-005
2	1	0	1	1	1,807622759830714E+005	2,3865371E+000	2,3872297E+000	3,431694626075146E-002	2,000000000000000E+000	-1,8131055E-002	41	8,1922430E-005
2	1	0	1	1	1,808102419905765E+005	2,4105203E+000	2,4111910E+000	3,224932072195916E-002	2,000000000000000E+000	-1,6531192E-002	41	7,7759272E-005
2	1	0	1	1	1,808582079980830E+005	2,4345031E+000	2,4351947E+000	3,050489180523019E-002	2,000000000000000E+000	-1,5021994E-002	41	7,4285352E-005
2	1	0	1	1	1,809061742055882E+005	2,4584863E+000	2,4591486E+000	2,889363333616307E-002	2,000000000000000E+000	-1,3592835E-002	41	7,1053742E-005
2	1	0	1	1	1,809541404130915E+005	2,4824688E+000	2,4831502E+000	2,735892347797259E-002	2,000000000000000E+000	-1,2238981E-002	41	6,7936315E-005
2	1	0	1	1	1,810021064205952E+005	2,5064518E+000	2,5071270E+000	2,588078826907342E-002	2,000000000000000E+000	-1,0957927E-002	41	6,4886422E-005
2	1	0	1	1	1,810500724281007E+005	2,5304348E+000	2,5311210E+000	2,454010319764394E-002	2,000000000000000E+000	-9,7437641E-003	41	6,2113970E-005
2	1	0	1	1	1,810980382356066E+005	2,5544178E+000	2,5550957E+000	2,329067773923676E-002	2,000000000000000E+000	-8,5920179E-003	41	5,9509908E-005
2	1	0	1	1	1,811460046431115E+005	2,5784009E+000	2,5790789E+000	2,212731601180107E-002	2,000000000000000E+000	-7,4980459E-003	41	5,7068093E-005
2	1	0	1	1	1,811939704506174E+005	2,6023839E+000	2,6030438E+000	2,115138628314861E-002	2,000000000000000E+000	-6,4558908E-003	41	5,5057986E-005
2	1	0	1	1	1,812419364581206E+005	2,6263666E+000	2,6270652E+000	2,043521573242506E-002	2,000000000000000E+000	-5,4541277E-003	41	5,3684646E-005
2	1	0	1	1	1,812899024656243E+005	2,6503499E+000	2,6510415E+000	1,960415241783089E-002	2,000000000000000E+000	-4,4884416E-003	41	5,1971423E-005
2	1	0	1	1	1,813378688731301E+005	2,6743326E+000	2,6750135E+000	1,867165768459877E-002	2,000000000000000E+000	-3,5659971E-003	41	4,9946939E-005
2	1	0	1	1	1,813858348806361E+005	2,6983156E+000	2,6990125E+000	1,784312257927512E-002	2,000000000000000E+000	-2,6862090E-003	41	4,8158810E-005
2	1	0	1	1	1,814338008881407E+005	2,7222986E+000	2,7229803E+000	1,717546188260269E-002	2,000000000000000E+000	-1,8421040E-003	41	4,6768444E-005
2	1	0	1	1	1,814817668956462E+005	2,7462819E+000	2,7469606E+000	1,667133150320561E-002	2,000000000000000E+000	-1,0262029E-003	41	4,5795492E-005
2	1	0	1	1	1,815297333031497E+005	2,7702651E+000	2,7709539E+000	1,631636930161112E-002	2,000000000000000E+000	-2,3094031E-004	41	4,5211906E-005
2	1	0	1	1	1,815776990106539E+005	2,7942476E+000	2,7949300E+000	1,616649293721656E-002	2,000000000000000E+000	5,5210869E-004	41	4,5184217E-005
2	1	0	1	1	1,816256650181594E+005	2,8182304E+000	2,8189089E+000	1,624399039078343E-002	2,000000000000000E+000	1,3338914E-003	41	4,5790330E-005
2	1	0	1	1	1,816736307256650E+005	2,8422134E+000	2,8428895E+000	1,628022793094325E-002	2,000000000000000E+000	2,1199021E-003	41	4,6282890E-005
2	1	0	1	1	1,817215971331708E+005	2,8661964E+000	2,8668747E+000	1,607182589485123E-002	2,000000000000000E+000	2,9021546E-003	41	4,6075911E-005
2	1	0	1	1	1,817695631406743E+005	2,8901794E+000	2,8908181E+000	1,574679476651462E-002	2,000000000000000E+000	3,6701576E-003	41	4,5521119E-005
2	1	0	1	1	1,818175291481782E+005	2,9141626E+000	2,9148188E+000	1,533076553506196E-002	2,000000000000000E+000	4,4205654E-003	41	4,4686403E-005
2	1	0	1	1	1,818654951556828E+005	2,9381456E+000	2,9388025E+000	1,490569923341037E-002	2,000000000000000E+000	5,1504783E-003	41	4,3804906E-005
2	1	0	1	1	1,819134615631881E+005	2,9621284E+000	2,9627955E+000	1,461364288356160E-002	2,000000000000000E+000	5,8627487E-003	41	4,3297234E-005
2	1	0	1	1	1,819614275706941E+005	2,9861114E+000	2,9867954E+000	1,452029171585983E-002	2,000000000000000E+000	6,5661878E-003	41	4,3369142E-005
2	1	0	1	0	1,820061951776976E+005	2,9914079E+000	2,9920774E+000	1,030923253106902E-002	2,000000000000000E+000	7,1629421E-003	41	3,0846022E-005
2	1	0	1	0	1,820541611852041E+005	2,9674249E+000	2,9680817E+000	7,475709739849887E-003	2,000000000000000E+000	7,5766430E-003	41	2,2188517E-005
2	1	0	1	0	1,821021271927087E+005	2,9434419E+000	2,9441166E+000	5,864786835741813E-003	2,000000000000000E+000	7,8894375E-003	41	1,7266617E-005
2	1	0	1	0	1,821500932002121E+005	2,9194589E+000	2,9201312E+000	4,742578325068872E-003	2,000000000000000E+000	8,1375390E-003	42	1,3848951E-005
2	1	0	1	0	1,821980592077165E+005	2,8954756E+000	2,8961823E+000	3,897300063848239E-003	2,000000000000000E+000	8,3388193E-003	42	1,1287291E-005
2	1	0	1	0	1,822460252152216E+005	2,8714929E+000	2,8721628E+000	3,205903332291091E-003	2,000000000000000E+000	8,5037500E-003	42	9,2078762E-006
2	1	0	1	0	1,822939912227271E+005	2,8475096E+000	2,8481724E+000	2,621828770070455E-003	2,000000000000000E+000	8,6385747E-003	42	7,4674203E-006
2	1	0	1	0	1,823419572302336E+005	2,8235269E+000	2,8241835E+000	2,157543113788423E-003	2,000000000000000E+000	8,7480126E-003	42	6,0932975E-006
2	1	0	1	0	1,823899230377376E+005	2,7995441E+000	2,8002448E+000	1,776532703470880E-003	2,000000000000000E+000	8,8370955E-003	42	4,9747264E-006
2	1	0	1	0	1,824378890452413E+005	2,7755609E+000	2,7762287E+000	1,448657889036163E-003	2,000000000000000E+000	8,9096967E-003	42	4,0218056E-006
2	1	0	1	0	1,824858546527456E+005	2,7515781E+000	2,7522540E+000	1,176000807985504E-003	2,000000000000000E+000	8,9680944E-003	42	3,2366529E-006
2	1	0	1	0	1,825338206602512E+005	2,7275951E+000	2,7282922E+000	9,175295978424685E-004	2,000000000000000E+000	9,0139527E-003	42	2,5032889E-006
2	1	0	1	0	1,825817866677567E+005	2,7036123E+000	2,7043023E+000	6,622443154276920E-004	2,000000000000000E+000	9,0474412E-003	42	1,7909089E-006
2	1	0	1	0	1,826297526752613E+005	2,6796291E+000	2,6803231E+000	4,092959543892775E-004	2,000000000000000E+000	9,0685915E-003	43	1,0970454E-006
2	1	0	1	0	1,826777186827657E+005	2,6556458E+000	2,6563222E+000	8,051989599651595E-005	2,000000000000000E+000	9,0758018E-003	43	2,1388679E-007
2	0	0	1	0	1,827256846902694E+005	2,6316631E+000	2,6323445E+000	-3,600494280623320E-004	2,000000000000000E+000	9,0646697E-003	43	-9,4777414E-007
2	0	0	1	0	1,827736506977747E+005	2,6076801E+000	2,6083796E+000	-7,136136753549197E-004	2,000000000000000E+000	9,0331230E-003	42	-1,8613754E-006
2	0	0	1	0	1,828216167052807E+005	2,5836971E+000	2,5843871E+000	-8,598092876087038E-004	2,000000000000000E+000	8,9900522E-003	42	-2,2220800E-006
2	0	0	1	0	1,828695824127859E+005	2,5597141E+000	2,5603883E+000	-9,604766196817712E-004	2,000000000000000E+000	8,9423945E-003	42	-2,4591932E-006
2	0	0	1	0	1,829175484202905E+005	2,5357313E+000	2,5364079E+000	-1,166106284992165E-003	2,000000000000000E+000	8,8873990E-003	42	-2,9577213E-006
2	0	0	1	0	1,829655141277944E+005	2,5117483E+000	2,5124304E+000	-1,396524486979928E-003	2,000000000000000E+000	8,8210301E-003	42	-3,5086707E-006
2	0	0	1	0	1,830134801352983E+005	2,4877653E+000	2,4884315E+000	-1,667988108050415E-003	2,000000000000000E+000	8,7422468E-003	42	-4,1506742E-006
2	0	0	1	0	1,830614461428048E+005	2,4637823E+000	2,4644642E+000	-1,921867316244177E-003	2,000000000000000E+000	8,6515266E-003	42	-4,7363733E-006
2	0	0	1	0	1,831094121503094E+005	2,4397993E+000	2,4404976E+000	-2,178917843857714E-003	2,000000000000000E+000	8,5481480E-003	42	-5,3176436E-006
2	0	0	1	0	1,831573781578150E+005	2,4158165E+000	2,4164939E+000	-2,456196643634917E-003	2,000000000000000E+000	8,4321834E-003	42	-5,9353843E-006
2	0	0	1	0	1,832053441653191E+005	2,3918333E+000	2,3925123E+000	-2,715941673175161E-003	2,000000000000000E+000	8,3037801E-003	42	-6,4979240E-006
2	0	0	1	0	1,832533101728230E+005	2,3678503E+000	2,3685720E+000	-2,991941872678802E-003	2,000000000000000E+000	8,1626587E-003	42	-7,0866299E-006
2	0	0	1	0	1,833012760803276E+005	2,3438675E+000	2,3445604E+000	-3,341933549054710E-003	2,000000000000000E+000	8,0059664E-003	42	-7,8353651E-006
2	0	0	1	0	1,833492420878336E+005	2,3198843E+000	2,3205898E+000	-3,701723576801749E-003	2,000000000000000E+000	7,8321910E-003	42	-8,5901820E-006
2	0	0	1	0	1,833972078953395E+005	2,2959013E+000	2,2965858E+000	-4,135102118316601E-003	2,000000000000000E+000	7,6394556E-003	42	-9,4966172E-006
2	0	0	1	0	1,834451739028441E+005	2,2719183E+000	2,2725949E+000	-4,607409287191871E-003	2,000000000000000E+000	7,4252174E-003	42	-1,0470775E-005
2	0	0	1	0	1,834931396103478E+005	2,2479358E+000	2,2486174E+000	-5,127023214254317E-003	2,000000000000000E+000	7,1872342E-003	42	-1,1528714E-005
2	0	0	1	0	1,835411056178515E+005	2,2239525E+000	2,2246323E+000	-5,732061215925927E-003	2,000000000000000E+000	6,9222772E-003	42	-1,2751729E-005
2	0	0	1	0	1,835890716253575E+005	2,1999695E+000	2,2006431E+000	-6,384540048299817E-003	2,000000000000000E+000	6,6272691E-003	42	-1,4050093E-005
2	0	0	1	0	1,836370376328630E+005	2,1759868E+000	2,1766729E+000	-7,132159023146577E-003	2,000000000000000E+000	6,2987925E-003	42	-1,5524378E-005
2	0	0	1	0	1,836850034403689E+005	2,1520038E+000	2,1527042E+000	-7,964893479033036E-003	2,000000000000000E+000	5,9321928E-003	42	-1,7146060E-005
2	0	0	1	0	1,837329694478724E+005	2,1280208E+000	2,1287198E+000	-8,911497867955802E-003	2,000000000000000E+000	5,5227573E-003	42	-1,8970082E-005
2	0	0	1	0	1,837809354553761E+005	2,1040378E+000	2,1047556E+000	-9,952707972854427E-003	2,000000000000000E+000	5,0657708E-003	41	-2,0948019E-005
2	0	0	1	0	1,838289014628809E+005	2,0800550E+000	2,0807636E+000	-1,112258785001553E-002	2,000000000000000E+000	4,5560021E-003	41	-2,3143475E-005
2	0	0	0	0	1,838712695695092E+005	2,0588205E+000	2,0595219E+000	-1,246578596547490E-002	2,000000000000000E+000	4,0567680E-003	41	-2,5673560E-005