File: Dati/210416/CV_LTO-CB_03_CV_C05.mpt
EC-Lab ASCII FILE
Nb header lines : 57

Cyclic Voltammetry

Run on channel : 5 (SN 6809)
User : Seelab
Electrode connection : standard
Ewe ctrl range : min = 0,00 V, max = 5,00 V
Ewe,I filtering : 50 kHz
Safety Limits :
	Do not start on E overload
Channel : Grounded
Acquisition started on : 04/16/2021 18:38:45
Saved on :
	File : CV_LTO-CB_03_CV_C05.mpr
	Directory : C:\Users\labsuperfici\Desktop\Biologic\Users\Prisca Viviani\210416\
	Host : 10.78.33.0
Device : VSP-300 (SN 0638)
Address : USB
EC-Lab for windows v11.31 (software)
Internet server v11.30 (firmware)
Command interpretor v11.31 (firmware)
Electrode material :
Initial state :
Electrolyte :
Comments :
Cable : standard
Reference electrode : SCE Saturated Calomel Electrode (0,241 V)
Electrode surface area : 0,001 cm²
Characteristic mass : 0,001 g
Equivalent Weight : 0,000 g/eq.
Density : 0,000 g/cm3
Cycle Definition : Charge/Discharge alternance
Ei (V)              0,000
vs.                 Eoc
dE/dt               0,200
dE/dt unit          mV/s
E1 (V)              1,000
vs.                 Ref
Step percent        50
N                   10
E range min (V)     0,000
E range max (V)     5,000
I Range             Auto
I Range min         Unset
I Range max         Unset
I Range init        Unset
Bandwidth           8
E2 (V)              3,000
vs.                 Ref
nc cycles           1
Reverse Scan        1
Ef (V)              0,000
vs.                 Eoc

mode	ox/red	error	control changes	counter inc.	time/s	control/V	Ewe/V	<I>/mA	cycle number	(Q-Qo)/C	I Range	P/W
2	0	0	1	0	8,120515930398507E+004	2,0588205E+000	2,0594990E+000	-3,054997883737087E-003	1,000000000000000E+000	0,0000000E+000	42	-6,2917652E-006
2	0	0	1	0	8,132282477615913E+004	2,0352867E+000	2,0360174E+000	-4,542079952525674E-003	1,000000000000000E+000	-4,6941740E-004	42	-9,2477540E-006
2	0	0	1	0	8,144273894782225E+004	2,0113034E+000	2,0120459E+000	-5,534249672744226E-003	1,000000000000000E+000	-1,0784817E-003	42	-1,1135164E-005
2	0	0	1	0	8,156265451944456E+004	1,9873209E+000	1,9880219E+000	-6,503603156899948E-003	1,000000000000000E+000	-1,8044325E-003	42	-1,2929305E-005
2	0	0	1	0	8,168256899105443E+004	1,9633378E+000	1,9640558E+000	-7,510107653602077E-003	1,000000000000000E+000	-2,6486083E-003	42	-1,4750271E-005
2	0	0	1	0	8,180248386270832E+004	1,9393548E+000	1,9400647E+000	-8,590028555289383E-003	1,000000000000000E+000	-3,6178401E-003	42	-1,6665212E-005
2	0	0	1	0	8,192239843436528E+004	1,9153719E+000	1,9160869E+000	-9,766591432895849E-003	1,000000000000000E+000	-4,7219624E-003	42	-1,8713637E-005
2	0	0	1	0	8,204231320597843E+004	1,8913890E+000	1,8920978E+000	-1,102206708806486E-002	1,000000000000000E+000	-5,9708422E-003	41	-2,0854830E-005
2	0	0	1	0	8,216222817759472E+004	1,8674059E+000	1,8681442E+000	-1,240235169312118E-002	1,000000000000000E+000	-7,3786741E-003	41	-2,3169381E-005
2	0	0	1	0	8,228214264925732E+004	1,8434228E+000	1,8441482E+000	-1,387466600776659E-002	1,000000000000000E+000	-8,9576123E-003	41	-2,5586940E-005
2	0	0	1	0	8,240205762090255E+004	1,8194399E+000	1,8201796E+000	-1,547536793938004E-002	1,000000000000000E+000	-1,0720398E-002	41	-2,8167949E-005
2	0	0	1	0	8,252197209251160E+004	1,7954570E+000	1,7961841E+000	-1,723317818810287E-002	1,000000000000000E+000	-1,2684634E-002	41	-3,0953961E-005
2	0	0	1	0	8,264188696414279E+004	1,7714740E+000	1,7722111E+000	-1,917594650646177E-002	1,000000000000000E+000	-1,4870583E-002	41	-3,3983826E-005
2	0	0	1	0	8,276180193580524E+004	1,7474909E+000	1,7482474E+000	-2,132587270329417E-002	1,000000000000000E+000	-1,7301761E-002	41	-3,7282902E-005
2	0	0	1	0	8,288171640743525E+004	1,7235081E+000	1,7242417E+000	-2,368522354129299E-002	1,000000000000000E+000	-2,0003017E-002	41	-4,0839052E-005
2	0	0	1	0	8,300163117904519E+004	1,6995251E+000	1,7002434E+000	-2,624723866063911E-002	1,000000000000000E+000	-2,2998963E-002	41	-4,4626693E-005
2	0	0	1	0	8,312154625069106E+004	1,6755420E+000	1,6762868E+000	-2,900796876582346E-002	1,000000000000000E+000	-2,6314054E-002	41	-4,8625676E-005
2	0	0	1	0	8,324146102235309E+004	1,6515590E+000	1,6522925E+000	-3,196449212876712E-002	1,000000000000000E+000	-2,9972510E-002	41	-5,2814692E-005
2	0	0	1	0	8,336137569396902E+004	1,6275762E+000	1,6282879E+000	-3,522903401903293E-002	1,000000000000000E+000	-3,4004003E-002	41	-5,7363010E-005
2	0	0	1	0	8,348129046558216E+004	1,6035932E+000	1,6043323E+000	-3,886360375619796E-002	1,000000000000000E+000	-3,8446501E-002	41	-6,2350133E-005
2	0	0	1	0	8,360120543724066E+004	1,5796101E+000	1,5803412E+000	-4,312907226392909E-002	1,000000000000000E+000	-4,3361112E-002	41	-6,8158653E-005
2	0	0	1	0	8,372111990889302E+004	1,5556273E+000	1,5563517E+000	-4,821703371248531E-002	1,000000000000000E+000	-4,8832826E-002	41	-7,5042663E-005
2	0	0	1	0	8,384103438050346E+004	1,5316443E+000	1,5323626E+000	-5,447445383560845E-002	1,000000000000000E+000	-5,4981839E-002	41	-8,3474617E-005
2	0	0	1	0	8,396094935212564E+004	1,5076613E+000	1,5083967E+000	-6,218349679603641E-002	1,000000000000000E+000	-6,1966196E-002	41	-9,3797382E-005
2	0	0	1	0	8,408086412378843E+004	1,4836785E+000	1,4843870E+000	-7,167470193761272E-002	1,000000000000000E+000	-6,9980010E-002	41	-1,0639300E-004
2	0	0	1	0	8,420077909542597E+004	1,4596955E+000	1,4604046E+000	-8,266771512745075E-002	1,000000000000000E+000	-7,9231210E-002	41	-1,2072831E-004
2	0	0	1	0	8,432069356703584E+004	1,4357123E+000	1,4364278E+000	-9,376494772178490E-002	1,000000000000000E+000	-8,9825220E-002	41	-1,3468658E-004
2	0	0	1	0	8,444060803867446E+004	1,4117293E+000	1,4124416E+000	-1,034254754025041E-001	1,000000000000000E+000	-1,0168122E-001	40	-1,4608244E-004
2	0	0	1	0	8,456052301033644E+004	1,3877465E+000	1,3884743E+000	-1,110542768844531E-001	1,000000000000000E+000	-1,1456988E-001	40	-1,5419601E-004
2	0	0	1	0	8,468043778196018E+004	1,3637633E+000	1,3644853E+000	-1,162844956218770E-001	1,000000000000000E+000	-1,2823051E-001	40	-1,5866848E-004
2	0	0	1	0	8,480035245356965E+004	1,3397806E+000	1,3404980E+000	-1,190491808154879E-001	1,000000000000000E+000	-1,4236952E-001	40	-1,5958518E-004
2	0	0	1	0	8,492026722522313E+004	1,3157974E+000	1,3164976E+000	-1,198210008095435E-001	1,000000000000000E+000	-1,5671687E-001	40	-1,5774406E-004
2	0	0	1	0	8,504018169688061E+004	1,2918147E+000	1,2925354E+000	-1,188323956309283E-001	1,000000000000000E+000	-1,7104723E-001	40	-1,5359509E-004
2	0	0	1	0	8,516009666849347E+004	1,2678316E+000	1,2685499E+000	-1,163835588152036E-001	1,000000000000000E+000	-1,8516934E-001	40	-1,4763835E-004
2	0	0	1	0	8,528001144010993E+004	1,2438487E+000	1,2446074E+000	-1,128272476086818E-001	1,000000000000000E+000	-1,9892743E-001	40	-1,4042563E-004
2	0	0	1	0	8,539992611177196E+004	1,2198657E+000	1,2206163E+000	-1,085536543067014E-001	1,000000000000000E+000	-2,1221122E-001	40	-1,3250236E-004
2	0	0	1	0	8,551984088341706E+004	1,1958826E+000	1,1966208E+000	-1,038837104140424E-001	1,000000000000000E+000	-2,2495620E-001	40	-1,2430942E-004
2	0	0	1	0	8,563975535502774E+004	1,1718997E+000	1,1726274E+000	-9,920892382176083E-002	1,000000000000000E+000	-2,3713747E-001	40	-1,1633510E-004
2	0	0	1	0	8,575967032665713E+004	1,1479166E+000	1,1486832E+000	-9,463778204783962E-002	1,000000000000000E+000	-2,4876307E-001	40	-1,0870883E-004
2	0	0	1	0	8,587958509832021E+004	1,1239338E+000	1,1246737E+000	-9,024785259357926E-002	1,000000000000000E+000	-2,5985241E-001	40	-1,0149939E-004
2	0	0	1	0	8,599949976995081E+004	1,0999508E+000	1,1006902E+000	-8,599610710899153E-002	1,000000000000000E+000	-2,7042210E-001	40	-9,4655079E-005
2	0	0	1	0	8,611941454156005E+004	1,0759677E+000	1,0767199E+000	-8,220133387896245E-002	1,000000000000000E+000	-2,8050834E-001	40	-8,8507812E-005
2	0	0	1	0	8,623932901320688E+004	1,0519849E+000	1,0527323E+000	-7,897458248056784E-002	1,000000000000000E+000	-2,9017079E-001	40	-8,3139101E-005
2	0	0	1	0	8,635924398486759E+004	1,0280018E+000	1,0287724E+000	-7,628816910058167E-002	1,000000000000000E+000	-2,9948074E-001	40	-7,8483157E-005
2	0	0	1	0	8,647915875648474E+004	1,0040189E+000	1,0047902E+000	-7,406102758787780E-002	1,000000000000000E+000	-3,0849788E-001	40	-7,4415795E-005
2	0	0	1	0	8,659207912976050E+004	1,0185087E+000	1,0192385E+000	-5,898153143668394E-002	1,000000000000000E+000	-3,1601575E-001	40	-6,0116246E-005
2	0	0	1	0	8,671199410139665E+004	1,0424917E+000	1,0432138E+000	-4,859812932966513E-002	1,000000000000000E+000	-3,2242316E-001	40	-5,0698240E-005
2	0	0	1	0	8,683190917305788E+004	1,0664744E+000	1,0672235E+000	-4,112358347835887E-002	1,000000000000000E+000	-3,2778281E-001	41	-4,3888056E-005
2	0	0	1	0	8,695182414468518E+004	1,0904573E+000	1,0912062E+000	-3,517449538063644E-002	1,000000000000000E+000	-3,3233932E-001	41	-3,8382626E-005
2	0	0	1	0	8,707173921629274E+004	1,1144404E+000	1,1151791E+000	-3,027913557770667E-002	1,000000000000000E+000	-3,3624962E-001	41	-3,3766657E-005
2	0	0	1	0	8,719165438794473E+004	1,1384236E+000	1,1391463E+000	-2,615672602156988E-002	1,000000000000000E+000	-3,3962277E-001	41	-2,9796338E-005
2	0	0	1	0	8,731156955960236E+004	1,1624064E+000	1,1631680E+000	-2,265314943989145E-002	1,000000000000000E+000	-3,4253809E-001	41	-2,6349417E-005
2	0	0	1	0	8,743148463121889E+004	1,1863892E+000	1,1871462E+000	-1,963357596507509E-002	1,000000000000000E+000	-3,4506366E-001	41	-2,3307924E-005
2	0	0	1	0	8,755139970283210E+004	1,2103724E+000	1,2111282E+000	-1,703788381519378E-002	1,000000000000000E+000	-3,4725276E-001	41	-2,0635061E-005
2	0	0	1	0	8,767131477449276E+004	1,2343552E+000	1,2351031E+000	-1,477497571811606E-002	1,000000000000000E+000	-3,4915152E-001	41	-1,8248618E-005
2	0	0	1	0	8,779122974614194E+004	1,2583383E+000	1,2590613E+000	-1,281290868318979E-002	1,000000000000000E+000	-3,5079688E-001	41	-1,6132239E-005
2	0	0	1	0	8,791114511775062E+004	1,2823213E+000	1,2830629E+000	-1,104563349128884E-002	1,000000000000000E+000	-3,5222009E-001	41	-1,4172243E-005
2	0	0	1	0	8,803106018937868E+004	1,3063043E+000	1,3070488E+000	-9,430524710914392E-003	1,000000000000000E+000	-3,5344189E-001	41	-1,2326156E-005
2	0	0	1	0	8,815097516103997E+004	1,3302873E+000	1,3310306E+000	-7,853321736868497E-003	1,000000000000000E+000	-3,5447329E-001	41	-1,0453012E-005
2	0	0	1	0	8,827089023267548E+004	1,3542701E+000	1,3550061E+000	-6,210145880740522E-003	1,000000000000000E+000	-3,5531244E-001	41	-8,4147860E-006
2	0	0	1	0	8,839080530428299E+004	1,3782531E+000	1,3789797E+000	-4,459825543283669E-003	1,000000000000000E+000	-3,5594830E-001	42	-6,1500086E-006
2	0	0	1	0	8,851072067592700E+004	1,4022361E+000	1,4029648E+000	-2,525227471321320E-003	1,000000000000000E+000	-3,5636422E-001	42	-3,5428054E-006
2	0	0	1	0	8,863063574758777E+004	1,4262191E+000	1,4269295E+000	-4,097129864126227E-004	1,000000000000000E+000	-3,5653657E-001	43	-5,8463155E-007
2	1	0	1	0	8,875055071920855E+004	1,4502021E+000	1,4509505E+000	1,954274059848035E-003	1,000000000000000E+000	-3,5644019E-001	42	2,8355548E-006
2	1	0	1	0	8,887046579081821E+004	1,4741851E+000	1,4749160E+000	4,527097011270236E-003	1,000000000000000E+000	-3,5604936E-001	42	6,6770876E-006
2	1	0	1	0	8,899038076247531E+004	1,4981681E+000	1,4989350E+000	7,336452631787713E-003	1,000000000000000E+000	-3,5533583E-001	42	1,0996865E-005
2	1	0	1	0	8,911029613412946E+004	1,5221511E+000	1,5228851E+000	1,037586478294732E-002	1,000000000000000E+000	-3,5427144E-001	41	1,5801250E-005
2	1	0	1	0	8,923021120574133E+004	1,5461339E+000	1,5468684E+000	1,386085560208214E-002	1,000000000000000E+000	-3,5281894E-001	41	2,1440919E-005
2	1	0	1	0	8,935012617736065E+004	1,5701170E+000	1,5708439E+000	1,815177695438742E-002	1,000000000000000E+000	-3,5090300E-001	41	2,8513608E-005
2	1	0	1	0	8,947004124902282E+004	1,5941001E+000	1,5948429E+000	2,449063182005498E-002	1,000000000000000E+000	-3,4838155E-001	41	3,9058712E-005
2	1	0	1	0	8,958995622066502E+004	1,6180829E+000	1,6188183E+000	3,715441342748108E-002	1,000000000000000E+000	-3,4474096E-001	41	6,0146245E-005
2	1	0	1	0	8,970987159227370E+004	1,6420660E+000	1,6427786E+000	5,311418541689938E-002	1,000000000000000E+000	-3,3933243E-001	41	8,7254848E-005
2	1	0	1	0	8,982978666390898E+004	1,6660488E+000	1,6667873E+000	6,966701245465790E-002	1,000000000000000E+000	-3,3196622E-001	41	1,1612009E-004
2	1	0	1	0	8,994970193556987E+004	1,6900318E+000	1,6907855E+000	8,638055181719029E-002	1,000000000000000E+000	-3,2260239E-001	41	1,4605098E-004
2	1	0	1	0	9,006961700719834E+004	1,7140148E+000	1,7147671E+000	1,030097435866395E-001	1,000000000000000E+000	-3,1123787E-001	40	1,7663772E-004
2	1	0	1	0	9,018953197880549E+004	1,7379978E+000	1,7387689E+000	1,190655612413457E-001	1,000000000000000E+000	-2,9790482E-001	40	2,0702749E-004
2	1	0	1	0	9,030944705045794E+004	1,7619808E+000	1,7627288E+000	1,339474066001225E-001	1,000000000000000E+000	-2,8271195E-001	40	2,3611296E-004
2	1	0	1	0	9,042936242211610E+004	1,7859638E+000	1,7867206E+000	1,469701063169496E-001	1,000000000000000E+000	-2,6583841E-001	40	2,6259452E-004
2	1	0	1	0	9,054927739373175E+004	1,8099469E+000	1,8107040E+000	1,571275703036621E-001	1,000000000000000E+000	-2,4756683E-001	40	2,8451151E-004
2	1	0	1	0	9,066919246534514E+004	1,8339297E+000	1,8346651E+000	1,635149172780292E-001	1,000000000000000E+000	-2,2829427E-001	40	2,9999510E-004
2	1	0	1	0	9,078910713700508E+004	1,8579127E+000	1,8586164E+000	1,655598744748207E-001	1,000000000000000E+000	-2,0851228E-001	40	3,0771230E-004
2	1	0	1	0	9,090902250865474E+004	1,8818958E+000	1,8826243E+000	1,629521050462808E-001	1,000000000000000E+000	-1,8876383E-001	40	3,0677760E-004
2	1	0	1	0	9,102893788026378E+004	1,9058787E+000	1,9065926E+000	1,559296273402861E-001	1,000000000000000E+000	-1,6959852E-001	40	2,9729426E-004
2	1	0	1	0	9,114885255189158E+004	1,9298614E+000	1,9305816E+000	1,450833031732448E-001	1,000000000000000E+000	-1,5151265E-001	40	2,8009515E-004
2	1	0	1	0	9,126876792355347E+004	1,9538445E+000	1,9545448E+000	1,315397704220467E-001	1,000000000000000E+000	-1,3490163E-001	40	2,5710039E-004
2	1	0	1	0	9,138868259518780E+004	1,9778275E+000	1,9785277E+000	1,164375518124150E-001	1,000000000000000E+000	-1,2001881E-001	40	2,3037492E-004
2	1	0	1	0	9,150859796679625E+004	2,0018103E+000	2,0025351E+000	1,009741616569750E-001	1,000000000000000E+000	-1,0698207E-001	40	2,0220430E-004
2	1	0	1	0	9,162851393843931E+004	2,0257931E+000	2,0265203E+000	8,632267712558961E-002	1,000000000000000E+000	-9,5760562E-002	40	1,7493466E-004
2	1	0	1	0	9,174842891010019E+004	2,0497761E+000	2,0505083E+000	7,327216707379869E-002	1,000000000000000E+000	-8,6206503E-002	40	1,5024518E-004
2	1	0	1	0	9,186834428172163E+004	2,0737591E+000	2,0744891E+000	6,219443418342441E-002	1,000000000000000E+000	-7,8100093E-002	40	1,2902168E-004
2	1	0	1	0	9,198825925333099E+004	2,0977421E+000	2,0984571E+000	5,305757628081620E-002	1,000000000000000E+000	-7,1203820E-002	40	1,1133905E-004
2	1	0	1	0	9,210817462498834E+004	2,1217251E+000	2,1224525E+000	4,553003107104514E-002	1,000000000000000E+000	-6,5302864E-002	41	9,6635325E-005
2	1	0	1	0	9,222808999664173E+004	2,1457083E+000	2,1464219E+000	3,953178209693355E-002	1,000000000000000E+000	-6,0212318E-002	41	8,4851883E-005
2	1	0	1	0	9,234800496825366E+004	2,1696911E+000	2,1704159E+000	3,468531338053416E-002	1,000000000000000E+000	-5,5768348E-002	41	7,5281554E-005
2	1	0	1	0	9,246791973987315E+004	2,1936741E+000	2,1943924E+000	3,075616295104466E-002	1,000000000000000E+000	-5,1848717E-002	41	6,7491092E-005
2	1	0	1	0	9,258783471153514E+004	2,2176571E+000	2,2183771E+000	2,751620782816411E-002	1,000000000000000E+000	-4,8357103E-002	41	6,1041326E-005
2	1	0	1	0	9,270774948317796E+004	2,2416401E+000	2,2423685E+000	2,483843617321874E-002	1,000000000000000E+000	-4,5219369E-002	41	5,5696924E-005
2	1	0	1	0	9,282766485478613E+004	2,2656231E+000	2,2663348E+000	2,257177632126997E-002	1,000000000000000E+000	-4,2376682E-002	41	5,1155203E-005
2	1	0	1	0	9,294757982642169E+004	2,2896056E+000	2,2903225E+000	2,064221457980853E-002	1,000000000000000E+000	-3,9784890E-002	41	4,7277328E-005
2	1	0	1	0	9,306749519808358E+004	2,3135889E+000	2,3143024E+000	1,899040440974625E-002	1,000000000000000E+000	-3,7406631E-002	41	4,3949538E-005
2	1	0	1	0	9,318741016971110E+004	2,3375719E+000	2,3383291E+000	1,755686627346967E-002	1,000000000000000E+000	-3,5212886E-002	41	4,1053732E-005
2	1	0	1	0	9,330732554131886E+004	2,3615549E+000	2,3622530E+000	1,631199402571078E-002	1,000000000000000E+000	-3,3179615E-002	41	3,8533057E-005
2	1	0	1	0	9,342724091297004E+004	2,3855379E+000	2,3862469E+000	1,522324344006999E-002	1,000000000000000E+000	-3,1286731E-002	41	3,6326419E-005
2	1	0	1	0	9,354715588462830E+004	2,4095211E+000	2,4102433E+000	1,424410168991985E-002	1,000000000000000E+000	-2,9517476E-002	41	3,4331752E-005
2	1	0	1	0	9,366707125624444E+004	2,4335039E+000	2,4342210E+000	1,344477774067791E-002	1,000000000000000E+000	-2,7855041E-002	41	3,2727559E-005
2	1	0	1	0	9,378698562785739E+004	2,4574869E+000	2,4582145E+000	1,276504182844621E-002	1,000000000000000E+000	-2,6281347E-002	41	3,1379212E-005
2	1	0	1	0	9,390690099951834E+004	2,4814699E+000	2,4821923E+000	1,213093789563924E-002	1,000000000000000E+000	-2,4784502E-002	41	3,0111320E-005
2	1	0	1	0	9,402681577116717E+004	2,5054526E+000	2,5061605E+000	1,151118951991073E-002	1,000000000000000E+000	-2,3363370E-002	41	2,8848888E-005
2	1	0	1	0	9,414673084277706E+004	2,5294356E+000	2,5301888E+000	1,092257227352667E-002	1,000000000000000E+000	-2,2013040E-002	41	2,7636170E-005
2	1	0	1	0	9,426664621440368E+004	2,5534186E+000	2,5541563E+000	1,034829543613788E-002	1,000000000000000E+000	-2,0733815E-002	41	2,6431164E-005
2	1	0	1	0	9,438656118606520E+004	2,5774016E+000	2,5781398E+000	9,826996068045574E-003	1,000000000000000E+000	-1,9520249E-002	41	2,5335370E-005
2	1	0	1	0	9,450647655770084E+004	2,6013846E+000	2,6021061E+000	9,358522499035607E-003	1,000000000000000E+000	-1,8366270E-002	41	2,4351868E-005
2	1	0	1	0	9,462639192930865E+004	2,6253674E+000	2,6260922E+000	8,983825309697723E-003	1,000000000000000E+000	-1,7263131E-002	41	2,3592354E-005
2	1	0	1	0	9,474630690095248E+004	2,6493506E+000	2,6500859E+000	8,665749429841607E-003	1,000000000000000E+000	-1,6201202E-002	41	2,2964981E-005
2	1	0	1	0	9,486622227261355E+004	2,6733336E+000	2,6740696E+000	8,360311580175389E-003	1,000000000000000E+000	-1,5176403E-002	41	2,2356055E-005
2	1	0	1	0	9,498613674423425E+004	2,6973166E+000	2,6980038E+000	8,061200319157497E-003	1,000000000000000E+000	-1,4188169E-002	41	2,1749149E-005
2	1	0	1	0	9,510605211584410E+004	2,7212996E+000	2,7220347E+000	7,837001819706924E-003	1,000000000000000E+000	-1,3231451E-002	41	2,1332591E-005
2	1	0	1	0	9,522596688750049E+004	2,7452824E+000	2,7459970E+000	7,687099815271631E-003	1,000000000000000E+000	-1,2296832E-002	41	2,1108754E-005
2	1	0	1	0	9,534588185915467E+004	2,7692654E+000	2,7699850E+000	7,636638278005731E-003	1,000000000000000E+000	-1,1374550E-002	41	2,1153373E-005
2	1	0	1	0	9,546579723076720E+004	2,7932487E+000	2,7939658E+000	7,666520919264577E-003	1,000000000000000E+000	-1,0454271E-002	41	2,1419997E-005
2	1	0	1	0	9,558571220238600E+004	2,8172314E+000	2,8179481E+000	8,025166768284742E-003	1,000000000000000E+000	-9,5135178E-003	41	2,2614504E-005
2	1	0	1	0	9,570562757404847E+004	2,8412144E+000	2,8419414E+000	8,743162401452120E-003	1,000000000000000E+000	-8,5053779E-003	41	2,4847555E-005
2	1	0	1	0	9,582554294568999E+004	2,8651972E+000	2,8659291E+000	9,174548241414615E-003	1,000000000000000E+000	-7,4200891E-003	41	2,6293605E-005
2	1	0	1	0	9,594545791729935E+004	2,8891804E+000	2,8898947E+000	8,929124409900652E-003	1,000000000000000E+000	-6,3252323E-003	41	2,5804229E-005
2	1	0	1	0	9,606537328893389E+004	2,9131634E+000	2,9138892E+000	8,495001700958488E-003	1,000000000000000E+000	-5,2765678E-003	41	2,4753494E-005
2	1	0	1	0	9,618528766059573E+004	2,9371464E+000	2,9378726E+000	8,201911211758443E-003	1,000000000000000E+000	-4,2735762E-003	41	2,4096171E-005
2	1	0	1	0	9,630520303222421E+004	2,9611292E+000	2,9618340E+000	8,084922675620110E-003	1,000000000000000E+000	-3,2941217E-003	41	2,3946199E-005
2	1	0	1	0	9,642511780383176E+004	2,9851122E+000	2,9858298E+000	8,114033430927047E-003	1,000000000000000E+000	-2,3196919E-003	41	2,4227124E-005
2	1	0	1	1	9,653703757735947E+004	2,9924068E+000	2,9931066E+000	6,185867630923020E-003	1,000000000000000E+000	-1,4610060E-003	41	1,8514962E-005
2	1	0	1	1	9,665695254901989E+004	2,9684243E+000	2,9691467E+000	4,426099159563060E-003	1,000000000000000E+000	-8,4149488E-004	42	1,3141738E-005
2	1	0	1	1	9,677686752066336E+004	2,9444411E+000	2,9451675E+000	3,424676304761426E-003	1,000000000000000E+000	-3,8032245E-004	42	1,0086245E-005
2	1	0	1	1	9,689678179227095E+004	2,9204578E+000	2,9211664E+000	2,759678578042383E-003	1,000000000000000E+000	-1,6505508E-005	42	8,0614800E-006
2	1	0	1	1	9,701669596390805E+004	2,8964748E+000	2,8972075E+000	2,249021012346704E-003	1,000000000000000E+000	2,7812918E-004	42	6,5158806E-006
2	1	0	1	1	9,713661033556861E+004	2,8724918E+000	2,8732111E+000	1,824798616937027E-003	1,000000000000000E+000	5,1714468E-004	42	5,2430319E-006
2	1	0	1	1	9,725652450719697E+004	2,8485091E+000	2,8492167E+000	1,502304173696335E-003	1,000000000000000E+000	7,1145280E-004	42	4,2803899E-006
2	1	0	1	1	9,737643897880451E+004	2,8245265E+000	2,8252482E+000	1,277347724036645E-003	1,000000000000000E+000	8,7340892E-004	42	3,6088245E-006
2	1	0	1	1	9,749635315045621E+004	2,8005433E+000	2,8012757E+000	1,098024724117918E-003	1,000000000000000E+000	1,0111936E-003	42	3,0758699E-006
2	1	0	1	1	9,761626732211525E+004	2,7765605E+000	2,7772598E+000	9,350402147485243E-004	1,000000000000000E+000	1,1285945E-003	42	2,5968495E-006
2	1	0	1	1	9,773618229373032E+004	2,7525773E+000	2,7532995E+000	7,896867576573019E-004	1,000000000000000E+000	1,2277859E-003	42	2,1742442E-006
2	1	0	1	1	9,785609646534547E+004	2,7285943E+000	2,7293079E+000	6,532308418778394E-004	1,000000000000000E+000	1,3101334E-003	42	1,7828681E-006
2	1	0	1	1	9,797601143700443E+004	2,7046113E+000	2,7053540E+000	5,186156041818851E-004	1,000000000000000E+000	1,3761544E-003	43	1,4030388E-006
2	1	0	1	1	9,809592560865544E+004	2,6806281E+000	2,6813743E+000	3,780922552643770E-004	1,000000000000000E+000	1,4253948E-003	43	1,0138068E-006
2	1	0	1	1	9,821583978026267E+004	2,6566453E+000	2,6573586E+000	2,257123954255819E-004	1,000000000000000E+000	1,4567823E-003	43	5,9979880E-007
2	1	0	1	1	9,833575415189238E+004	2,6326625E+000	2,6333895E+000	6,396498022918297E-005	1,000000000000000E+000	1,4692270E-003	43	1,6844470E-007
2	0	0	1	1	9,845616782343527E+004	2,6085794E+000	2,6093001E+000	-3,239629644534675E-005	1,000000000000000E+000	1,4653963E-003	43	-8,4531663E-008
2	0	0	1	1	9,857608279506979E+004	2,5845964E+000	2,5853181E+000	-1,425924907593745E-004	1,000000000000000E+000	1,4503445E-003	43	-3,6864694E-007
2	0	0	1	1	9,869599636667757E+004	2,5606134E+000	2,5613408E+000	-2,578878132088050E-004	1,000000000000000E+000	1,4226062E-003	43	-6,6053860E-007
2	0	0	1	1	9,881591063832282E+004	2,5366306E+000	2,5373507E+000	-3,933821835350249E-004	1,000000000000000E+000	1,3794658E-003	43	-9,9814849E-007
2	0	0	1	1	9,893582560998434E+004	2,5126476E+000	2,5133469E+000	-5,205005854179230E-004	1,000000000000000E+000	1,3201842E-003	43	-1,3081985E-006
2	0	0	1	1	9,905573978160252E+004	2,4886646E+000	2,4893713E+000	-6,548924666262878E-004	1,000000000000000E+000	1,2452208E-003	43	-1,6302705E-006
2	0	0	1	1	9,917565475321491E+004	2,4646816E+000	2,4653766E+000	-7,868452453736723E-004	1,000000000000000E+000	1,1545632E-003	43	-1,9398699E-006
2	0	0	1	1	9,929556892487162E+004	2,4406989E+000	2,4414487E+000	-9,192737761632985E-004	1,000000000000000E+000	1,0477538E-003	42	-2,2443598E-006
2	0	0	1	1	9,941548309652682E+004	2,4167156E+000	2,4174335E+000	-1,046185773844788E-003	1,000000000000000E+000	9,2542020E-004	42	-2,5290844E-006
2	0	0	1	1	9,953539806813595E+004	2,3927329E+000	2,3934464E+000	-1,175915093985753E-003	1,000000000000000E+000	7,8803708E-004	42	-2,8144898E-006
2	0	0	1	1	9,965531223975902E+004	2,3687499E+000	2,3694503E+000	-1,323652665704833E-003	1,000000000000000E+000	6,3409994E-004	42	-3,1363293E-006
2	0	0	1	1	9,977522661141923E+004	2,3447666E+000	2,3454812E+000	-1,479240494327883E-003	1,000000000000000E+000	4,6225387E-004	42	-3,4695306E-006
2	0	0	1	1	9,989514078306197E+004	2,3207839E+000	2,3215146E+000	-1,642010279780164E-003	1,000000000000000E+000	2,7088806E-004	42	-3,8119508E-006
2	0	0	1	1	1,000150543546694E+005	2,2968011E+000	2,2975316E+000	-1,827513000549438E-003	1,000000000000000E+000	5,8291269E-005	42	-4,1987687E-006
2	0	0	1	1	1,001349693263079E+005	2,2728179E+000	2,2735376E+000	-2,032796828863835E-003	1,000000000000000E+000	-1,7757791E-004	42	-4,6216401E-006
2	0	0	1	1	1,002548834979684E+005	2,2488348E+000	2,2495258E+000	-2,259858266572337E-003	1,000000000000000E+000	-4,3901656E-004	42	-5,0836093E-006
2	0	0	1	1	1,003747984695949E+005	2,2248521E+000	2,2255561E+000	-2,509146191169740E-003	1,000000000000000E+000	-7,2882627E-004	42	-5,5842456E-006
2	0	0	1	1	1,004947126412034E+005	2,2008691E+000	2,2016013E+000	-2,790064157525675E-003	1,000000000000000E+000	-1,0505512E-003	42	-6,1426090E-006
2	0	0	1	1	1,006146268128557E+005	2,1768861E+000	2,1776295E+000	-3,120262872758864E-003	1,000000000000000E+000	-1,4091778E-003	42	-6,7947763E-006
2	0	0	1	1	1,007345417845151E+005	2,1529028E+000	2,1536241E+000	-3,492344499158730E-003	1,000000000000000E+000	-1,8098176E-003	42	-7,5211969E-006
2	0	0	1	1	1,008544559561280E+005	2,1289198E+000	2,1296725E+000	-3,907865483944076E-003	1,000000000000000E+000	-2,2576193E-003	42	-8,3224741E-006
2	0	0	1	1	1,009743703277451E+005	2,1049371E+000	2,1056509E+000	-4,360131419091369E-003	1,000000000000000E+000	-2,7569653E-003	42	-9,1809143E-006
2	0	0	1	1	1,010942844994045E+005	2,0809538E+000	2,0816770E+000	-4,851327707545528E-003	1,000000000000000E+000	-3,3130117E-003	42	-1,0098897E-005
2	0	0	1	1	1,012082030724738E+005	2,0581703E+000	2,0588717E+000	-5,394839287872877E-003	2,000000000000000E+000	-3,9003559E-003	42	-1,1107282E-005
2	0	0	1	1	1,013281180440908E+005	2,0341871E+000	2,0349116E+000	-6,021017160466043E-003	2,000000000000000E+000	-4,5888084E-003	42	-1,2252238E-005
2	0	0	1	1	1,014480322157038E+005	2,0102046E+000	2,0109532E+000	-6,723825361639287E-003	2,000000000000000E+000	-5,3569232E-003	42	-1,3521298E-005
2	0	0	1	1	1,015679468873600E+005	1,9862216E+000	1,9869395E+000	-7,501899455983577E-003	2,000000000000000E+000	-6,2135505E-003	42	-1,4905821E-005
2	0	0	1	1	1,016878616590148E+005	1,9622384E+000	1,9629593E+000	-8,372249035402450E-003	2,000000000000000E+000	-7,1685296E-003	42	-1,6434384E-005
2	0	0	1	1	1,018077761306246E+005	1,9382558E+000	1,9389670E+000	-9,345137438029796E-003	2,000000000000000E+000	-8,2337288E-003	42	-1,8119914E-005
2	0	0	1	1	1,019276912022471E+005	1,9142724E+000	1,9150081E+000	-1,041785539257668E-002	2,000000000000000E+000	-9,4220033E-003	41	-1,9950277E-005
2	0	0	1	1	1,020476059739084E+005	1,8902895E+000	1,8910259E+000	-1,163630072146897E-002	2,000000000000000E+000	-1,0747939E-002	41	-2,2004546E-005
2	0	0	1	1	1,021675206455493E+005	1,8663070E+000	1,8670394E+000	-1,296732143181772E-002	2,000000000000000E+000	-1,2226689E-002	41	-2,4210500E-005
2	0	0	1	1	1,022874354171581E+005	1,8423239E+000	1,8430544E+000	-1,441177388957984E-002	2,000000000000000E+000	-1,3871839E-002	41	-2,6561684E-005
2	0	0	1	1	1,024073499887949E+005	1,8183409E+000	1,8191018E+000	-1,600216404935972E-002	2,000000000000000E+000	-1,5699288E-002	41	-2,9109566E-005
2	0	0	1	1	1,025272649604578E+005	1,7943578E+000	1,7950996E+000	-1,777015736824594E-002	2,000000000000000E+000	-1,7727250E-002	41	-3,1899202E-005
2	0	0	1	1	1,026471797320811E+005	1,7703748E+000	1,7711065E+000	-1,970183637430914E-002	2,000000000000000E+000	-1,9976867E-002	41	-3,4894048E-005
2	0	0	1	1	1,027670944036918E+005	1,7463918E+000	1,7471153E+000	-2,185313173050901E-002	2,000000000000000E+000	-2,2471018E-002	41	-3,8179940E-005
2	0	0	1	1	1,028870091753427E+005	1,7224087E+000	1,7231514E+000	-2,417821451968388E-002	2,000000000000000E+000	-2,5233608E-002	41	-4,1662726E-005
2	0	0	1	1	1,030069236470023E+005	1,6984259E+000	1,6991770E+000	-2,670816144375588E-002	2,000000000000000E+000	-2,8288204E-002	41	-4,5381894E-005
2	0	0	1	1	1,031268389186151E+005	1,6744428E+000	1,6751564E+000	-2,947674540998085E-002	2,000000000000000E+000	-3,1659488E-002	41	-4,9378159E-005
2	0	0	1	1	1,032467533902312E+005	1,6504598E+000	1,6512065E+000	-3,241052206826933E-002	2,000000000000000E+000	-3,5370480E-002	41	-5,3516465E-005
2	0	0	1	1	1,033666683618918E+005	1,6264770E+000	1,6272225E+000	-3,567389069516394E-002	2,000000000000000E+000	-3,9454561E-002	41	-5,8049358E-005
2	0	0	1	1	1,034865831335397E+005	1,6024940E+000	1,6032288E+000	-3,937661189814046E-002	2,000000000000000E+000	-4,3954454E-002	41	-6,3129715E-005
2	0	0	1	1	1,036064977051488E+005	1,5785110E+000	1,5792341E+000	-4,373015037631484E-002	2,000000000000000E+000	-4,8935823E-002	41	-6,9060145E-005
2	0	0	1	1	1,037264125767784E+005	1,5545280E+000	1,5552444E+000	-4,899023978036332E-002	2,000000000000000E+000	-5,4490801E-002	41	-7,6191798E-005
2	0	0	1	1	1,038463270484406E+005	1,5305451E+000	1,5312485E+000	-5,547408548479915E-002	2,000000000000000E+000	-6,0746431E-002	41	-8,4944608E-005
2	0	0	1	1	1,039662420200731E+005	1,5065622E+000	1,5072858E+000	-6,339068738983275E-002	2,000000000000000E+000	-6,7863576E-002	41	-9,5547883E-005
2	0	0	1	1	1,040861567916826E+005	1,4825791E+000	1,4832972E+000	-7,306092436234635E-002	2,000000000000000E+000	-7,6032549E-002	41	-1,0837107E-004
2	0	0	1	1	1,042060713633260E+005	1,4585962E+000	1,4593253E+000	-8,418923763976438E-002	2,000000000000000E+000	-8,5457608E-002	41	-1,2285949E-004
2	0	0	1	1	1,043259862349890E+005	1,4346131E+000	1,4353347E+000	-9,550925501047969E-002	2,000000000000000E+000	-9,6244566E-002	41	-1,3708774E-004
2	0	0	1	1	1,044459007066065E+005	1,4106302E+000	1,4113806E+000	-1,054435453496170E-001	2,000000000000000E+000	-1,0832073E-001	40	-1,4882098E-004
2	0	0	1	1	1,045658156782193E+005	1,3866472E+000	1,3874003E+000	-1,134326771140817E-001	2,000000000000000E+000	-1,2147313E-001	40	-1,5737653E-004
2	0	0	1	1	1,046857304498744E+005	1,3626642E+000	1,3633815E+000	-1,188919970683187E-001	2,000000000000000E+000	-1,3543318E-001	40	-1,6209515E-004
2	0	0	1	1	1,048056450215296E+005	1,3386812E+000	1,3393978E+000	-1,218756863759209E-001	2,000000000000000E+000	-1,4989845E-001	40	-1,6324002E-004
2	0	0	1	1	1,049255598931396E+005	1,3146983E+000	1,3154423E+000	-1,226533441309163E-001	2,000000000000000E+000	-1,6458710E-001	40	-1,6134340E-004
2	0	0	1	1	1,050454743647620E+005	1,2907155E+000	1,2914485E+000	-1,215404868719395E-001	2,000000000000000E+000	-1,7925137E-001	40	-1,5696327E-004
2	0	0	1	1	1,051653893364238E+005	1,2667325E+000	1,2674694E+000	-1,188161313391078E-001	2,000000000000000E+000	-1,9368200E-001	40	-1,5059581E-004
2	0	0	1	1	1,052853041080637E+005	1,2427493E+000	1,2435020E+000	-1,148639561866269E-001	2,000000000000000E+000	-2,0770809E-001	40	-1,4283357E-004
2	0	0	1	1	1,054052186796737E+005	1,2187663E+000	1,2195401E+000	-1,101433056129320E-001	2,000000000000000E+000	-2,2121234E-001	40	-1,3432417E-004
2	0	0	1	1	1,055251335513098E+005	1,1947833E+000	1,1955402E+000	-1,050226089844380E-001	2,000000000000000E+000	-2,3412146E-001	40	-1,2555876E-004
2	0	0	1	1	1,056450480229723E+005	1,1708006E+000	1,1715587E+000	-9,974652606828482E-002	2,000000000000000E+000	-2,4640442E-001	40	-1,1685892E-004
2	0	0	1	1	1,057649630945972E+005	1,1468174E+000	1,1475934E+000	-9,460165905932216E-002	2,000000000000000E+000	-2,5806147E-001	40	-1,0856424E-004
2	0	0	1	1	1,058848778662062E+005	1,1228344E+000	1,1235743E+000	-8,968354970235093E-002	2,000000000000000E+000	-2,6911595E-001	40	-1,0076613E-004
2	0	0	1	1	1,060047924378579E+005	1,0988517E+000	1,0996400E+000	-8,495208591421549E-002	2,000000000000000E+000	-2,7958915E-001	40	-9,3416711E-005
2	0	0	1	1	1,061247073095168E+005	1,0748686E+000	1,0756162E+000	-8,067064798844992E-002	2,000000000000000E+000	-2,8951955E-001	40	-8,6770662E-005
2	0	0	1	1	1,062446217811301E+005	1,0508856E+000	1,0516459E+000	-7,688511047263602E-002	2,000000000000000E+000	-2,9896468E-001	40	-8,0855913E-005
2	0	0	1	1	1,063645368527465E+005	1,0269027E+000	1,0276577E+000	-7,377403892166989E-002	2,000000000000000E+000	-3,0799705E-001	40	-7,5814460E-005
2	0	0	1	1	1,064844516244065E+005	1,0029197E+000	1,0036978E+000	-7,112962244787169E-002	2,000000000000000E+000	-3,1668535E-001	40	-7,1392642E-005
2	0	0	1	1	1,065968720978268E+005	1,0195079E+000	1,0202746E+000	-5,551475540302764E-002	2,000000000000000E+000	-3,2375675E-001	40	-5,6640296E-005
2	0	0	1	1	1,067167870694508E+005	1,0434908E+000	1,0442363E+000	-4,560824929729912E-002	2,000000000000000E+000	-3,2977197E-001	41	-4,7625788E-005
2	0	0	1	1	1,068367021410596E+005	1,0674738E+000	1,0682606E+000	-3,833016273058165E-002	2,000000000000000E+000	-3,3477816E-001	41	-4,0946601E-005
2	0	0	1	1	1,069566171127146E+005	1,0914568E+000	1,0922344E+000	-3,266806892326600E-002	2,000000000000000E+000	-3,3901682E-001	41	-3,5681187E-005
2	0	0	1	1	1,070765324843699E+005	1,1154398E+000	1,1162046E+000	-2,806691855416774E-002	2,000000000000000E+000	-3,4264368E-001	41	-3,1328425E-005
2	0	0	1	1	1,071964475559844E+005	1,1394227E+000	1,1402041E+000	-2,418124051817006E-002	2,000000000000000E+000	-3,4576389E-001	41	-2,7571548E-005
2	0	0	1	1	1,073163625275996E+005	1,1634057E+000	1,1641669E+000	-2,091740398872197E-002	2,000000000000000E+000	-3,4845793E-001	41	-2,4351350E-005
2	0	0	1	1	1,074362775992621E+005	1,1873888E+000	1,1881601E+000	-1,810243989824278E-002	2,000000000000000E+000	-3,5078767E-001	41	-2,1508597E-005
2	0	0	1	1	1,075561925709075E+005	1,2113718E+000	1,2121073E+000	-1,566227523301627E-002	2,000000000000000E+000	-3,5280317E-001	41	-1,8984358E-005
2	0	0	1	1	1,076761079425161E+005	1,2353547E+000	1,2361252E+000	-1,352175308152495E-002	2,000000000000000E+000	-3,5454583E-001	41	-1,6714581E-005
2	0	0	1	1	1,077960230141475E+005	1,2593375E+000	1,2601041E+000	-1,164299348578771E-002	2,000000000000000E+000	-3,5604808E-001	41	-1,4671384E-005
2	0	0	1	1	1,079159379858093E+005	1,2833205E+000	1,2840731E+000	-9,943110587088771E-003	2,000000000000000E+000	-3,5733590E-001	41	-1,2767681E-005
2	0	0	1	1	1,080358530574406E+005	1,3073034E+000	1,3080668E+000	-8,338288775045610E-003	2,000000000000000E+000	-3,5842660E-001	41	-1,0907039E-005
2	0	0	1	1	1,081557680290495E+005	1,3312865E+000	1,3320429E+000	-6,773944110617679E-003	2,000000000000000E+000	-3,5932902E-001	41	-9,0231842E-006
2	0	0	1	1	1,082756834006961E+005	1,3552694E+000	1,3560045E+000	-5,157600810539634E-003	2,000000000000000E+000	-3,6004040E-001	41	-6,9937296E-006
2	0	0	1	1	1,083955983723570E+005	1,3792523E+000	1,3799870E+000	-3,425001226088575E-003	2,000000000000000E+000	-3,6055270E-001	42	-4,7264571E-006
2	0	0	1	1	1,085155134439738E+005	1,4032354E+000	1,4039706E+000	-1,538575845648078E-003	2,000000000000000E+000	-3,6084715E-001	42	-2,1601152E-006
2	1	0	1	1	1,086354285155857E+005	1,4272184E+000	1,4279870E+000	5,574033287591065E-004	2,000000000000000E+000	-3,6090288E-001	43	7,9596470E-007
2	1	0	1	1	1,087553435872449E+005	1,4512013E+000	1,4519873E+000	2,852708154866015E-003	2,000000000000000E+000	-3,6069641E-001	42	4,1420958E-006
2	1	0	1	1	1,088752589588966E+005	1,4751844E+000	1,4759451E+000	5,372269420234332E-003	2,000000000000000E+000	-3,6020157E-001	42	7,9291749E-006
2	1	0	1	1	1,089951738305076E+005	1,4991673E+000	1,4999291E+000	8,109980412459250E-003	2,000000000000000E+000	-3,5939130E-001	42	1,2164395E-005
2	1	0	1	1	1,091150890021296E+005	1,5231504E+000	1,5239202E+000	1,110320830106168E-002	2,000000000000000E+000	-3,5823736E-001	41	1,6920403E-005
2	1	0	1	1	1,092350040737919E+005	1,5471332E+000	1,5478904E+000	1,454711773303730E-002	2,000000000000000E+000	-3,5670045E-001	41	2,2517344E-005
2	1	0	1	1	1,093549191454302E+005	1,5711163E+000	1,5718430E+000	1,889199144791437E-002	2,000000000000000E+000	-3,5470015E-001	41	2,9695246E-005
2	1	0	1	1	1,094748344170391E+005	1,5950992E+000	1,5958624E+000	2,541610937268710E-002	2,000000000000000E+000	-3,5208222E-001	41	4,0560612E-005
2	1	0	1	1	1,095947492886783E+005	1,6190821E+000	1,6198269E+000	3,861138248905119E-002	2,000000000000000E+000	-3,4830076E-001	41	6,2543753E-005
2	1	0	1	1	1,097146645603399E+005	1,6430652E+000	1,6438196E+000	5,501757113644384E-002	2,000000000000000E+000	-3,4268945E-001	41	9,0438960E-005
2	1	0	1	1	1,098345796319640E+005	1,6670482E+000	1,6677988E+000	7,200516908914723E-002	2,000000000000000E+000	-3,3506820E-001	41	1,2009013E-004
2	1	0	1	1	1,099544949035728E+005	1,6910311E+000	1,6917839E+000	8,921019516012563E-002	2,000000000000000E+000	-3,2539591E-001	41	1,5092437E-004
2	1	0	1	1	1,100744099752270E+005	1,7150141E+000	1,7157907E+000	1,064577788854219E-001	2,000000000000000E+000	-3,1365615E-001	40	1,8265928E-004
2	1	0	1	1	1,101943251468833E+005	1,7389971E+000	1,7397447E+000	1,229599991713539E-001	2,000000000000000E+000	-2,9988378E-001	40	2,1391900E-004
2	1	0	1	1	1,103142403184966E+005	1,7629801E+000	1,7637324E+000	1,382500464581033E-001	2,000000000000000E+000	-2,8419745E-001	40	2,4383610E-004
2	1	0	1	1	1,104341553901123E+005	1,7869627E+000	1,7877272E+000	1,514634619936335E-001	2,000000000000000E+000	-2,6679575E-001	40	2,7077534E-004
2	1	0	1	1	1,105540703617749E+005	1,8109459E+000	1,8117141E+000	1,617245412743986E-001	2,000000000000000E+000	-2,4797662E-001	40	2,9299862E-004
2	1	0	1	1	1,106739854334199E+005	1,8349289E+000	1,8356823E+000	1,680382319862497E-001	2,000000000000000E+000	-2,2815678E-001	40	3,0846481E-004
2	1	0	1	1	1,107939006050299E+005	1,8589119E+000	1,8596684E+000	1,699439760141550E-001	2,000000000000000E+000	-2,0784140E-001	40	3,1603943E-004
2	1	0	1	1	1,109138157766601E+005	1,8828949E+000	1,8836533E+000	1,670405586464825E-001	2,000000000000000E+000	-1,8758640E-001	40	3,1464649E-004
2	1	0	1	1	1,110337308483226E+005	1,9068778E+000	1,9076363E+000	1,595298840216635E-001	2,000000000000000E+000	-1,6795909E-001	40	3,0432499E-004
2	1	0	1	1	1,111536458199536E+005	1,9308609E+000	1,9316243E+000	1,481840799658820E-001	2,000000000000000E+000	-1,4947122E-001	40	2,8623597E-004
2	1	0	1	1	1,112735608915619E+005	1,9548439E+000	1,9555751E+000	1,341388340819905E-001	2,000000000000000E+000	-1,3251835E-001	40	2,6231856E-004
2	1	0	1	1	1,113934760632091E+005	1,9788270E+000	1,9795688E+000	1,185068529327373E-001	2,000000000000000E+000	-1,1735599E-001	40	2,3459247E-004
2	1	0	1	1	1,115133918348694E+005	2,0028095E+000	2,0035477E+000	1,024828073960697E-001	2,000000000000000E+000	-1,0410502E-001	40	2,0532918E-004
2	1	0	1	1	1,116333072064868E+005	2,0267925E+000	2,0275569E+000	8,737194738468723E-002	2,000000000000000E+000	-9,2732437E-002	40	1,7715160E-004
2	1	0	1	1	1,117532221780987E+005	2,0507755E+000	2,0515177E+000	7,390536118547653E-002	2,000000000000000E+000	-8,3080575E-002	40	1,5161817E-004
2	1	0	1	1	1,118731369497571E+005	2,0747585E+000	2,0755153E+000	6,254643164527773E-002	2,000000000000000E+000	-7,4917480E-002	40	1,2981608E-004
2	1	0	1	1	1,119930521214094E+005	2,0987415E+000	2,0994852E+000	5,320275495690802E-002	2,000000000000000E+000	-6,7992747E-002	40	1,1169839E-004
2	1	0	1	1	1,121134666929005E+005	2,1228244E+000	2,1235697E+000	4,550483958835161E-002	2,000000000000000E+000	-6,2059309E-002	41	9,6632699E-005
2	1	0	1	1	1,122333820645249E+005	2,1468072E+000	2,1475372E+000	3,942092624840499E-002	2,000000000000000E+000	-5,6976113E-002	41	8,4657906E-005
2	1	0	1	1	1,123532970361875E+005	2,1707902E+000	2,1715519E+000	3,453279147815325E-002	2,000000000000000E+000	-5,2548807E-002	41	7,4989752E-005
2	1	0	1	1	1,124732124078239E+005	2,1947732E+000	2,1954911E+000	3,054427596141962E-002	2,000000000000000E+000	-4,8651405E-002	41	6,7059686E-005
2	1	0	1	1	1,125931276794332E+005	2,2187564E+000	2,2194898E+000	2,726912864599396E-002	2,000000000000000E+000	-4,5186762E-002	41	6,0523555E-005
2	1	0	1	1	1,127130428510737E+005	2,2427390E+000	2,2434814E+000	2,454846692202386E-002	2,000000000000000E+000	-4,2080555E-002	41	5,5074030E-005
2	1	0	1	1	1,128329582227352E+005	2,2667222E+000	2,2674792E+000	2,227678278964057E-002	2,000000000000000E+000	-3,9273340E-002	41	5,0512142E-005
2	1	0	1	1	1,129528731943570E+005	2,2907052E+000	2,2914252E+000	2,032215228459822E-002	2,000000000000000E+000	-3,6718775E-002	41	4,6566693E-005
2	1	0	1	1	1,130727885659668E+005	2,3146880E+000	2,3154190E+000	1,864847588919016E-002	2,000000000000000E+000	-3,4380078E-002	41	4,3179036E-005
2	1	0	1	1	1,131927031376222E+005	2,3386712E+000	2,3394070E+000	1,720386688968539E-002	2,000000000000000E+000	-3,2227799E-002	41	4,0246847E-005
2	1	0	1	1	1,133126178092779E+005	2,3626540E+000	2,3633752E+000	1,594949730070572E-002	2,000000000000000E+000	-3,0237503E-002	41	3,7694645E-005
2	1	0	1	1	1,134325331808910E+005	2,3866370E+000	2,3873925E+000	1,483906582663708E-002	2,000000000000000E+000	-2,8388953E-002	41	3,5426674E-005
2	1	0	1	1	1,135524481525072E+005	2,4106200E+000	2,4113679E+000	1,390849733489422E-002	2,000000000000000E+000	-2,6662931E-002	41	3,3538505E-005
2	1	0	1	1	1,136723635241704E+005	2,4346032E+000	2,4353518E+000	1,312316932753745E-002	2,000000000000000E+000	-2,5039528E-002	41	3,1959535E-005
2	1	0	1	1	1,137922786958134E+005	2,4585862E+000	2,4593251E+000	1,245577873385578E-002	2,000000000000000E+000	-2,3501994E-002	41	3,0632807E-005
2	1	0	1	1	1,139121938674232E+005	2,4825692E+000	2,4832797E+000	1,177140712760635E-002	2,000000000000000E+000	-2,2045474E-002	41	2,9231696E-005
2	1	0	1	1	1,140321092390555E+005	2,5065522E+000	2,5072830E+000	1,115944881016911E-002	2,000000000000000E+000	-2,0666784E-002	41	2,7979895E-005
2	1	0	1	1	1,141520242107178E+005	2,5305352E+000	2,5312681E+000	1,057203281462502E-002	2,000000000000000E+000	-1,9359196E-002	41	2,6760650E-005
2	1	0	1	1	1,142719395823472E+005	2,5545182E+000	2,5552204E+000	1,000040683630187E-002	2,000000000000000E+000	-1,8122274E-002	41	2,5553243E-005
2	1	0	1	1	1,143918541539561E+005	2,5785007E+000	2,5792010E+000	9,458875974047209E-003	2,000000000000000E+000	-1,6952325E-002	41	2,4396342E-005
2	1	0	1	1	1,145117693256042E+005	2,6024840E+000	2,6032026E+000	9,008989029200359E-003	2,000000000000000E+000	-1,5841704E-002	41	2,3452223E-005
2	1	0	1	1	1,146316840972647E+005	2,6264668E+000	2,6272051E+000	8,654120177120306E-003	2,000000000000000E+000	-1,4779985E-002	41	2,2736149E-005
2	1	0	1	1	1,147515990688803E+005	2,6504498E+000	2,6511598E+000	8,345880849855547E-003	2,000000000000000E+000	-1,3756351E-002	41	2,2126264E-005
2	1	0	1	1	1,148715144404935E+005	2,6744328E+000	2,6751585E+000	8,022648420137460E-003	2,000000000000000E+000	-1,2771060E-002	41	2,1461856E-005
2	1	0	1	1	1,149914296121525E+005	2,6984160E+000	2,6991374E+000	7,713188977358426E-003	2,000000000000000E+000	-1,1824097E-002	41	2,0818958E-005
2	1	0	1	1	1,151113447838038E+005	2,7223988E+000	2,7231426E+000	7,496061626731158E-003	2,000000000000000E+000	-1,0908297E-002	41	2,0412845E-005
2	1	0	1	1	1,152312601554138E+005	2,7463818E+000	2,7471051E+000	7,330053838401351E-003	2,000000000000000E+000	-1,0016305E-002	41	2,0136429E-005
2	1	0	1	1	1,153511751270373E+005	2,7703648E+000	2,7710817E+000	7,269432432530476E-003	2,000000000000000E+000	-9,1372542E-003	41	2,0144191E-005
2	1	0	1	1	1,154710904987005E+005	2,7943478E+000	2,7950568E+000	7,374391746773901E-003	2,000000000000000E+000	-8,2571991E-003	41	2,0611844E-005
2	1	0	1	1	1,155910048703370E+005	2,8183305E+000	2,8190625E+000	7,753824744488186E-003	2,000000000000000E+000	-7,3484401E-003	41	2,1858516E-005
2	1	0	1	1	1,157109202419460E+005	2,8423138E+000	2,8430443E+000	8,240093401176006E-003	2,000000000000000E+000	-6,3832337E-003	41	2,3426950E-005
2	1	0	1	1	1,158308350135866E+005	2,8662965E+000	2,8670044E+000	8,326369974975212E-003	2,000000000000000E+000	-5,3805336E-003	41	2,3871738E-005
2	1	0	1	1	1,159507499852477E+005	2,8902795E+000	2,8910053E+000	8,032771974748179E-003	2,000000000000000E+000	-4,3932679E-003	41	2,3222787E-005
2	1	0	1	1	1,160706653568703E+005	2,9142623E+000	2,9149740E+000	7,696918346953852E-003	2,000000000000000E+000	-3,4470703E-003	41	2,2436318E-005
2	1	0	1	1	1,161905803284801E+005	2,9382455E+000	2,9389765E+000	7,493897510740533E-003	2,000000000000000E+000	-2,5339602E-003	41	2,2024389E-005
2	1	0	1	1	1,163104957001349E+005	2,9622283E+000	2,9629586E+000	7,449778646145919E-003	2,000000000000000E+000	-1,6350835E-003	41	2,2073385E-005
2	1	0	1	1	1,164304110717908E+005	2,9862118E+000	2,9869483E+000	7,456726078696213E-003	2,000000000000000E+000	-7,3705445E-004	41	2,2272854E-005
2	1	0	1	0	1,165418304454288E+005	2,9914079E+000	2,9921188E+000	5,464915561915300E-003	2,000000000000000E+000	3,4439076E-005	41	1,6351676E-005
2	1	0	1	0	1,166617454170366E+005	2,9674246E+000	2,9681458E+000	3,883555529336358E-003	2,000000000000000E+000	5,7977170E-004	42	1,1526959E-005
2	1	0	1	0	1,167816603886765E+005	2,9434416E+000	2,9441736E+000	3,010615573857720E-003	2,000000000000000E+000	9,8502496E-004	42	8,8637744E-006
2	1	0	1	0	1,169015745603372E+005	2,9194586E+000	2,9201767E+000	2,422767846457903E-003	2,000000000000000E+000	1,3046138E-003	42	7,0749102E-006
2	1	0	1	0	1,170214887319631E+005	2,8954756E+000	2,8962069E+000	1,991429921449163E-003	2,000000000000000E+000	1,5642357E-003	42	5,7675929E-006
2	1	0	1	0	1,171414037035704E+005	2,8714929E+000	2,8722434E+000	1,633338961239548E-003	2,000000000000000E+000	1,7764879E-003	42	4,6913469E-006
2	1	0	1	0	1,172613178752256E+005	2,8475099E+000	2,8482432E+000	1,344458134374126E-003	2,000000000000000E+000	1,9498360E-003	42	3,8293438E-006
2	1	0	1	0	1,173812328468817E+005	2,8235269E+000	2,8242443E+000	1,116371623497221E-003	2,000000000000000E+000	2,0924283E-003	42	3,1529062E-006
2	1	0	1	0	1,175011465184952E+005	2,7995439E+000	2,8002603E+000	9,480000731997736E-004	2,000000000000000E+000	2,2117682E-003	42	2,6546470E-006
2	1	0	1	0	1,176210606901122E+005	2,7755609E+000	2,7762771E+000	7,995527153808466E-004	2,000000000000000E+000	2,3122488E-003	42	2,2197798E-006
2	1	0	1	0	1,177409750617736E+005	2,7515779E+000	2,7523155E+000	6,710370681913540E-004	2,000000000000000E+000	2,3962406E-003	42	1,8469058E-006
2	1	0	1	0	1,178608892334208E+005	2,7275949E+000	2,7283535E+000	5,483777896825616E-004	2,000000000000000E+000	2,4649347E-003	43	1,4961685E-006
2	1	0	1	0	1,179808043050281E+005	2,7036119E+000	2,7043629E+000	4,254742064420496E-004	2,000000000000000E+000	2,5188047E-003	43	1,1506366E-006
2	1	0	1	0	1,181007184766609E+005	2,6796291E+000	2,6803708E+000	2,980995456458285E-004	2,000000000000000E+000	2,5578851E-003	43	7,9901730E-007
2	1	0	1	0	1,182206326483216E+005	2,6556461E+000	2,6563847E+000	1,437798812296040E-004	2,000000000000000E+000	2,5801924E-003	43	3,8193468E-007
2	0	0	1	0	1,183410470198352E+005	2,6315634E+000	2,6322927E+000	-1,104290642795304E-005	2,000000000000000E+000	2,5828106E-003	44	-2,9068163E-008
2	0	0	1	0	1,184609611914427E+005	2,6075802E+000	2,6083241E+000	-1,375178347143959E-004	2,000000000000000E+000	2,5679246E-003	43	-3,5869107E-007
2	0	0	1	0	1,185808761630923E+005	2,5835974E+000	2,5843434E+000	-2,082525172724549E-004	2,000000000000000E+000	2,5429693E-003	43	-5,3819605E-007
2	0	0	1	0	1,187007903347521E+005	2,5596144E+000	2,5603566E+000	-3,039719077635714E-004	2,000000000000000E+000	2,5081667E-003	43	-7,7827650E-007
2	0	0	1	0	1,188207045063686E+005	2,5356312E+000	2,5363476E+000	-4,331025791863372E-004	2,000000000000000E+000	2,4596255E-003	43	-1,0984987E-006
2	0	0	1	0	1,189406188779818E+005	2,5116484E+000	2,5123653E+000	-5,611619767341303E-004	2,000000000000000E+000	2,3954755E-003	43	-1,4098439E-006
2	0	0	1	0	1,190605330496409E+005	2,4876654E+000	2,4883552E+000	-6,851901191300535E-004	2,000000000000000E+000	2,3159746E-003	43	-1,7049964E-006
2	0	0	1	0	1,191804475212931E+005	2,4636824E+000	2,4643967E+000	-8,103463567317396E-004	2,000000000000000E+000	2,2222821E-003	42	-1,9970148E-006
2	0	0	1	0	1,193003616929017E+005	2,4396992E+000	2,4404230E+000	-9,364302568461800E-004	2,000000000000000E+000	2,1134461E-003	42	-2,2852860E-006
2	0	0	1	0	1,194202758645280E+005	2,4157166E+000	2,4164712E+000	-1,059983028583709E-003	2,000000000000000E+000	1,9894654E-003	42	-2,5614186E-006
2	0	0	1	0	1,195401909361887E+005	2,3917334E+000	2,3924606E+000	-1,179877130230260E-003	2,000000000000000E+000	1,8510014E-003	42	-2,8228096E-006
2	0	0	1	0	1,196601051078276E+005	2,3677506E+000	2,3685191E+000	-1,314985077799428E-003	2,000000000000000E+000	1,6970270E-003	42	-3,1145673E-006
2	0	0	1	0	1,197800200794337E+005	2,3437674E+000	2,3445160E+000	-1,472124224459460E-003	2,000000000000000E+000	1,5254788E-003	42	-3,4514189E-006
2	0	0	1	0	1,198999342510770E+005	2,3197844E+000	2,3205268E+000	-1,638410066571106E-003	2,000000000000000E+000	1,3347759E-003	42	-3,8019746E-006
2	0	0	1	0	1,200198484227376E+005	2,2958014E+000	2,2965181E+000	-1,827341979687145E-003	2,000000000000000E+000	1,1228793E-003	42	-4,1965241E-006
2	0	0	1	0	1,201397633943604E+005	2,2718184E+000	2,2725682E+000	-2,029586408241593E-003	2,000000000000000E+000	8,8763348E-004	42	-4,6123737E-006
2	0	0	1	0	1,202596769659701E+005	2,2478356E+000	2,2485781E+000	-2,257646035544602E-003	2,000000000000000E+000	6,2636653E-004	42	-5,0764934E-006
2	0	0	1	0	1,203795913376245E+005	2,2238529E+000	2,2245822E+000	-2,519665617666693E-003	2,000000000000000E+000	3,3616618E-004	42	-5,6052031E-006
2	0	0	1	0	1,204995055092818E+005	2,1998699E+000	2,2005825E+000	-2,813741093585976E-003	2,000000000000000E+000	1,2868182E-005	42	-6,1918695E-006
2	0	0	1	0	1,206194196808937E+005	2,1758866E+000	2,1766336E+000	-3,153689445745195E-003	2,000000000000000E+000	-3,4827890E-004	42	-6,8644263E-006
2	0	0	1	0	1,207393346525122E+005	2,1519039E+000	2,1526396E+000	-3,533388339040829E-003	2,000000000000000E+000	-7,5279927E-004	42	-7,6061119E-006
2	0	0	1	0	1,208592488241732E+005	2,1279209E+000	2,1286604E+000	-3,965704409203477E-003	2,000000000000000E+000	-1,2060046E-003	42	-8,4416379E-006
2	0	0	1	0	1,209791637958185E+005	2,1039379E+000	2,1046815E+000	-4,427734389692177E-003	2,000000000000000E+000	-1,7127945E-003	42	-9,3189710E-006
2	0	0	1	0	1,210990779674260E+005	2,0799549E+000	2,0806744E+000	-4,961384574639016E-003	2,000000000000000E+000	-2,2793950E-003	42	-1,0323026E-005
2	0	0	0	0	1,212044976424917E+005	2,0588205E+000	2,0595753E+000	-5,555082581636003E-003	2,000000000000000E+000	-2,8326351E-003	42	-1,1441111E-005