File: Dati/210416/CV_LTO-CB_11_CV_C05.mpt
EC-Lab ASCII FILE
Nb header lines : 57

Cyclic Voltammetry

Run on channel : 5 (SN 6809)
User : Seelab
Electrode connection : standard
Ewe ctrl range : min = 0,00 V, max = 5,00 V
Ewe,I filtering : 50 kHz
Safety Limits :
	Do not start on E overload
Channel : Grounded
Acquisition started on : 04/16/2021 18:38:45
Saved on :
	File : CV_LTO-CB_11_CV_C05.mpr
	Directory : C:\Users\labsuperfici\Desktop\Biologic\Users\Prisca Viviani\210416\
	Host : 10.78.33.0
Device : VSP-300 (SN 0638)
Address : USB
EC-Lab for windows v11.31 (software)
Internet server v11.30 (firmware)
Command interpretor v11.31 (firmware)
Electrode material :
Initial state :
Electrolyte :
Comments :
Cable : standard
Reference electrode : SCE Saturated Calomel Electrode (0,241 V)
Electrode surface area : 0,001 cm²
Characteristic mass : 0,001 g
Equivalent Weight : 0,000 g/eq.
Density : 0,000 g/cm3
Cycle Definition : Charge/Discharge alternance
Ei (V)              0,000
vs.                 Eoc
dE/dt               1,000
dE/dt unit          mV/s
E1 (V)              1,000
vs.                 Ref
Step percent        50
N                   10
E range min (V)     0,000
E range max (V)     5,000
I Range             Auto
I Range min         Unset
I Range max         Unset
I Range init        Unset
Bandwidth           8
E2 (V)              3,000
vs.                 Ref
nc cycles           1
Reverse Scan        1
Ef (V)              0,000
vs.                 Eoc

mode	ox/red	error	control changes	counter inc.	time/s	control/V	Ewe/V	<I>/mA	cycle number	(Q-Qo)/C	I Range	P/W
2	0	0	0	0	2,275225249992623E+005	2,0588205E+000	2,0595219E+000	-2,207347191870213E-002	1,000000000000000E+000	0,0000000E+000	41	-4,5460798E-005
2	0	0	1	0	2,275460581029435E+005	2,0352867E+000	2,0360117E+000	-2,242395554386717E-002	1,000000000000000E+000	-4,9964595E-004	41	-4,5655437E-005
2	0	0	1	0	2,275700411066962E+005	2,0113037E+000	2,0120668E+000	-2,521348281143859E-002	1,000000000000000E+000	-1,0739118E-003	41	-5,0731214E-005
2	0	0	1	0	2,275940242104493E+005	1,9873208E+000	1,9880648E+000	-2,813535058301297E-002	1,000000000000000E+000	-1,7163497E-003	41	-5,5934899E-005
2	0	0	1	0	2,276180071142009E+005	1,9633377E+000	1,9640840E+000	-3,129644727130468E-002	1,000000000000000E+000	-2,4316453E-003	41	-6,1468854E-005
2	0	0	1	0	2,276419901179532E+005	1,9393547E+000	1,9400942E+000	-3,470256576099792E-002	1,000000000000000E+000	-3,2257170E-003	41	-6,7326248E-005
2	0	0	1	0	2,276659731217059E+005	1,9153718E+000	1,9161041E+000	-3,838889251069028E-002	1,000000000000000E+000	-4,1044713E-003	41	-7,3557116E-005
2	0	0	1	0	2,276899561254580E+005	1,8913888E+000	1,8921061E+000	-4,250617185738526E-002	1,000000000000000E+000	-5,0770743E-003	41	-8,0426187E-005
2	0	0	1	0	2,277139391292101E+005	1,8674057E+000	1,8681237E+000	-4,708332366990087E-002	1,000000000000000E+000	-6,1536906E-003	41	-8,7957473E-005
2	0	0	1	0	2,277379219329630E+005	1,8434230E+000	1,8441424E+000	-5,215458134014950E-002	1,000000000000000E+000	-7,3460327E-003	41	-9,6180476E-005
2	0	0	1	0	2,277619049367158E+005	1,8194399E+000	1,8201765E+000	-5,785221809087748E-002	1,000000000000000E+000	-8,6675808E-003	41	-1,0530125E-004
2	0	0	1	0	2,277858879404680E+005	1,7954569E+000	1,7962085E+000	-6,409788902810887E-002	1,000000000000000E+000	-1,0131826E-002	41	-1,1513317E-004
2	0	0	1	0	2,278098709442206E+005	1,7714740E+000	1,7722292E+000	-7,111223153105983E-002	1,000000000000000E+000	-1,1755928E-002	41	-1,2602717E-004
2	0	0	1	0	2,278338539479729E+005	1,7474908E+000	1,7482542E+000	-7,892135715775461E-002	1,000000000000000E+000	-1,3557340E-002	41	-1,3797460E-004
2	0	0	1	0	2,278578369517257E+005	1,7235079E+000	1,7242539E+000	-8,760804828145352E-002	1,000000000000000E+000	-1,5555925E-002	41	-1,5105851E-004
2	0	0	1	0	2,278818198554777E+005	1,6995250E+000	1,7002553E+000	-9,710456066215523E-002	1,000000000000000E+000	-1,7772263E-002	41	-1,6510254E-004
2	0	0	1	0	2,279058029592307E+005	1,6755419E+000	1,6762837E+000	-1,073185679723578E-001	1,000000000000000E+000	-2,0224988E-002	40	-1,7989636E-004
2	0	0	1	0	2,279297857629824E+005	1,6515590E+000	1,6523005E+000	-1,185695478768001E-001	1,000000000000000E+000	-2,2935495E-002	40	-1,9591252E-004
2	0	0	1	0	2,279537687667347E+005	1,6275761E+000	1,6283168E+000	-1,309826816524247E-001	1,000000000000000E+000	-2,5929905E-002	40	-2,1328130E-004
2	0	0	1	0	2,279777517704867E+005	1,6035931E+000	1,6043581E+000	-1,446026074102975E-001	1,000000000000000E+000	-2,9235896E-002	40	-2,3199436E-004
2	0	0	1	0	2,280017347742392E+005	1,5796102E+000	1,5803584E+000	-1,599191122750435E-001	1,000000000000000E+000	-3,2888152E-002	40	-2,5272951E-004
2	0	0	1	0	2,280257177779924E+005	1,5556270E+000	1,5563895E+000	-1,771442338559193E-001	1,000000000000000E+000	-3,6929436E-002	40	-2,7570542E-004
2	0	0	1	0	2,280497006817446E+005	1,5316442E+000	1,5324088E+000	-1,966344214109572E-001	1,000000000000000E+000	-4,1410971E-002	40	-3,0132433E-004
2	0	0	1	0	2,280736836854969E+005	1,5076613E+000	1,5083946E+000	-2,187774746652045E-001	1,000000000000000E+000	-4,6390928E-002	40	-3,3000277E-004
2	0	0	1	0	2,280976666892497E+005	1,4836785E+000	1,4844059E+000	-2,430264784901505E-001	1,000000000000000E+000	-5,1929895E-002	40	-3,6074992E-004
2	0	0	1	0	2,281216496930020E+005	1,4596956E+000	1,4604142E+000	-2,664494874026242E-001	1,000000000000000E+000	-5,8046762E-002	40	-3,8912660E-004
2	0	0	1	0	2,281456325967545E+005	1,4357122E+000	1,4364321E+000	-2,861253508801465E-001	1,000000000000000E+000	-6,4686663E-002	40	-4,1099964E-004
2	0	0	1	0	2,281696155005069E+005	1,4117295E+000	1,4124566E+000	-3,006112135763548E-001	1,000000000000000E+000	-7,1737997E-002	40	-4,2460029E-004
2	0	0	1	0	2,281935985042593E+005	1,3877466E+000	1,3884639E+000	-3,098854350304854E-001	1,000000000000000E+000	-7,9073466E-002	40	-4,3026471E-004
2	0	0	1	0	2,282175815080113E+005	1,3637635E+000	1,3645128E+000	-3,149452960035175E-001	1,000000000000000E+000	-8,6577430E-002	40	-4,2974690E-004
2	0	0	1	0	2,282415644117636E+005	1,3397806E+000	1,3404924E+000	-3,175183135709343E-001	1,000000000000000E+000	-9,4161749E-002	40	-4,2563089E-004
2	0	0	1	0	2,282655474155159E+005	1,3157976E+000	1,3165450E+000	-3,190757758402016E-001	1,000000000000000E+000	-1,0180236E-001	40	-4,2007762E-004
2	0	0	1	0	2,282895304192689E+005	1,2918144E+000	1,2925408E+000	-3,187402235712113E-001	1,000000000000000E+000	-1,0945714E-001	40	-4,1198474E-004
2	0	0	1	0	2,283135134230214E+005	1,2678314E+000	1,2685643E+000	-3,164161793176081E-001	1,000000000000000E+000	-1,1707986E-001	40	-4,0139430E-004
2	0	0	1	0	2,283374963267734E+005	1,2438487E+000	1,2445855E+000	-3,126051556820295E-001	1,000000000000000E+000	-1,2462818E-001	40	-3,8906385E-004
2	0	0	1	0	2,283614792305264E+005	1,2198657E+000	1,2205983E+000	-3,076865222496608E-001	1,000000000000000E+000	-1,3207132E-001	40	-3,7556165E-004
2	0	0	1	0	2,283854622342782E+005	1,1958827E+000	1,1966586E+000	-3,017730423043246E-001	1,000000000000000E+000	-1,3938378E-001	40	-3,6111931E-004
2	0	0	1	0	2,284094452380314E+005	1,1718997E+000	1,1726567E+000	-2,953143950799433E-001	1,000000000000000E+000	-1,4654769E-001	40	-3,4630240E-004
2	0	0	1	0	2,284334282417828E+005	1,1479166E+000	1,1486866E+000	-2,885806000953319E-001	1,000000000000000E+000	-1,5355301E-001	40	-3,3148867E-004
2	0	0	1	0	2,284574112455361E+005	1,1239337E+000	1,1247169E+000	-2,818270981592654E-001	1,000000000000000E+000	-1,6039552E-001	40	-3,1697570E-004
2	0	0	1	0	2,284813941492876E+005	1,0999509E+000	1,1007102E+000	-2,753081026316259E-001	1,000000000000000E+000	-1,6707832E-001	40	-3,0303444E-004
2	0	0	1	0	2,285053771530399E+005	1,0759678E+000	1,0767345E+000	-2,689256938182227E-001	1,000000000000000E+000	-1,7360573E-001	40	-2,8956158E-004
2	0	0	1	0	2,285293600567924E+005	1,0519848E+000	1,0527644E+000	-2,629752444295040E-001	1,000000000000000E+000	-1,7998625E-001	40	-2,7685097E-004
2	0	0	1	0	2,285533430605456E+005	1,0280019E+000	1,0287406E+000	-2,575303958597090E-001	1,000000000000000E+000	-1,8623027E-001	40	-2,6493199E-004
2	0	0	1	0	2,285773260642982E+005	1,0040189E+000	1,0047733E+000	-2,527016118046230E-001	1,000000000000000E+000	-1,9235043E-001	40	-2,5390781E-004
2	0	0	1	0	2,285999105678312E+005	1,0185087E+000	1,0192726E+000	-2,104621873620323E-001	1,000000000000000E+000	-1,9757776E-001	40	-2,1451834E-004
2	0	0	1	0	2,286238935715833E+005	1,0424917E+000	1,0432431E+000	-1,823270227208922E-001	1,000000000000000E+000	-2,0226336E-001	40	-1,9021140E-004
2	0	0	1	0	2,286478764753357E+005	1,0664746E+000	1,0672027E+000	-1,617347382828100E-001	1,000000000000000E+000	-2,0637533E-001	40	-1,7260374E-004
2	0	0	1	0	2,286718594790885E+005	1,0904574E+000	1,0912269E+000	-1,451137179136979E-001	1,000000000000000E+000	-2,1004562E-001	40	-1,5835199E-004
2	0	0	1	0	2,286958424828413E+005	1,1144406E+000	1,1151909E+000	-1,312268667434006E-001	1,000000000000000E+000	-2,1335196E-001	40	-1,4634301E-004
2	0	0	1	0	2,287198254865936E+005	1,1384234E+000	1,1391931E+000	-1,191750322121717E-001	1,000000000000000E+000	-2,1634880E-001	40	-1,3576337E-004
2	0	0	1	0	2,287438084903457E+005	1,1624063E+000	1,1631680E+000	-1,085733061227010E-001	1,000000000000000E+000	-2,1907483E-001	40	-1,2628899E-004
2	0	0	1	0	2,287677914940985E+005	1,1863893E+000	1,1871512E+000	-9,912248983480954E-002	1,000000000000000E+000	-2,2156078E-001	40	-1,1767338E-004
2	0	0	1	0	2,287917744978508E+005	1,2103724E+000	1,2111180E+000	-9,058332830136995E-002	1,000000000000000E+000	-2,2383147E-001	40	-1,0970710E-004
2	0	0	1	0	2,288157574016023E+005	1,2343554E+000	1,2351426E+000	-8,264263259496007E-002	1,000000000000000E+000	-2,2590496E-001	40	-1,0207544E-004
2	0	0	1	0	2,288397404053556E+005	1,2583383E+000	1,2590988E+000	-7,525435022769222E-002	1,000000000000000E+000	-2,2779524E-001	40	-9,4752657E-005
2	0	0	1	0	2,288637234091079E+005	1,2823212E+000	1,2831001E+000	-6,816069034773022E-002	1,000000000000000E+000	-2,2951235E-001	40	-8,7456989E-005
2	0	0	1	0	2,288877063128601E+005	1,3063041E+000	1,3070651E+000	-6,120289243811639E-002	1,000000000000000E+000	-2,3106121E-001	40	-7,9996164E-005
2	0	0	1	0	2,289116893166121E+005	1,3302871E+000	1,3310081E+000	-5,424826342189537E-002	1,000000000000000E+000	-2,3244381E-001	40	-7,2204879E-005
2	0	0	1	0	2,289356723203647E+005	1,3542701E+000	1,3549850E+000	-4,728209049427234E-002	1,000000000000000E+000	-2,3365788E-001	41	-6,4066524E-005
2	0	0	1	0	2,289596553241179E+005	1,3782531E+000	1,3789823E+000	-3,989538599889347E-002	1,000000000000000E+000	-2,3470110E-001	41	-5,5015033E-005
2	0	0	1	0	2,289836383278703E+005	1,4022360E+000	1,4029653E+000	-3,215329312544540E-002	1,000000000000000E+000	-2,3556331E-001	41	-4,5109955E-005
2	0	0	1	0	2,290076213316226E+005	1,4262192E+000	1,4269609E+000	-2,391514683368784E-002	1,000000000000000E+000	-2,3623431E-001	41	-3,4125980E-005
2	0	0	1	0	2,290316043353751E+005	1,4502021E+000	1,4509784E+000	-1,510504271819638E-002	1,000000000000000E+000	-2,3670144E-001	41	-2,1917091E-005
2	0	0	1	0	2,290555872391267E+005	1,4741851E+000	1,4749213E+000	-5,636864100443506E-003	1,000000000000000E+000	-2,3694943E-001	41	-8,3139312E-006
2	1	0	1	0	2,290795702428799E+005	1,4981682E+000	1,4989265E+000	4,685105508688309E-003	1,000000000000000E+000	-2,3696057E-001	42	7,0226288E-006
2	1	0	1	0	2,291035532466322E+005	1,5221510E+000	1,5228927E+000	1,598252534044056E-002	1,000000000000000E+000	-2,3671260E-001	41	2,4339672E-005
2	1	0	1	0	2,291275361503847E+005	1,5461338E+000	1,5468658E+000	2,871026334552690E-002	1,000000000000000E+000	-2,3617749E-001	41	4,4410925E-005
2	1	0	1	0	2,291515191541368E+005	1,5701169E+000	1,5708426E+000	4,327254541663816E-002	1,000000000000000E+000	-2,3531561E-001	41	6,7974361E-005
2	1	0	1	0	2,291755021578891E+005	1,5941000E+000	1,5948565E+000	6,091709033416068E-002	1,000000000000000E+000	-2,3407342E-001	41	9,7154014E-005
2	1	0	1	0	2,291994851616413E+005	1,6180829E+000	1,6188436E+000	8,734526146591870E-002	1,000000000000000E+000	-2,3231813E-001	41	1,4139831E-004
2	1	0	1	0	2,292234681653943E+005	1,6420659E+000	1,6428146E+000	1,247529807319610E-001	1,000000000000000E+000	-2,2978689E-001	40	2,0494602E-004
2	1	0	1	0	2,292474511691469E+005	1,6660489E+000	1,6668020E+000	1,675840403187721E-001	1,000000000000000E+000	-2,2628541E-001	40	2,7932943E-004
2	1	0	1	0	2,292714341728990E+005	1,6900318E+000	1,6907916E+000	2,135474507909410E-001	1,000000000000000E+000	-2,2171713E-001	40	3,6106425E-004
2	1	0	1	0	2,292954171766522E+005	1,7140148E+000	1,7147785E+000	2,625381123934671E-001	1,000000000000000E+000	-2,1601076E-001	40	4,5019473E-004
2	1	0	1	0	2,293194001804041E+005	1,7379979E+000	1,7387403E+000	3,141846202578940E-001	1,000000000000000E+000	-2,0909412E-001	40	5,4628548E-004
2	1	0	1	0	2,293433830841570E+005	1,7619807E+000	1,7627455E+000	3,670792719884552E-001	1,000000000000000E+000	-2,0092088E-001	40	6,4706733E-004
2	1	0	1	0	2,293673660879079E+005	1,7859639E+000	1,7867349E+000	4,185263962134096E-001	1,000000000000000E+000	-1,9149230E-001	40	7,4779574E-004
2	1	0	1	0	2,293913490916612E+005	1,8099467E+000	1,8107150E+000	4,651820222693441E-001	1,000000000000000E+000	-1,8087928E-001	40	8,4231206E-004
2	1	0	1	0	2,294153319954134E+005	1,8339294E+000	1,8346710E+000	5,036484664984533E-001	1,000000000000000E+000	-1,6923884E-001	40	9,2402927E-004
2	1	0	1	0	2,294393149991657E+005	1,8579127E+000	1,8586696E+000	5,298948443356188E-001	1,000000000000000E+000	-1,5681008E-001	40	9,8489947E-004
2	1	0	1	0	2,294632980029179E+005	1,8818955E+000	1,8826281E+000	5,421415606012507E-001	1,000000000000000E+000	-1,4391688E-001	40	1,0206510E-003
2	1	0	1	0	2,294872810066709E+005	1,9058785E+000	1,9066191E+000	5,375196363600960E-001	1,000000000000000E+000	-1,3093339E-001	40	1,0248452E-003
2	1	0	1	0	2,295112640104236E+005	1,9298615E+000	1,9306153E+000	5,162479419719652E-001	1,000000000000000E+000	-1,1826233E-001	40	9,9667616E-004
2	1	0	1	0	2,295352470141756E+005	1,9538444E+000	1,9545923E+000	4,812823337390366E-001	1,000000000000000E+000	-1,0627414E-001	40	9,4071077E-004
2	1	0	1	0	2,295592299179281E+005	1,9778277E+000	1,9785991E+000	4,369602232458807E-001	1,000000000000000E+000	-9,5247850E-002	40	8,6456910E-004
2	1	0	1	0	2,295832129216804E+005	2,0018103E+000	2,0025551E+000	3,886352146873846E-001	1,000000000000000E+000	-8,5341357E-002	40	7,7826343E-004
2	1	0	1	0	2,296071960254335E+005	2,0257933E+000	2,0265436E+000	3,416451792267099E-001	1,000000000000000E+000	-7,6587901E-002	40	6,9235888E-004
2	1	0	1	0	2,296311790291853E+005	2,0497763E+000	2,0505333E+000	2,987765218985885E-001	1,000000000000000E+000	-6,8915337E-002	40	6,1265123E-004
2	1	0	1	0	2,296551621329384E+005	2,0737593E+000	2,0745037E+000	2,606100766665991E-001	1,000000000000000E+000	-6,2214714E-002	40	5,4063654E-004
2	1	0	1	0	2,296791451366898E+005	2,0977426E+000	2,0984917E+000	2,275245829166552E-001	1,000000000000000E+000	-5,6368355E-002	40	4,7745844E-004
2	1	0	1	0	2,297031281404423E+005	2,1217253E+000	2,1224709E+000	1,990106295451151E-001	1,000000000000000E+000	-5,1259641E-002	40	4,2239425E-004
2	1	0	1	0	2,297271111441946E+005	2,1457083E+000	2,1464195E+000	1,745903734273138E-001	1,000000000000000E+000	-4,6784189E-002	40	3,7474418E-004
2	1	0	1	0	2,297510941479472E+005	2,1696913E+000	2,1704116E+000	1,539237124687762E-001	1,000000000000000E+000	-4,2848766E-002	40	3,3407781E-004
2	1	0	1	0	2,297750770517003E+005	2,1936741E+000	2,1943614E+000	1,365250503359394E-001	1,000000000000000E+000	-3,9368901E-002	40	2,9958531E-004
2	1	0	1	0	2,297990600554526E+005	2,2176571E+000	2,2183361E+000	1,219423456772883E-001	1,000000000000000E+000	-3,6271628E-002	40	2,7050910E-004
2	1	0	1	0	2,298230429592049E+005	2,2416401E+000	2,2423377E+000	1,097310756513123E-001	1,000000000000000E+000	-3,3495497E-002	40	2,4605411E-004
2	1	0	1	0	2,298470260629575E+005	2,2656229E+000	2,2663293E+000	9,951696222911366E-002	1,000000000000000E+000	-3,0987319E-002	40	2,2553821E-004
2	1	0	1	0	2,298710090667093E+005	2,2896061E+000	2,2903056E+000	9,086415970788431E-002	1,000000000000000E+000	-2,8704112E-002	40	2,0810669E-004
2	1	0	1	0	2,298949920704626E+005	2,3135889E+000	2,3143001E+000	8,350560192336132E-002	1,000000000000000E+000	-2,6612148E-002	40	1,9325702E-004
2	1	0	1	0	2,299189750742139E+005	2,3375721E+000	2,3382859E+000	7,719346262813909E-002	1,000000000000000E+000	-2,4683442E-002	40	1,8050038E-004
2	1	0	1	0	2,299429580779672E+005	2,3615549E+000	2,3622725E+000	7,176237132162311E-002	1,000000000000000E+000	-2,2895865E-002	40	1,6952227E-004
2	1	0	1	0	2,299669410817190E+005	2,3855381E+000	2,3862681E+000	6,704780323350201E-002	1,000000000000000E+000	-2,1229502E-002	40	1,5999403E-004
2	1	0	1	0	2,299909240854713E+005	2,4095206E+000	2,4102471E+000	6,301325547596549E-002	1,000000000000000E+000	-1,9667927E-002	40	1,5187751E-004
2	1	0	1	0	2,300149070892235E+005	2,4335039E+000	2,4342375E+000	5,959342438734622E-002	1,000000000000000E+000	-1,8195694E-002	40	1,4506455E-004
2	1	0	1	0	2,300388899929769E+005	2,4574864E+000	2,4582071E+000	5,654784710844857E-002	1,000000000000000E+000	-1,6800690E-002	40	1,3900633E-004
2	1	0	1	0	2,300628731967293E+005	2,4814699E+000	2,4821711E+000	5,369865350057434E-002	1,000000000000000E+000	-1,5476035E-002	40	1,3328924E-004
2	1	0	1	0	2,300868561004815E+005	2,5054526E+000	2,5061648E+000	5,098961611985803E-002	1,000000000000000E+000	-1,4218260E-002	40	1,2778839E-004
2	1	0	1	0	2,301108391042347E+005	2,5294359E+000	2,5301447E+000	4,844262503344043E-002	1,000000000000000E+000	-1,3023225E-002	40	1,2256685E-004
2	1	0	1	0	2,301349220080016E+005	2,5535188E+000	2,5542436E+000	4,601705043196969E-002	1,000000000000000E+000	-1,1884115E-002	41	1,1753875E-004
2	1	0	1	0	2,301589050117546E+005	2,5775018E+000	2,5782199E+000	4,386603948823276E-002	1,000000000000000E+000	-1,0803608E-002	41	1,1309629E-004
2	1	0	1	0	2,301828880155068E+005	2,6014843E+000	2,6022143E+000	4,196619426045578E-002	1,000000000000000E+000	-9,7717680E-003	41	1,0920503E-004
2	1	0	1	0	2,302068710192591E+005	2,6254675E+000	2,6262107E+000	4,041461285550801E-002	1,000000000000000E+000	-8,7815095E-003	41	1,0613729E-004
2	1	0	1	0	2,302308540230114E+005	2,6494508E+000	2,6501858E+000	3,898041570737110E-002	1,000000000000000E+000	-7,8258952E-003	41	1,0330535E-004
2	1	0	1	0	2,302548371267645E+005	2,6734335E+000	2,6741519E+000	3,738718446242545E-002	1,000000000000000E+000	-6,9067748E-003	41	9,9979014E-005
2	1	0	1	0	2,302788201305158E+005	2,6974165E+000	2,6981332E+000	3,576982168827159E-002	1,000000000000000E+000	-6,0267164E-003	41	9,6511743E-005
2	1	0	1	0	2,303028031342691E+005	2,7213993E+000	2,7221358E+000	3,435767811337220E-002	1,000000000000000E+000	-5,1830020E-003	41	9,3526265E-005
2	1	0	1	0	2,303267860380206E+005	2,7453823E+000	2,7460868E+000	3,317853130353071E-002	1,000000000000000E+000	-4,3704156E-003	41	9,1111127E-005
2	1	0	1	0	2,303507690417736E+005	2,7693653E+000	2,7700746E+000	3,224187736596745E-002	1,000000000000000E+000	-3,5833910E-003	41	8,9312409E-005
2	1	0	1	0	2,303747519455258E+005	2,7933483E+000	2,7940576E+000	3,155531422298091E-002	1,000000000000000E+000	-2,8158177E-003	41	8,8167362E-005
2	1	0	1	0	2,303987349492779E+005	2,8173311E+000	2,8180306E+000	3,115840603633749E-002	1,000000000000000E+000	-2,0611251E-003	41	8,7805340E-005
2	1	0	1	0	2,304227179530312E+005	2,8413143E+000	2,8420403E+000	3,091795574025162E-002	1,000000000000000E+000	-1,3133592E-003	41	8,7870074E-005
2	1	0	1	0	2,304467011567836E+005	2,8652971E+000	2,8659832E+000	3,043789815132197E-002	1,000000000000000E+000	-5,7386275E-004	41	8,7234504E-005
2	1	0	1	0	2,304706841605359E+005	2,8892806E+000	2,8899956E+000	2,976541757970456E-002	1,000000000000000E+000	1,5138900E-004	41	8,6021922E-005
2	1	0	1	0	2,304946671642885E+005	2,9132631E+000	2,9139786E+000	2,910125050176615E-002	1,000000000000000E+000	8,6020387E-004	41	8,4800420E-005
2	1	0	1	0	2,305186501680403E+005	2,9372461E+000	2,9379687E+000	2,849568983686047E-002	1,000000000000000E+000	1,5538721E-003	41	8,3719446E-005
2	1	0	1	0	2,305426331717935E+005	2,9612296E+000	2,9619288E+000	2,785445662617547E-002	1,000000000000000E+000	2,2326920E-003	41	8,2502920E-005
2	1	0	1	0	2,305666160755446E+005	2,9852121E+000	2,9859109E+000	2,731267405065305E-002	1,000000000000000E+000	2,8971252E-003	41	8,1553211E-005
2	1	0	1	1	2,305889001790318E+005	2,9924071E+000	2,9931026E+000	1,989371757384267E-002	1,000000000000000E+000	3,4628767E-003	41	5,9543938E-005
2	1	0	1	1	2,306128831827850E+005	2,9684238E+000	2,9691420E+000	1,470126819044587E-002	1,000000000000000E+000	3,8666425E-003	41	4,3650150E-005
2	1	0	1	1	2,306368661865368E+005	2,9444411E+000	2,9451721E+000	1,164333207788315E-002	1,000000000000000E+000	4,1768122E-003	41	3,4291617E-005
2	1	0	1	1	2,306608491902892E+005	2,9204581E+000	2,9211774E+000	9,503119650971965E-003	1,000000000000000E+000	4,4259545E-003	41	2,7760298E-005
2	1	0	1	1	2,306848321940415E+005	2,8964751E+000	2,8971841E+000	7,833388868563024E-003	1,000000000000000E+000	4,6300259E-003	41	2,2694770E-005
2	1	0	1	1	2,307088150977939E+005	2,8724921E+000	2,8732109E+000	6,496853218869789E-003	1,000000000000000E+000	4,7983676E-003	41	1,8666829E-005
2	1	0	1	1	2,307327981015460E+005	2,8485091E+000	2,8492253E+000	5,362531220410267E-003	1,000000000000000E+000	4,9370844E-003	41	1,5279060E-005
2	1	0	1	1	2,307567810052991E+005	2,8245261E+000	2,8252425E+000	4,440792091282939E-003	1,000000000000000E+000	5,0512324E-003	42	1,2546315E-005
2	1	0	1	1	2,307807640090517E+005	2,8005431E+000	2,8012891E+000	3,730341021578751E-003	1,000000000000000E+000	5,1457016E-003	42	1,0449764E-005
2	1	0	1	1	2,308047470128038E+005	2,7765601E+000	2,7772975E+000	3,103379309441386E-003	1,000000000000000E+000	5,2243406E-003	42	8,6190075E-006
2	1	0	1	1	2,308287300165561E+005	2,7525773E+000	2,7533133E+000	2,543536412734131E-003	1,000000000000000E+000	5,2887979E-003	42	7,0031529E-006
2	1	0	1	1	2,308527130203089E+005	2,7285943E+000	2,7293296E+000	2,031096671484545E-003	1,000000000000000E+000	5,3405059E-003	42	5,5435321E-006
2	1	0	1	1	2,308766960240612E+005	2,7046111E+000	2,7053177E+000	1,517106016962651E-003	1,000000000000000E+000	5,3797103E-003	42	4,1042540E-006
2	1	0	1	1	2,309006790278135E+005	2,6806283E+000	2,6813672E+000	9,966591387712762E-004	1,000000000000000E+000	5,4070144E-003	42	2,6724090E-006
2	1	0	1	1	2,309246619315660E+005	2,6566455E+000	2,6573722E+000	4,384884909310071E-004	1,000000000000000E+000	5,4213773E-003	42	1,1652271E-006
2	0	0	1	1	2,309486447353181E+005	2,6326623E+000	2,6333733E+000	-2,818370639588864E-004	1,000000000000000E+000	5,4201656E-003	42	-7,4218218E-007
2	0	0	1	1	2,309726277390702E+005	2,6086795E+000	2,6093802E+000	-9,325601597479395E-004	1,000000000000000E+000	5,4018218E-003	42	-2,4334040E-006
2	0	0	1	1	2,309966106428226E+005	2,5846965E+000	2,5854392E+000	-1,292003179347969E-003	1,000000000000000E+000	5,3713834E-003	42	-3,3403958E-006
2	0	0	1	1	2,310205936465756E+005	2,5607135E+000	2,5614564E+000	-1,536457859142068E-003	1,000000000000000E+000	5,3343978E-003	42	-3,9355700E-006
2	0	0	1	1	2,310445766503285E+005	2,5367305E+000	2,5374568E+000	-1,910009368255493E-003	1,000000000000000E+000	5,2900282E-003	42	-4,8465663E-006
2	0	0	1	1	2,310685596540808E+005	2,5127475E+000	2,5134611E+000	-2,378135751947626E-003	1,000000000000000E+000	5,2355109E-003	42	-5,9773515E-006
2	0	0	1	1	2,310925426578326E+005	2,4887645E+000	2,4894817E+000	-2,839291641348482E-003	1,000000000000000E+000	5,1697469E-003	42	-7,0683645E-006
2	0	0	1	1	2,311165256615854E+005	2,4647815E+000	2,4654987E+000	-3,341033815872811E-003	1,000000000000000E+000	5,0925282E-003	42	-8,2373144E-006
2	0	0	1	1	2,311405086653382E+005	2,4407988E+000	2,4415247E+000	-3,855293023898781E-003	1,000000000000000E+000	5,0031589E-003	42	-9,4127936E-006
2	0	0	1	1	2,311644916690905E+005	2,4168155E+000	2,4175344E+000	-4,344685869471697E-003	1,000000000000000E+000	4,9018296E-003	42	-1,0503427E-005
2	0	0	1	1	2,311884745728420E+005	2,3928325E+000	2,3935785E+000	-4,782148996328395E-003	1,000000000000000E+000	4,7894022E-003	42	-1,1446449E-005
2	0	0	1	1	2,312124575765948E+005	2,3688498E+000	2,3695638E+000	-5,275971029242391E-003	1,000000000000000E+000	4,6659061E-003	42	-1,2501750E-005
2	0	0	1	1	2,312364403803470E+005	2,3448668E+000	2,3455849E+000	-5,842082491762476E-003	1,000000000000000E+000	4,5297188E-003	42	-1,3703100E-005
2	0	0	1	1	2,312604233840993E+005	2,3208838E+000	2,3215866E+000	-6,504715735235589E-003	1,000000000000000E+000	4,3786047E-003	42	-1,5101261E-005
2	0	0	1	1	2,312844064878519E+005	2,2969010E+000	2,2976217E+000	-7,269396213346963E-003	1,000000000000000E+000	4,2103743E-003	42	-1,6702323E-005
2	0	0	1	1	2,313083894916050E+005	2,2729177E+000	2,2736328E+000	-8,106737572192574E-003	1,000000000000000E+000	4,0229484E-003	42	-1,8431745E-005
2	0	0	1	1	2,313323723953571E+005	2,2489347E+000	2,2496223E+000	-9,035748375586603E-003	1,000000000000000E+000	3,8142237E-003	42	-2,0327021E-005
2	0	0	1	1	2,313563553991094E+005	2,2249520E+000	2,2256863E+000	-1,004967900002110E-002	1,000000000000000E+000	3,5822792E-003	41	-2,2367432E-005
2	0	0	1	1	2,313803384028617E+005	2,2009690E+000	2,2016926E+000	-1,118330515866039E-002	1,000000000000000E+000	3,3244367E-003	41	-2,4622201E-005
2	0	0	1	1	2,314043214066145E+005	2,1769860E+000	2,1777105E+000	-1,247050378736020E-002	1,000000000000000E+000	3,0378790E-003	41	-2,7157148E-005
2	0	0	1	1	2,314283044103663E+005	2,1530027E+000	2,1537056E+000	-1,387171672765902E-002	1,000000000000000E+000	2,7192242E-003	41	-2,9875593E-005
2	0	0	1	1	2,314522872141190E+005	2,1290200E+000	2,1297560E+000	-1,542328906579132E-002	1,000000000000000E+000	2,3650485E-003	41	-3,2847842E-005
2	0	0	1	1	2,314762702178713E+005	2,1050372E+000	2,1057692E+000	-1,716720518737583E-002	1,000000000000000E+000	1,9710562E-003	41	-3,6150170E-005
2	0	0	1	1	2,315002532216236E+005	2,0810540E+000	2,0817778E+000	-1,911837569243088E-002	1,000000000000000E+000	1,5328762E-003	41	-3,9800212E-005
2	0	0	1	1	2,315231369252044E+005	2,0581703E+000	2,0588932E+000	-2,115934903891215E-002	2,000000000000000E+000	1,0695931E-003	41	-4,3564840E-005
2	0	0	1	1	2,315471199289574E+005	2,0341876E+000	2,0348990E+000	-2,348426644726387E-002	2,000000000000000E+000	5,3175638E-004	41	-4,7788111E-005
2	0	0	1	1	2,315711029327093E+005	2,0102043E+000	2,0109394E+000	-2,602251983415754E-002	2,000000000000000E+000	-6,4439962E-005	41	-5,2329709E-005
2	0	0	1	1	2,315950859364616E+005	1,9862217E+000	1,9869474E+000	-2,888267968504910E-002	2,000000000000000E+000	-7,2550442E-004	41	-5,7388366E-005
2	0	0	1	1	2,316190689402139E+005	1,9622387E+000	1,9629755E+000	-3,191731852910407E-002	2,000000000000000E+000	-1,4571382E-003	41	-6,2652914E-005
2	0	0	1	1	2,316430518439664E+005	1,9382557E+000	1,9389771E+000	-3,529522641390354E-002	2,000000000000000E+000	-2,2662294E-003	41	-6,8436639E-005
2	0	0	1	1	2,316670348477189E+005	1,9142728E+000	1,9149977E+000	-3,896336726094274E-002	2,000000000000000E+000	-3,1592385E-003	41	-7,4614756E-005
2	0	0	1	1	2,316910178514710E+005	1,8902894E+000	1,8910190E+000	-4,309464418576536E-002	2,000000000000000E+000	-4,1457103E-003	41	-8,1492792E-005
2	0	0	1	1	2,317150007552233E+005	1,8663067E+000	1,8670297E+000	-4,766608814882656E-002	2,000000000000000E+000	-5,2365186E-003	41	-8,8993998E-005
2	0	0	1	1	2,317389837589763E+005	1,8423237E+000	1,8430265E+000	-5,280310708643521E-002	2,000000000000000E+000	-6,4436388E-003	41	-9,7317527E-005
2	0	0	1	1	2,317629666627287E+005	1,8183405E+000	1,8190743E+000	-5,846378654460205E-002	2,000000000000000E+000	-7,7796476E-003	41	-1,0634997E-004
2	0	0	1	1	2,317869496664810E+005	1,7943578E+000	1,7950863E+000	-6,485728782829514E-002	2,000000000000000E+000	-9,2605734E-003	41	-1,1642442E-004
2	0	0	1	1	2,318109326702333E+005	1,7703748E+000	1,7710922E+000	-7,191549524782404E-002	2,000000000000000E+000	-1,0903210E-002	41	-1,2736897E-004
2	0	0	1	1	2,318349155739858E+005	1,7463918E+000	1,7471215E+000	-7,978943291543139E-002	2,000000000000000E+000	-1,2724689E-002	41	-1,3940183E-004
2	0	0	1	1	2,318588985777386E+005	1,7224089E+000	1,7231354E+000	-8,850837714837212E-002	2,000000000000000E+000	-1,4744907E-002	41	-1,5251192E-004
2	0	0	1	1	2,318828815814909E+005	1,6984259E+000	1,6991737E+000	-9,808973717063951E-002	2,000000000000000E+000	-1,6984049E-002	41	-1,6667150E-004
2	0	0	1	1	2,319068646852430E+005	1,6744428E+000	1,6751745E+000	-1,084838152271775E-001	2,000000000000000E+000	-1,9462669E-002	40	-1,8172932E-004
2	0	0	1	1	2,319308474889952E+005	1,6504601E+000	1,6511955E+000	-1,199711668750814E-001	2,000000000000000E+000	-2,2203412E-002	40	-1,9809585E-004
2	0	0	1	1	2,319548305927475E+005	1,6264769E+000	1,6272287E+000	-1,324953550791259E-001	2,000000000000000E+000	-2,5232157E-002	40	-2,1560024E-004
2	0	0	1	1	2,319788135964999E+005	1,6024938E+000	1,6032345E+000	-1,464304193130815E-001	2,000000000000000E+000	-2,8577801E-002	40	-2,3476231E-004
2	0	0	1	1	2,320027965002529E+005	1,5785110E+000	1,5792369E+000	-1,618589107717212E-001	2,000000000000000E+000	-3,2275036E-002	40	-2,5561356E-004
2	0	0	1	1	2,320267795040057E+005	1,5545280E+000	1,5552533E+000	-1,794169658367462E-001	2,000000000000000E+000	-3,6367439E-002	40	-2,7903882E-004
2	0	0	1	1	2,320507624077576E+005	1,5305449E+000	1,5312926E+000	-1,992363061016109E-001	2,000000000000000E+000	-4,0907621E-002	40	-3,0508908E-004
2	0	0	1	1	2,320747454115096E+005	1,5065620E+000	1,5073031E+000	-2,215903489515965E-001	2,000000000000000E+000	-4,5953389E-002	40	-3,3400382E-004
2	0	0	1	1	2,320987284152629E+005	1,4825790E+000	1,4832978E+000	-2,461049040982686E-001	2,000000000000000E+000	-5,1567104E-002	40	-3,6504687E-004
2	0	0	1	1	2,321227114190147E+005	1,4585960E+000	1,4593153E+000	-2,695334262057851E-001	2,000000000000000E+000	-5,7759330E-002	40	-3,9333425E-004
2	0	0	1	1	2,321466943227677E+005	1,4346131E+000	1,4353209E+000	-2,885475313242551E-001	2,000000000000000E+000	-6,4460665E-002	40	-4,1415828E-004
2	0	0	1	1	2,321706772265201E+005	1,4106302E+000	1,4113753E+000	-3,022496621081068E-001	2,000000000000000E+000	-7,1557827E-002	40	-4,2658771E-004
2	0	0	1	1	2,321946602302720E+005	1,3866472E+000	1,3873396E+000	-3,108936905848414E-001	2,000000000000000E+000	-7,8923494E-002	40	-4,3131513E-004
2	0	0	1	1	2,322186432340243E+005	1,3626642E+000	1,3633685E+000	-3,161884983720906E-001	2,000000000000000E+000	-8,6450979E-002	40	-4,3108145E-004
2	0	0	1	1	2,322426262377762E+005	1,3386812E+000	1,3393750E+000	-3,194370818135250E-001	2,000000000000000E+000	-9,4080336E-002	40	-4,2784604E-004
2	0	0	1	1	2,322666092415294E+005	1,3146982E+000	1,3154271E+000	-3,207591919612263E-001	2,000000000000000E+000	-1,0176473E-001	40	-4,2193531E-004
2	0	0	1	1	2,322905921452821E+005	1,2907153E+000	1,2914131E+000	-3,201152098536734E-001	2,000000000000000E+000	-1,0945608E-001	40	-4,1340097E-004
2	0	0	1	1	2,323145751490344E+005	1,2667323E+000	1,2674562E+000	-3,174293565313797E-001	2,000000000000000E+000	-1,1710668E-001	40	-4,0232780E-004
2	0	0	1	1	2,323385580527871E+005	1,2427495E+000	1,2434756E+000	-3,133431661088011E-001	2,000000000000000E+000	-1,2467613E-001	40	-3,8963457E-004
2	0	0	1	1	2,323625410565394E+005	1,2187665E+000	1,2194779E+000	-3,080207769301873E-001	2,000000000000000E+000	-1,3213229E-001	40	-3,7562451E-004
2	0	0	1	1	2,323865240602912E+005	1,1947833E+000	1,1955273E+000	-3,018667839410423E-001	2,000000000000000E+000	-1,3945051E-001	40	-3,6088997E-004
2	0	0	1	1	2,324105069640437E+005	1,1708004E+000	1,1715409E+000	-2,953960582848492E-001	2,000000000000000E+000	-1,4661704E-001	40	-3,4606855E-004
2	0	0	1	1	2,324344899677960E+005	1,1468174E+000	1,1475527E+000	-2,885639020536481E-001	2,000000000000000E+000	-1,5362318E-001	40	-3,3114231E-004
2	0	0	1	1	2,324584729715488E+005	1,1228346E+000	1,1235597E+000	-2,818192261436886E-001	2,000000000000000E+000	-1,6046560E-001	40	-3,1664074E-004
2	0	0	1	1	2,324824558753008E+005	1,0988516E+000	1,0995920E+000	-2,751237991100330E-001	2,000000000000000E+000	-1,6714607E-001	40	-3,0252393E-004
2	0	0	1	1	2,325064388790529E+005	1,0748686E+000	1,0756094E+000	-2,688315183656240E-001	2,000000000000000E+000	-1,7367141E-001	40	-2,8915773E-004
2	0	0	1	1	2,325304217828058E+005	1,0508857E+000	1,0516384E+000	-2,628624112596725E-001	2,000000000000000E+000	-1,8004887E-001	40	-2,7643619E-004
2	0	0	1	1	2,325544047865586E+005	1,0269027E+000	1,0276232E+000	-2,574661436778185E-001	2,000000000000000E+000	-1,8628968E-001	40	-2,6457818E-004
2	0	0	1	1	2,325783877903109E+005	1,0029197E+000	1,0036552E+000	-2,526273511717010E-001	2,000000000000000E+000	-1,9240782E-001	40	-2,5355077E-004
2	0	0	1	1	2,326008722938288E+005	1,0195078E+000	1,0202627E+000	-2,089738962719419E-001	2,000000000000000E+000	-1,9756725E-001	40	-2,1320827E-004
2	0	0	1	1	2,326248552975813E+005	1,0434908E+000	1,0442202E+000	-1,812172394095083E-001	2,000000000000000E+000	-2,0222178E-001	40	-1,8923070E-004
2	0	0	1	1	2,326488383013341E+005	1,0674738E+000	1,0682048E+000	-1,607777241052495E-001	2,000000000000000E+000	-2,0630954E-001	40	-1,7174354E-004
2	0	0	1	1	2,326728213050859E+005	1,0914568E+000	1,0921829E+000	-1,444007777587462E-001	2,000000000000000E+000	-2,0995998E-001	40	-1,5771206E-004
2	0	0	1	1	2,326968043088382E+005	1,1154397E+000	1,1161834E+000	-1,306245809747637E-001	2,000000000000000E+000	-2,1325083E-001	40	-1,4580099E-004
2	0	0	1	1	2,327207873125905E+005	1,1394227E+000	1,1401870E+000	-1,186624746295948E-001	2,000000000000000E+000	-2,1623388E-001	40	-1,3529741E-004
2	0	0	1	1	2,327447703163438E+005	1,1634058E+000	1,1641378E+000	-1,082190380554273E-001	2,000000000000000E+000	-2,1894965E-001	40	-1,2598188E-004
2	0	0	1	1	2,327687532200955E+005	1,1873887E+000	1,1881183E+000	-9,874972366256518E-002	2,000000000000000E+000	-2,2142649E-001	40	-1,1732636E-004
2	0	0	1	1	2,327927362238477E+005	1,2113717E+000	1,2120806E+000	-9,018475695321826E-002	2,000000000000000E+000	-2,2368780E-001	40	-1,0931119E-004
2	0	0	1	1	2,328167192276000E+005	1,2353548E+000	1,2361012E+000	-8,232349357261626E-002	2,000000000000000E+000	-2,2575252E-001	40	-1,0176017E-004
2	0	0	1	1	2,328407021313532E+005	1,2593374E+000	1,2600557E+000	-7,496959948711712E-002	2,000000000000000E+000	-2,2763537E-001	40	-9,4465868E-005
2	0	0	1	1	2,328646851351054E+005	1,2833204E+000	1,2840341E+000	-6,789089915606272E-002	2,000000000000000E+000	-2,2934569E-001	40	-8,7174230E-005
2	0	0	1	1	2,328886681388577E+005	1,3073033E+000	1,3080108E+000	-6,095652907660809E-002	2,000000000000000E+000	-2,3088841E-001	40	-7,9731799E-005
2	0	0	1	1	2,329126511426102E+005	1,3312865E+000	1,3319961E+000	-5,396591217420399E-002	2,000000000000000E+000	-2,3226415E-001	40	-7,1882387E-005
2	0	0	1	1	2,329366341463630E+005	1,3552696E+000	1,3559780E+000	-4,700343822369990E-002	2,000000000000000E+000	-2,3347169E-001	41	-6,3735628E-005
2	0	0	1	1	2,329606171501148E+005	1,3792526E+000	1,3799491E+000	-3,956354616357438E-002	2,000000000000000E+000	-2,3450798E-001	41	-5,4595679E-005
2	0	0	1	1	2,329846001538681E+005	1,4032354E+000	1,4039531E+000	-3,179658622215495E-002	2,000000000000000E+000	-2,3536222E-001	41	-4,4640914E-005
2	0	0	1	1	2,330085830576196E+005	1,4272184E+000	1,4279252E+000	-2,352448277277552E-002	2,000000000000000E+000	-2,3602416E-001	41	-3,3591201E-005
2	0	0	1	1	2,330325660613719E+005	1,4512013E+000	1,4519124E+000	-1,465757595723907E-002	2,000000000000000E+000	-2,3648092E-001	41	-2,1281516E-005
2	0	0	1	1	2,330565490651245E+005	1,4751844E+000	1,4759012E+000	-5,070969540895254E-003	2,000000000000000E+000	-2,3671640E-001	41	-7,4842501E-006
2	1	0	1	1	2,330805319688766E+005	1,4991672E+000	1,4999102E+000	5,408206291056733E-003	2,000000000000000E+000	-2,3671222E-001	42	8,1118242E-006
2	1	0	1	1	2,331045149726298E+005	1,5231502E+000	1,5238757E+000	1,689461459161934E-002	2,000000000000000E+000	-2,3644482E-001	41	2,5745292E-005
2	1	0	1	1	2,331284979763823E+005	1,5471332E+000	1,5478520E+000	2,987141137531651E-002	2,000000000000000E+000	-2,3588465E-001	41	4,6236524E-005
2	1	0	1	1	2,331524809801343E+005	1,5711162E+000	1,5718163E+000	4,474766613376263E-002	2,000000000000000E+000	-2,3499136E-001	41	7,0335111E-005
2	1	0	1	1	2,331764639838873E+005	1,5950993E+000	1,5957816E+000	6,293739253448360E-002	2,000000000000000E+000	-2,3370758E-001	41	1,0043433E-004
2	1	0	1	1	2,332004469876392E+005	1,6190822E+000	1,6198260E+000	9,072090453681314E-002	2,000000000000000E+000	-2,3188889E-001	41	1,4695208E-004
2	1	0	1	1	2,332244299913924E+005	1,6430651E+000	1,6437825E+000	1,295978880611915E-001	2,000000000000000E+000	-2,2925903E-001	40	2,1303074E-004
2	1	0	1	1	2,332484128951440E+005	1,6670481E+000	1,6677647E+000	1,736688385051650E-001	2,000000000000000E+000	-2,2562696E-001	40	2,8963876E-004
2	1	0	1	1	2,332723959988961E+005	1,6910310E+000	1,6917650E+000	2,211673668599787E-001	2,000000000000000E+000	-2,2089709E-001	40	3,7416321E-004
2	1	0	1	1	2,332963789026488E+005	1,7150142E+000	1,7157661E+000	2,717729773056663E-001	2,000000000000000E+000	-2,1498877E-001	40	4,6629886E-004
2	1	0	1	1	2,333203619064009E+005	1,7389971E+000	1,7397280E+000	3,250082591006969E-001	2,000000000000000E+000	-2,0783447E-001	40	5,6542596E-004
2	1	0	1	1	2,333443449101532E+005	1,7629801E+000	1,7637354E+000	3,785402945112297E-001	2,000000000000000E+000	-1,9938852E-001	40	6,6764490E-004
2	1	0	1	1	2,333683278139062E+005	1,7869630E+000	1,7877009E+000	4,301100181464728E-001	2,000000000000000E+000	-1,8968077E-001	40	7,6890807E-004
2	1	0	1	1	2,333923108176589E+005	1,8109457E+000	1,8117036E+000	4,767044382449246E-001	2,000000000000000E+000	-1,7878671E-001	40	8,6364715E-004
2	1	0	1	1	2,334162938214112E+005	1,8349288E+000	1,8356316E+000	5,145835223126598E-001	2,000000000000000E+000	-1,6687430E-001	40	9,4458577E-004
2	1	0	1	1	2,334402768251635E+005	1,8589118E+000	1,8596444E+000	5,396515762654408E-001	2,000000000000000E+000	-1,5419866E-001	40	1,0035600E-003
2	1	0	1	1	2,334642598289154E+005	1,8828948E+000	1,8836555E+000	5,496236237626899E-001	2,000000000000000E+000	-1,4109671E-001	40	1,0353016E-003
2	1	0	1	1	2,334882428326686E+005	1,9068778E+000	1,9076135E+000	5,418929928103902E-001	2,000000000000000E+000	-1,2797090E-001	40	1,0337224E-003
2	1	0	1	1	2,335122258364204E+005	1,9308608E+000	1,9315991E+000	5,172519660959201E-001	2,000000000000000E+000	-1,1523680E-001	40	9,9912344E-004
2	1	0	1	1	2,335362087401738E+005	1,9548439E+000	1,9555589E+000	4,792912768492394E-001	2,000000000000000E+000	-1,0326206E-001	40	9,3728234E-004
2	1	0	1	1	2,335601917439257E+005	1,9788268E+000	1,9795599E+000	4,330598690250804E-001	2,000000000000000E+000	-9,2307672E-002	40	8,5726794E-004
2	1	0	1	1	2,335841749476776E+005	2,0028098E+000	2,0035403E+000	3,838366127507271E-001	2,000000000000000E+000	-8,2510255E-002	40	7,6903211E-004
2	1	0	1	1	2,336081577514298E+005	2,0267925E+000	2,0274990E+000	3,363813271301019E-001	2,000000000000000E+000	-7,3878594E-002	40	6,8201282E-004
2	1	0	1	1	2,336321407551825E+005	2,0507755E+000	2,0514936E+000	2,933783727575259E-001	2,000000000000000E+000	-6,6335201E-002	40	6,0186390E-004
2	1	0	1	1	2,336561238589355E+005	2,0747583E+000	2,0754809E+000	2,557610649886328E-001	2,000000000000000E+000	-5,9758488E-002	40	5,3082721E-004
2	1	0	1	1	2,336801068626877E+005	2,0987415E+000	2,0994771E+000	2,231744314699808E-001	2,000000000000000E+000	-5,4023530E-002	40	4,6854961E-004
2	1	0	1	1	2,337040898664400E+005	2,1227243E+000	2,1234500E+000	1,952406876077863E-001	2,000000000000000E+000	-4,9012929E-002	40	4,1458383E-004
2	1	0	1	1	2,337280728701926E+005	2,1467073E+000	2,1474149E+000	1,714530306213499E-001	2,000000000000000E+000	-4,4621021E-002	40	3,6818080E-004
2	1	0	1	1	2,337520558739449E+005	2,1706905E+000	2,1714094E+000	1,511988099869157E-001	2,000000000000000E+000	-4,0756188E-002	40	3,2831452E-004
2	1	0	1	1	2,337760388776977E+005	2,1946735E+000	2,1953773E+000	1,341234610545495E-001	2,000000000000000E+000	-3,7337732E-002	40	2,9445160E-004
2	1	0	1	1	2,338000218814490E+005	2,2186565E+000	2,2193415E+000	1,199224627073008E-001	2,000000000000000E+000	-3,4293301E-002	40	2,6614891E-004
2	1	0	1	1	2,338240048852023E+005	2,2426393E+000	2,2433167E+000	1,080061392241471E-001	2,000000000000000E+000	-3,1561352E-002	40	2,4229196E-004
2	1	0	1	1	2,338479880889545E+005	2,2666225E+000	2,2673168E+000	9,797022289584723E-002	2,000000000000000E+000	-2,9091710E-002	40	2,2212953E-004
2	1	0	1	1	2,338719709927067E+005	2,2906051E+000	2,2912836E+000	8,953167819877428E-002	2,000000000000000E+000	-2,6842937E-002	40	2,0514247E-004
2	1	0	1	1	2,338959539964588E+005	2,3145883E+000	2,3152778E+000	8,228263202044678E-002	2,000000000000000E+000	-2,4781637E-002	40	1,9050715E-004
2	1	0	1	1	2,339199368002120E+005	2,3385711E+000	2,3392811E+000	7,612678756563063E-002	2,000000000000000E+000	-2,2880388E-002	40	1,7808196E-004
2	1	0	1	1	2,339439198039644E+005	2,3625541E+000	2,3632338E+000	7,075875825130507E-002	2,000000000000000E+000	-2,1117106E-002	40	1,6721949E-004
2	1	0	1	1	2,339679028077167E+005	2,3865373E+000	2,3872309E+000	6,614419066863068E-002	2,000000000000000E+000	-1,9473609E-002	40	1,5790145E-004
2	1	0	1	1	2,339918858114695E+005	2,4105201E+000	2,4112236E+000	6,216551904322176E-002	2,000000000000000E+000	-1,7933369E-002	40	1,4989497E-004
2	1	0	1	1	2,340158688152218E+005	2,4345031E+000	2,4352183E+000	5,875953671609251E-002	2,000000000000000E+000	-1,6480803E-002	40	1,4309230E-004
2	1	0	1	1	2,340398519189749E+005	2,4584863E+000	2,4591925E+000	5,578752481002824E-002	2,000000000000000E+000	-1,5104258E-002	40	1,3719227E-004
2	1	0	1	1	2,340638350227261E+005	2,4824691E+000	2,4831891E+000	5,293260052848120E-002	2,000000000000000E+000	-1,3797490E-002	40	1,3144166E-004
2	1	0	1	1	2,340878180264784E+005	2,5064521E+000	2,5071185E+000	5,024249768485012E-002	2,000000000000000E+000	-1,2557110E-002	40	1,2596390E-004
2	1	0	1	1	2,341118010302312E+005	2,5304351E+000	2,5311291E+000	4,764631810592235E-002	2,000000000000000E+000	-1,1379986E-002	41	1,2059898E-004
2	1	0	1	1	2,341357838339834E+005	2,5544176E+000	2,5551162E+000	4,534799320562871E-002	2,000000000000000E+000	-1,0261968E-002	41	1,1586939E-004
2	1	0	1	1	2,341597668377355E+005	2,5784006E+000	2,5791202E+000	4,321380959750010E-002	2,000000000000000E+000	-9,1971783E-003	41	1,1145361E-004
2	1	0	1	1	2,341837497414885E+005	2,6023839E+000	2,6030955E+000	4,133239119280219E-002	2,000000000000000E+000	-8,1808353E-003	41	1,0759216E-004
2	1	0	1	1	2,342077327452411E+005	2,6263664E+000	2,6270864E+000	3,981220883584768E-002	2,000000000000000E+000	-7,2055124E-003	41	1,0459012E-004
2	1	0	1	1	2,342317157489934E+005	2,6503496E+000	2,6510653E+000	3,836801702118187E-002	2,000000000000000E+000	-6,2646973E-003	41	1,0171612E-004
2	1	0	1	1	2,342556989527456E+005	2,6743329E+000	2,6750391E+000	3,677402404155994E-002	2,000000000000000E+000	-5,3603984E-003	41	9,8371951E-005
2	1	0	1	1	2,342796819564980E+005	2,6983156E+000	2,6990211E+000	3,516291547374689E-002	2,000000000000000E+000	-4,4949488E-003	41	9,4905452E-005
2	1	0	1	1	2,343036649602507E+005	2,7222986E+000	2,7230079E+000	3,380486291731444E-002	2,000000000000000E+000	-3,6651916E-003	41	9,2050912E-005
2	1	0	1	1	2,343276479640026E+005	2,7462819E+000	2,7469842E+000	3,262105672419330E-002	2,000000000000000E+000	-2,8657529E-003	41	8,9609530E-005
2	1	0	1	1	2,343516309677558E+005	2,7702649E+000	2,7709615E+000	3,172635301588496E-002	2,000000000000000E+000	-2,0913836E-003	41	8,7912500E-005
2	1	0	1	1	2,343756138715073E+005	2,7942474E+000	2,7949364E+000	3,105116247953192E-002	2,000000000000000E+000	-1,3358803E-003	41	8,6786022E-005
2	1	0	1	1	2,343995968752599E+005	2,8182304E+000	2,8189285E+000	3,067205687697111E-002	2,000000000000000E+000	-5,9300818E-004	41	8,6462336E-005
2	1	0	1	1	2,344235797790121E+005	2,8422134E+000	2,8429279E+000	3,040296755583513E-002	2,000000000000000E+000	1,4266232E-004	41	8,6433443E-005
2	1	0	1	1	2,344475628827647E+005	2,8661966E+000	2,8669016E+000	2,991792945183945E-002	2,000000000000000E+000	8,6994917E-004	41	8,5771760E-005
2	1	0	1	1	2,344715458865179E+005	2,8901796E+000	2,8908739E+000	2,926417642779867E-002	2,000000000000000E+000	1,5829318E-003	41	8,4599043E-005
2	1	0	1	1	2,344955288902703E+005	2,9141624E+000	2,9148617E+000	2,859740559548060E-002	2,000000000000000E+000	2,2800525E-003	41	8,3357481E-005
2	1	0	1	1	2,345195118940223E+005	2,9381454E+000	2,9388654E+000	2,798985896965611E-002	2,000000000000000E+000	2,9616475E-003	41	8,2258426E-005
2	1	0	1	1	2,345434948977749E+005	2,9621284E+000	2,9628487E+000	2,736253483244486E-002	2,000000000000000E+000	3,6283897E-003	41	8,1071048E-005
2	1	0	1	1	2,345674779015267E+005	2,9861114E+000	2,9868324E+000	2,680371883002458E-002	2,000000000000000E+000	4,2810398E-003	41	8,0058213E-005
2	1	0	1	0	2,345898621050292E+005	2,9914081E+000	2,9921069E+000	1,907015960606110E-002	2,000000000000000E+000	4,8311646E-003	41	5,7059955E-005
2	1	0	1	0	2,346138451087814E+005	2,9674249E+000	2,9681251E+000	1,404365274832070E-002	2,000000000000000E+000	5,2179638E-003	41	4,1683317E-005
2	1	0	1	0	2,346378281125342E+005	2,9434416E+000	2,9441578E+000	1,107996200996955E-002	2,000000000000000E+000	5,5138837E-003	41	3,2621156E-005
2	1	0	1	0	2,346618111162871E+005	2,9194586E+000	2,9201455E+000	8,989184602659794E-003	2,000000000000000E+000	5,7500256E-003	41	2,6249727E-005
2	1	0	1	0	2,346857941200393E+005	2,8954759E+000	2,8961680E+000	7,368847667007565E-003	2,000000000000000E+000	5,9422120E-003	41	2,1341421E-005
2	1	0	1	0	2,347097771237916E+005	2,8714929E+000	2,8721771E+000	6,063980837375096E-003	2,000000000000000E+000	6,0994853E-003	41	1,7416827E-005
2	1	0	1	0	2,347337601275439E+005	2,8475096E+000	2,8482189E+000	4,992575130800508E-003	2,000000000000000E+000	6,2284353E-003	41	1,4219947E-005
2	1	0	1	0	2,347577431312967E+005	2,8235271E+000	2,8242035E+000	4,108224900019608E-003	2,000000000000000E+000	6,3337237E-003	42	1,1602463E-005
2	1	0	1	0	2,347817260350492E+005	2,7995439E+000	2,8002286E+000	3,422346093829159E-003	2,000000000000000E+000	6,4204452E-003	42	9,5833511E-006
2	1	0	1	0	2,348057090388015E+005	2,7755609E+000	2,7762482E+000	2,808243138588663E-003	2,000000000000000E+000	6,4921645E-003	42	7,7963796E-006
2	1	0	1	0	2,348296919425540E+005	2,7515783E+000	2,7522478E+000	2,279649396693825E-003	2,000000000000000E+000	6,5502105E-003	42	6,2741601E-006
2	1	0	1	0	2,348536749463058E+005	2,7275951E+000	2,7282934E+000	1,771646572273616E-003	2,000000000000000E+000	6,5956563E-003	42	4,8335719E-006
2	1	0	1	0	2,348776579500581E+005	2,7036121E+000	2,7043288E+000	1,294099177947622E-003	2,000000000000000E+000	6,6291937E-003	42	3,4996697E-006
2	1	0	1	0	2,349016409538105E+005	2,6796293E+000	2,6803315E+000	7,864728987294883E-004	2,000000000000000E+000	6,6510309E-003	42	2,1080079E-006
2	1	0	1	0	2,349256238575637E+005	2,6556458E+000	2,6563432E+000	2,243764411480834E-004	2,000000000000000E+000	6,6603278E-003	42	5,9602081E-007
2	0	0	1	0	2,349496068613159E+005	2,6316628E+000	2,6323476E+000	-4,866242078966137E-004	2,000000000000000E+000	6,6542625E-003	42	-1,2809641E-006
2	0	0	1	0	2,349735898650682E+005	2,6076801E+000	2,6083837E+000	-1,103105117846909E-003	2,000000000000000E+000	6,6316752E-003	42	-2,8773213E-006
2	0	0	1	0	2,349975728688203E+005	2,5836968E+000	2,5844080E+000	-1,463969350213484E-003	2,000000000000000E+000	6,5973778E-003	42	-3,7834941E-006
2	0	0	1	0	2,350215557725737E+005	2,5597141E+000	2,5604024E+000	-1,693701884705481E-003	2,000000000000000E+000	6,5566641E-003	42	-4,3365585E-006
2	0	0	1	0	2,350455387763251E+005	2,5357308E+000	2,5364184E+000	-2,066157252143114E-003	2,000000000000000E+000	6,5087201E-003	42	-5,2406394E-006
2	0	0	1	0	2,350695216800785E+005	2,5117483E+000	2,5124226E+000	-2,520793821032176E-003	2,000000000000000E+000	6,4506889E-003	42	-6,3332991E-006
2	0	0	1	0	2,350935046838298E+005	2,4877653E+000	2,4884524E+000	-2,981172284409445E-003	2,000000000000000E+000	6,3816085E-003	42	-7,4185054E-006
2	0	0	1	0	2,351174876875826E+005	2,4637823E+000	2,4644566E+000	-3,476892291537810E-003	2,000000000000000E+000	6,3009909E-003	42	-8,5686497E-006
2	0	0	1	0	2,351414705913347E+005	2,4397995E+000	2,4404840E+000	-3,969579927542482E-003	2,000000000000000E+000	6,2085302E-003	42	-9,6876965E-006
2	0	0	1	0	2,351654535950870E+005	2,4158165E+000	2,4165132E+000	-4,461437495270955E-003	2,000000000000000E+000	6,1041010E-003	42	-1,0781123E-005
2	0	0	1	0	2,351894365988402E+005	2,3918333E+000	2,3925245E+000	-4,907517918801618E-003	2,000000000000000E+000	5,9886505E-003	42	-1,1741357E-005
2	0	0	1	0	2,352134196025925E+005	2,3678505E+000	2,3685660E+000	-5,382877817666425E-003	2,000000000000000E+000	5,8622863E-003	42	-1,2749701E-005
2	0	0	1	0	2,352374026063448E+005	2,3438675E+000	2,3445749E+000	-5,963430404150927E-003	2,000000000000000E+000	5,7230261E-003	42	-1,3981709E-005
2	0	0	1	0	2,352613856100976E+005	2,3198845E+000	2,3205781E+000	-6,635136822822914E-003	2,000000000000000E+000	5,5687753E-003	42	-1,5397352E-005
2	0	0	1	0	2,352853685138496E+005	2,2959015E+000	2,2965980E+000	-7,405765213041385E-003	2,000000000000000E+000	5,3972318E-003	42	-1,7008066E-005
2	0	0	1	0	2,353093515176028E+005	2,2719183E+000	2,2726259E+000	-8,255531149760562E-003	2,000000000000000E+000	5,2063484E-003	42	-1,8761733E-005
2	0	0	1	0	2,353333343213545E+005	2,2479358E+000	2,2486048E+000	-9,217148378799417E-003	2,000000000000000E+000	4,9939682E-003	42	-2,0725724E-005
2	0	0	1	0	2,353573173251068E+005	2,2239523E+000	2,2246604E+000	-1,022712246508531E-002	2,000000000000000E+000	4,7582216E-003	41	-2,2751874E-005
2	0	0	1	0	2,353813003288589E+005	2,1999695E+000	2,2006645E+000	-1,137453274038797E-002	2,000000000000000E+000	4,4963621E-003	41	-2,5031530E-005
2	0	0	1	0	2,354052833326114E+005	2,1759868E+000	2,1767135E+000	-1,264232094135931E-002	2,000000000000000E+000	4,2055794E-003	41	-2,7518710E-005
2	0	0	1	0	2,354292663363637E+005	2,1520038E+000	2,1527185E+000	-1,406730760022418E-002	2,000000000000000E+000	3,8824086E-003	41	-3,0282954E-005
2	0	0	1	0	2,354532493401169E+005	2,1280205E+000	2,1287327E+000	-1,564618752035861E-002	2,000000000000000E+000	3,5231134E-003	41	-3,3306551E-005
2	0	0	1	0	2,354772323438693E+005	2,1040378E+000	2,1047525E+000	-1,741088154986151E-002	2,000000000000000E+000	3,1238976E-003	41	-3,6645597E-005
2	0	0	1	0	2,355012153476214E+005	2,0800548E+000	2,0807605E+000	-1,934135791631086E-002	2,000000000000000E+000	2,6802053E-003	41	-4,0244733E-005
2	0	0	0	0	2,355223994509359E+005	2,0588205E+000	2,0595257E+000	-2,153559340300359E-002	2,000000000000000E+000	2,2473342E-003	41	-4,4353110E-005