File: Dati/210416/CV_LTO-CB_08_CV_C05.mpt
EC-Lab ASCII FILE
Nb header lines : 57

Cyclic Voltammetry

Run on channel : 5 (SN 6809)
User : Seelab
Electrode connection : standard
Ewe ctrl range : min = 0,00 V, max = 5,00 V
Ewe,I filtering : 50 kHz
Safety Limits :
	Do not start on E overload
Channel : Grounded
Acquisition started on : 04/16/2021 18:38:45
Saved on :
	File : CV_LTO-CB_08_CV_C05.mpr
	Directory : C:\Users\labsuperfici\Desktop\Biologic\Users\Prisca Viviani\210416\
	Host : 10.78.33.0
Device : VSP-300 (SN 0638)
Address : USB
EC-Lab for windows v11.31 (software)
Internet server v11.30 (firmware)
Command interpretor v11.31 (firmware)
Electrode material :
Initial state :
Electrolyte :
Comments :
Cable : standard
Reference electrode : SCE Saturated Calomel Electrode (0,241 V)
Electrode surface area : 0,001 cm²
Characteristic mass : 0,001 g
Equivalent Weight : 0,000 g/eq.
Density : 0,000 g/cm3
Cycle Definition : Charge/Discharge alternance
Ei (V)              0,000
vs.                 Eoc
dE/dt               0,700
dE/dt unit          mV/s
E1 (V)              1,000
vs.                 Ref
Step percent        50
N                   10
E range min (V)     0,000
E range max (V)     5,000
I Range             Auto
I Range min         Unset
I Range max         Unset
I Range init        Unset
Bandwidth           8
E2 (V)              3,000
vs.                 Ref
nc cycles           1
Reverse Scan        1
Ef (V)              0,000
vs.                 Eoc

mode	ox/red	error	control changes	counter inc.	time/s	control/V	Ewe/V	<I>/mA	cycle number	(Q-Qo)/C	I Range	P/W
2	0	0	1	0	1,972049096557135E+005	2,0588205E+000	2,0594380E+000	-1,583854481577873E-002	1,000000000000000E+000	0,0000000E+000	41	-3,2618500E-005
2	0	0	1	0	1,972385284609760E+005	2,0352864E+000	2,0359793E+000	-1,694780430772996E-002	1,000000000000000E+000	-5,3559704E-004	41	-3,4505378E-005
2	0	0	1	0	1,972727898663362E+005	2,0113034E+000	2,0120106E+000	-1,919954313813799E-002	1,000000000000000E+000	-1,1588337E-003	41	-3,8629685E-005
2	0	0	1	0	1,973070514716958E+005	1,9873208E+000	1,9880415E+000	-2,154563313285696E-002	1,000000000000000E+000	-1,8604945E-003	41	-4,2833613E-005
2	0	0	1	0	1,973413128770568E+005	1,9633378E+000	1,9640393E+000	-2,407394920213451E-002	1,000000000000000E+000	-2,6455333E-003	41	-4,7282181E-005
2	0	0	1	0	1,973755742824182E+005	1,9393549E+000	1,9400574E+000	-2,677431334152954E-002	1,000000000000000E+000	-3,5200152E-003	41	-5,1943705E-005
2	0	0	1	0	1,974098354877783E+005	1,9153718E+000	1,9160675E+000	-2,974997913862132E-002	1,000000000000000E+000	-4,4917041E-003	41	-5,7002966E-005
2	0	0	1	0	1,974440968931383E+005	1,8913889E+000	1,8920647E+000	-3,307274042971320E-002	1,000000000000000E+000	-5,5707092E-003	41	-6,2575768E-005
2	0	0	1	0	1,974783583984997E+005	1,8674058E+000	1,8680817E+000	-3,673645997292518E-002	1,000000000000000E+000	-6,7690392E-003	41	-6,8626709E-005
2	0	0	1	0	1,975126197038610E+005	1,8434228E+000	1,8441060E+000	-4,077638019398228E-002	1,000000000000000E+000	-8,0998419E-003	41	-7,5195967E-005
2	0	0	1	0	1,975468812092198E+005	1,8194398E+000	1,8201274E+000	-4,531055623406693E-002	1,000000000000000E+000	-9,5771914E-003	41	-8,2470986E-005
2	0	0	1	0	1,975811425145804E+005	1,7954570E+000	1,7961355E+000	-5,032073911249835E-002	1,000000000000000E+000	-1,1217607E-002	41	-9,0382870E-005
2	0	0	1	0	1,976154038199426E+005	1,7714738E+000	1,7721909E+000	-5,593288939233931E-002	1,000000000000000E+000	-1,3040463E-002	41	-9,9123761E-005
2	0	0	1	0	1,976496653253031E+005	1,7474910E+000	1,7481965E+000	-6,217354248539769E-002	1,000000000000000E+000	-1,5065971E-002	41	-1,0869157E-004
2	0	0	1	0	1,976839266306623E+005	1,7235081E+000	1,7242292E+000	-6,903179863098818E-002	1,000000000000000E+000	-1,7316546E-002	41	-1,1902664E-004
2	0	0	1	0	1,977181879360232E+005	1,6995250E+000	1,7002203E+000	-7,674024421847270E-002	1,000000000000000E+000	-1,9815540E-002	41	-1,3047532E-004
2	0	0	1	0	1,977524495413846E+005	1,6755421E+000	1,6762265E+000	-8,505987227840772E-002	1,000000000000000E+000	-2,2589194E-002	41	-1,4257961E-004
2	0	0	1	0	1,977867109467448E+005	1,6515591E+000	1,6522151E+000	-9,415350398689259E-002	1,000000000000000E+000	-2,5660882E-002	41	-1,5556184E-004
2	0	0	1	0	1,978209721521046E+005	1,6275762E+000	1,6282756E+000	-1,039829792374192E-001	1,000000000000000E+000	-2,9059334E-002	40	-1,6931295E-004
2	0	0	1	0	1,978552335574661E+005	1,6035931E+000	1,6042905E+000	-1,151064925456028E-001	1,000000000000000E+000	-3,2813627E-002	40	-1,8466426E-004
2	0	0	1	0	1,978894950628271E+005	1,5796100E+000	1,5803096E+000	-1,278918398638256E-001	1,000000000000000E+000	-3,6975831E-002	40	-2,0210871E-004
2	0	0	1	0	1,979237563681863E+005	1,5556272E+000	1,5563198E+000	-1,427358404518952E-001	1,000000000000000E+000	-4,1610818E-002	40	-2,2214263E-004
2	0	0	1	0	1,979580177735470E+005	1,5316443E+000	1,5323496E+000	-1,598651530385333E-001	1,000000000000000E+000	-4,6791386E-002	40	-2,4496930E-004
2	0	0	1	0	1,979922791789090E+005	1,5076613E+000	1,5083482E+000	-1,799145664251156E-001	1,000000000000000E+000	-5,2608512E-002	40	-2,7137381E-004
2	0	0	1	0	1,980265404842701E+005	1,4836783E+000	1,4843569E+000	-2,020649580620804E-001	1,000000000000000E+000	-5,9154890E-002	40	-2,9993651E-004
2	0	0	1	0	1,980608019896289E+005	1,4596953E+000	1,4603719E+000	-2,227227315806126E-001	1,000000000000000E+000	-6,6444583E-002	40	-3,2525801E-004
2	0	0	1	0	1,980950632949898E+005	1,4357125E+000	1,4363892E+000	-2,391352586107258E-001	1,000000000000000E+000	-7,4376278E-002	40	-3,4349129E-004
2	0	0	1	0	1,981293246003513E+005	1,4117293E+000	1,4124153E+000	-2,499533571131283E-001	1,000000000000000E+000	-8,2775824E-002	40	-3,5303793E-004
2	0	0	1	0	1,981635861057118E+005	1,3877465E+000	1,3884269E+000	-2,565125269489021E-001	1,000000000000000E+000	-9,1467932E-002	40	-3,5614890E-004
2	0	0	1	0	1,981978475110712E+005	1,3637635E+000	1,3644642E+000	-2,604141634217996E-001	1,000000000000000E+000	-1,0033238E-001	40	-3,5532578E-004
2	0	0	1	0	1,982321087164325E+005	1,3397804E+000	1,3404539E+000	-2,627847835956674E-001	1,000000000000000E+000	-1,0930493E-001	40	-3,5225088E-004
2	0	0	1	0	1,982663702217937E+005	1,3157974E+000	1,3164711E+000	-2,632773108756075E-001	1,000000000000000E+000	-1,1832620E-001	40	-3,4659696E-004
2	0	0	1	0	1,983006315271528E+005	1,2918146E+000	1,2925129E+000	-2,619529677616926E-001	1,000000000000000E+000	-1,2733257E-001	40	-3,3857758E-004
2	0	0	1	0	1,983348930325136E+005	1,2678314E+000	1,2685229E+000	-2,591328207306534E-001	1,000000000000000E+000	-1,3626568E-001	40	-3,2871592E-004
2	0	0	1	0	1,983691544378755E+005	1,2438486E+000	1,2445489E+000	-2,551105328657873E-001	1,000000000000000E+000	-1,4508097E-001	40	-3,1749753E-004
2	0	0	1	0	1,984034157432364E+005	1,2198656E+000	1,2205658E+000	-2,500840988618858E-001	1,000000000000000E+000	-1,5374081E-001	40	-3,0524409E-004
2	0	0	1	0	1,984376770485952E+005	1,1958827E+000	1,1966165E+000	-2,443901511923157E-001	1,000000000000000E+000	-1,6221601E-001	40	-2,9244128E-004
2	0	0	1	0	1,984719384539564E+005	1,1718997E+000	1,1726260E+000	-2,382713506567864E-001	1,000000000000000E+000	-1,7048925E-001	40	-2,7940318E-004
2	0	0	1	0	1,985061998593179E+005	1,1479167E+000	1,1486523E+000	-2,319297056357447E-001	1,000000000000000E+000	-1,7854773E-001	40	-2,6640660E-004
2	0	0	1	0	1,985404612646783E+005	1,1239337E+000	1,1246372E+000	-2,254342930370736E-001	1,000000000000000E+000	-1,8638618E-001	40	-2,5353179E-004
2	0	0	1	0	1,985747226700378E+005	1,0999507E+000	1,1006904E+000	-2,190860713410636E-001	1,000000000000000E+000	-1,9400379E-001	40	-2,4114593E-004
2	0	0	1	0	1,986089839753991E+005	1,0759678E+000	1,0767033E+000	-2,130740977064978E-001	1,000000000000000E+000	-2,0140898E-001	40	-2,2941758E-004
2	0	0	1	0	1,986432452807603E+005	1,0519849E+000	1,0526884E+000	-2,074243103577056E-001	1,000000000000000E+000	-2,0861448E-001	40	-2,1835316E-004
2	0	0	1	0	1,986775066861194E+005	1,0280020E+000	1,0287328E+000	-2,021750698257980E-001	1,000000000000000E+000	-2,1563271E-001	40	-2,0798412E-004
2	0	0	1	0	1,987117681914801E+005	1,0040188E+000	1,0047646E+000	-1,975100669783649E-001	1,000000000000000E+000	-2,2248156E-001	40	-1,9845112E-004
2	0	0	1	0	1,987440315965286E+005	1,0185086E+000	1,0192459E+000	-1,632294252504574E-001	1,000000000000000E+000	-2,2829758E-001	40	-1,6637091E-004
2	0	0	1	0	1,987782930018900E+005	1,0424916E+000	1,0432042E+000	-1,403396783632069E-001	1,000000000000000E+000	-2,3346858E-001	40	-1,4640293E-004
2	0	0	1	0	1,988125544072501E+005	1,0664744E+000	1,0671999E+000	-1,235305087681495E-001	1,000000000000000E+000	-2,3797289E-001	40	-1,3183175E-004
2	0	0	1	0	1,988468158126099E+005	1,0904576E+000	1,0911732E+000	-1,101298538568589E-001	1,000000000000000E+000	-2,4196446E-001	40	-1,2017074E-004
2	0	0	1	0	1,988810771179715E+005	1,1144404E+000	1,1151716E+000	-9,889883285868661E-002	1,000000000000000E+000	-2,4553715E-001	40	-1,1028916E-004
2	0	0	1	0	1,989153386233323E+005	1,1384233E+000	1,1391650E+000	-8,921908106905097E-002	1,000000000000000E+000	-2,4875297E-001	40	-1,0163526E-004
2	0	0	1	0	1,989496000286918E+005	1,1624064E+000	1,1631318E+000	-8,078221010755704E-002	1,000000000000000E+000	-2,5165924E-001	40	-9,3960363E-005
2	0	0	1	0	1,989838614340522E+005	1,1863893E+000	1,1871123E+000	-7,332024763305350E-002	1,000000000000000E+000	-2,5429356E-001	40	-8,7039371E-005
2	0	0	1	0	1,990181228394145E+005	1,2103723E+000	1,2110971E+000	-6,656307589227772E-002	1,000000000000000E+000	-2,5668535E-001	40	-8,0614351E-005
2	0	0	1	0	1,990523842447754E+005	1,2343552E+000	1,2350789E+000	-6,045787349259385E-002	1,000000000000000E+000	-2,5885752E-001	40	-7,4670243E-005
2	0	0	1	0	1,990866456501340E+005	1,2583382E+000	1,2590516E+000	-5,482068398744122E-002	1,000000000000000E+000	-2,6082861E-001	40	-6,9022070E-005
2	0	0	1	0	1,991209071554951E+005	1,2823212E+000	1,2830273E+000	-4,942956942808516E-002	1,000000000000000E+000	-2,6261106E-001	40	-6,3419488E-005
2	0	0	1	0	1,991551684608567E+005	1,3063042E+000	1,3070221E+000	-4,428424749369403E-002	1,000000000000000E+000	-2,6421511E-001	41	-5,7880490E-005
2	0	0	1	0	1,991894298662166E+005	1,3302873E+000	1,3309796E+000	-3,900111758844066E-002	1,000000000000000E+000	-2,6563910E-001	41	-5,1909690E-005
2	0	0	1	0	1,992236911715765E+005	1,3542701E+000	1,3549757E+000	-3,358248746867987E-002	1,000000000000000E+000	-2,6687995E-001	41	-4,5503453E-005
2	0	0	1	0	1,992579527769377E+005	1,3782532E+000	1,3789518E+000	-2,798436841022950E-002	1,000000000000000E+000	-2,6793233E-001	41	-3,8589096E-005
2	0	0	1	0	1,992922141822991E+005	1,4022361E+000	1,4029472E+000	-2,207196014986401E-002	1,000000000000000E+000	-2,6878798E-001	41	-3,0965795E-005
2	0	0	1	0	1,993264754876588E+005	1,4262191E+000	1,4269153E+000	-1,582750851919200E-002	1,000000000000000E+000	-2,6943564E-001	41	-2,2584514E-005
2	0	0	1	0	1,993607369930185E+005	1,4502021E+000	1,4509044E+000	-9,106324961133269E-003	1,000000000000000E+000	-2,6986095E-001	41	-1,3212407E-005
2	0	0	1	0	1,993949982983808E+005	1,4741850E+000	1,4748768E+000	-1,854770660701398E-003	1,000000000000000E+000	-2,7004766E-001	42	-2,7355582E-006
2	1	0	1	0	1,994292597037414E+005	1,4981680E+000	1,4988858E+000	6,047642287579653E-003	1,000000000000000E+000	-2,6997530E-001	42	9,0647245E-006
2	1	0	1	0	1,994635212091007E+005	1,5221510E+000	1,5228611E+000	1,473828266719451E-002	1,000000000000000E+000	-2,6961884E-001	41	2,2444357E-005
2	1	0	1	0	1,994977826144614E+005	1,5461340E+000	1,5468363E+000	2,458535977031334E-002	1,000000000000000E+000	-2,6894599E-001	41	3,8029524E-005
2	1	0	1	0	1,995320440198234E+005	1,5701171E+000	1,5707961E+000	3,603318802656419E-002	1,000000000000000E+000	-2,6790908E-001	41	5,6600791E-005
2	1	0	1	0	1,995663054251838E+005	1,5941000E+000	1,5948151E+000	5,009120975558989E-002	1,000000000000000E+000	-2,6644298E-001	41	7,9886217E-005
2	1	0	1	0	1,996005668305433E+005	1,6180830E+000	1,6188142E+000	7,253284046288883E-002	1,000000000000000E+000	-2,6437369E-001	41	1,1741719E-004
2	1	0	1	0	1,996348282359044E+005	1,6420660E+000	1,6427815E+000	1,044754180756087E-001	1,000000000000000E+000	-2,6135510E-001	40	1,7163028E-004
2	1	0	1	0	1,996690896412656E+005	1,6660490E+000	1,6667874E+000	1,405975033403863E-001	1,000000000000000E+000	-2,5716260E-001	40	2,3434614E-004
2	1	0	1	0	1,997033511466254E+005	1,6900318E+000	1,6907845E+000	1,805144098214327E-001	1,000000000000000E+000	-2,5166979E-001	40	3,0521097E-004
2	1	0	1	0	1,997376125519855E+005	1,7140148E+000	1,7147460E+000	2,248753967014014E-001	1,000000000000000E+000	-2,4473296E-001	40	3,8560419E-004
2	1	0	1	0	1,997718739573471E+005	1,7379978E+000	1,7387301E+000	2,730620749675747E-001	1,000000000000000E+000	-2,3620613E-001	40	4,7478123E-004
2	1	0	1	0	1,998061352627082E+005	1,7619805E+000	1,7627149E+000	3,226366331547096E-001	1,000000000000000E+000	-2,2599529E-001	40	5,6871638E-004
2	1	0	1	0	1,998403967680670E+005	1,7859635E+000	1,7866957E+000	3,703976780510549E-001	1,000000000000000E+000	-2,1410660E-001	40	6,6178793E-004
2	1	0	1	0	1,998746582734275E+005	1,8099469E+000	1,8106582E+000	4,118038322606719E-001	1,000000000000000E+000	-2,0067634E-001	40	7,4563600E-004
2	1	0	1	0	1,999089195787900E+005	1,8339294E+000	1,8346341E+000	4,419070031437418E-001	1,000000000000000E+000	-1,8601099E-001	40	8,1073766E-004
2	1	0	1	0	1,999431808841503E+005	1,8579127E+000	1,8586264E+000	4,571173993295119E-001	1,000000000000000E+000	-1,7056033E-001	40	8,4961043E-004
2	1	0	1	0	1,999774422895098E+005	1,8818954E+000	1,8826275E+000	4,565755449676228E-001	1,000000000000000E+000	-1,5485853E-001	40	8,5956167E-004
2	1	0	1	0	2,000117037948707E+005	1,9058784E+000	1,9065930E+000	4,403316879848278E-001	1,000000000000000E+000	-1,3944928E-001	40	8,3953328E-004
2	1	0	1	0	2,000459652002323E+005	1,9298613E+000	1,9305609E+000	4,114316022427289E-001	1,000000000000000E+000	-1,2482495E-001	40	7,9429377E-004
2	1	0	1	0	2,000802266055928E+005	1,9538445E+000	1,9545282E+000	3,745110594788641E-001	1,000000000000000E+000	-1,1134109E-001	40	7,3199242E-004
2	1	0	1	0	2,001144880109522E+005	1,9778273E+000	1,9785385E+000	3,340105226471994E-001	1,000000000000000E+000	-9,9197045E-002	40	6,6085270E-004
2	1	0	1	0	2,001487494163135E+005	2,0018101E+000	2,0025315E+000	2,940474851282939E-001	1,000000000000000E+000	-8,8439241E-002	40	5,8883935E-004
2	1	0	1	0	2,001830109216748E+005	2,0257931E+000	2,0265298E+000	2,568649978612754E-001	1,000000000000000E+000	-7,9009414E-002	40	5,2054459E-004
2	1	0	1	0	2,002172723270338E+005	2,0497761E+000	2,0504797E+000	2,235173034315023E-001	1,000000000000000E+000	-7,0789084E-002	40	4,5831769E-004
2	1	0	1	0	2,002515339323943E+005	2,0737593E+000	2,0744696E+000	1,941675537600238E-001	1,000000000000000E+000	-6,3641727E-002	40	4,0279469E-004
2	1	0	1	0	2,002857953377563E+005	2,0977423E+000	2,0984626E+000	1,686466736154579E-001	1,000000000000000E+000	-5,7434335E-002	40	3,5389874E-004
2	1	0	1	0	2,003200568431173E+005	2,1217251E+000	2,1224093E+000	1,466965193544501E-001	1,000000000000000E+000	-5,2038021E-002	40	3,1135007E-004
2	1	0	1	0	2,003543182484764E+005	2,1457081E+000	2,1463790E+000	1,281221852210543E-001	1,000000000000000E+000	-4,7335718E-002	40	2,7499878E-004
2	1	0	1	0	2,003885797538369E+005	2,1696913E+000	2,1703632E+000	1,124705726375308E-001	1,000000000000000E+000	-4,3218523E-002	40	2,4410199E-004
2	1	0	1	0	2,004228409591990E+005	2,1936738E+000	2,1943297E+000	9,943446606577727E-002	1,000000000000000E+000	-3,9590776E-002	40	2,1819200E-004
2	1	0	1	0	2,004571024645595E+005	2,2176569E+000	2,2183328E+000	8,866438500710694E-002	1,000000000000000E+000	-3,6370013E-002	40	1,9668711E-004
2	1	0	1	0	2,004913637699187E+005	2,2416399E+000	2,2423251E+000	7,974918394737118E-002	1,000000000000000E+000	-3,3485767E-002	40	1,7882360E-004
2	1	0	1	0	2,005256251752799E+005	2,2656231E+000	2,2663209E+000	7,223589813690401E-002	1,000000000000000E+000	-3,0882306E-002	40	1,6370973E-004
2	1	0	1	0	2,005598865806414E+005	2,2896059E+000	2,2902837E+000	6,589870423848287E-002	1,000000000000000E+000	-2,8515266E-002	40	1,5092673E-004
2	1	0	1	0	2,005941479860013E+005	2,3135889E+000	2,3142755E+000	6,049450129794430E-002	1,000000000000000E+000	-2,6348196E-002	40	1,4000095E-004
2	1	0	1	0	2,006284093913613E+005	2,3375719E+000	2,3382499E+000	5,586649474696261E-002	1,000000000000000E+000	-2,4352504E-002	40	1,3062982E-004
2	1	0	1	0	2,006626709967227E+005	2,3615551E+000	2,3622453E+000	5,183759257060389E-002	1,000000000000000E+000	-2,2504667E-002	40	1,2245312E-004
2	1	0	1	0	2,006970037020948E+005	2,3855877E+000	2,3862784E+000	4,833076790323398E-002	1,000000000000000E+000	-2,0781534E-002	40	1,1533067E-004
2	1	0	1	0	2,007313365074666E+005	2,4096203E+000	2,4103196E+000	4,531043506996868E-002	1,000000000000000E+000	-1,9172167E-002	41	1,0921263E-004
2	1	0	1	0	2,007655980128259E+005	2,4336038E+000	2,4342890E+000	4,280952102368607E-002	1,000000000000000E+000	-1,7659545E-002	41	1,0421075E-004
2	1	0	1	0	2,007998594181871E+005	2,4575868E+000	2,4582539E+000	4,055991671127834E-002	1,000000000000000E+000	-1,6227596E-002	41	9,9706573E-005
2	1	0	1	0	2,008341208235482E+005	2,4815698E+000	2,4822721E+000	3,844327156220667E-002	1,000000000000000E+000	-1,4870130E-002	41	9,5426665E-005
2	1	0	1	0	2,008683821289083E+005	2,5055525E+000	2,5062461E+000	3,642458108184034E-002	1,000000000000000E+000	-1,3583999E-002	41	9,1288966E-005
2	1	0	1	0	2,009026435342683E+005	2,5295355E+000	2,5302422E+000	3,458964106643567E-002	1,000000000000000E+000	-1,2363745E-002	41	8,7520173E-005
2	1	0	1	0	2,009369048396300E+005	2,5535185E+000	2,5542078E+000	3,288205087643836E-002	1,000000000000000E+000	-1,1204383E-002	41	8,3987594E-005
2	1	0	1	0	2,009711662449907E+005	2,5775015E+000	2,5781989E+000	3,128888859634996E-002	1,000000000000000E+000	-1,0101585E-002	41	8,0668979E-005
2	1	0	1	0	2,010054277503500E+005	2,6014843E+000	2,6021395E+000	2,991907274564456E-002	1,000000000000000E+000	-9,0500256E-003	41	7,7853598E-005
2	1	0	1	0	2,010396892557108E+005	2,6254675E+000	2,6261616E+000	2,883833480474769E-002	1,000000000000000E+000	-8,0399876E-003	41	7,5734126E-005
2	1	0	1	0	2,010739506610727E+005	2,6494505E+000	2,6501272E+000	2,778440206626565E-002	1,000000000000000E+000	-7,0654368E-003	41	7,3632196E-005
2	1	0	1	0	2,011082120664334E+005	2,6734335E+000	2,6741083E+000	2,653099349192078E-002	1,000000000000000E+000	-6,1312607E-003	41	7,0946749E-005
2	1	0	1	0	2,011424734717924E+005	2,6974165E+000	2,6981065E+000	2,534487564699994E-002	1,000000000000000E+000	-5,2396553E-003	41	6,8383175E-005
2	1	0	1	0	2,011767349771537E+005	2,7213995E+000	2,7220840E+000	2,434935118942527E-002	1,000000000000000E+000	-4,3852716E-003	41	6,6280983E-005
2	1	0	1	0	2,012109961825148E+005	2,7453823E+000	2,7460780E+000	2,356513421594220E-002	1,000000000000000E+000	-3,5611263E-003	41	6,4711698E-005
2	1	0	1	0	2,012452576878751E+005	2,7693655E+000	2,7700567E+000	2,295232415725262E-002	1,000000000000000E+000	-2,7606220E-003	41	6,3579238E-005
2	1	0	1	0	2,012795189932350E+005	2,7933483E+000	2,7940557E+000	2,259319978941951E-002	1,000000000000000E+000	-1,9771683E-003	41	6,3126659E-005
2	1	0	1	0	2,013137803985963E+005	2,8173308E+000	2,8180292E+000	2,245341264780376E-002	1,000000000000000E+000	-1,2022218E-003	41	6,3274369E-005
2	1	0	1	0	2,013480419039573E+005	2,8413143E+000	2,8420017E+000	2,239463849486524E-002	1,000000000000000E+000	-4,2939605E-004	41	6,3645602E-005
2	1	0	1	0	2,013823033093167E+005	2,8652973E+000	2,8659952E+000	2,206776502063013E-002	1,000000000000000E+000	3,3717888E-004	41	6,3246109E-005
2	1	0	1	0	2,014165647146769E+005	2,8892798E+000	2,8899553E+000	2,157258786154027E-002	1,000000000000000E+000	1,0886515E-003	41	6,2343817E-005
2	1	0	1	0	2,014508262200392E+005	2,9132628E+000	2,9139442E+000	2,110825853882944E-002	1,000000000000000E+000	1,8238628E-003	41	6,1508290E-005
2	1	0	1	0	2,014850876253997E+005	2,9372463E+000	2,9379377E+000	2,064274280207437E-002	1,000000000000000E+000	2,5426329E-003	41	6,0647093E-005
2	1	0	1	0	2,015193491307590E+005	2,9612291E+000	2,9619215E+000	2,014193846972816E-002	1,000000000000000E+000	3,2449111E-003	41	5,9658840E-005
2	1	0	1	0	2,015536103361201E+005	2,9852118E+000	2,9859140E+000	1,975713992014672E-002	1,000000000000000E+000	3,9315699E-003	41	5,8993119E-005
2	1	0	1	1	2,015854448411008E+005	2,9924066E+000	2,9930928E+000	1,434284996602751E-002	1,000000000000000E+000	4,5167734E-003	41	4,2929481E-005
2	1	0	1	1	2,016197063464611E+005	2,9684241E+000	2,9690959E+000	1,042062355693096E-002	1,000000000000000E+000	4,9286187E-003	41	3,0939831E-005
2	1	0	1	1	2,016539677518228E+005	2,9444408E+000	2,9451199E+000	8,176460896773683E-003	1,000000000000000E+000	5,2404413E-003	41	2,4080657E-005
2	1	0	1	1	2,016882291571838E+005	2,9204578E+000	2,9211323E+000	6,622121233384373E-003	1,000000000000000E+000	5,4881247E-003	41	1,9344092E-005
2	1	0	1	1	2,017224905625433E+005	2,8964751E+000	2,8971598E+000	5,428143910385874E-003	1,000000000000000E+000	5,6894752E-003	41	1,5726200E-005
2	1	0	1	1	2,017567518679034E+005	2,8724923E+000	2,8731804E+000	4,454177397328937E-003	1,000000000000000E+000	5,8538718E-003	42	1,2797655E-005
2	1	0	1	1	2,017910132732657E+005	2,8485091E+000	2,8491967E+000	3,642934674123556E-003	1,000000000000000E+000	5,9876502E-003	42	1,0379437E-005
2	1	0	1	1	2,018252745786263E+005	2,8245263E+000	2,8252115E+000	3,003047518506771E-003	1,000000000000000E+000	6,0972725E-003	42	8,4842441E-006
2	1	0	1	1	2,018595359839853E+005	2,8005435E+000	2,8012459E+000	2,517656927722999E-003	1,000000000000000E+000	6,1877654E-003	42	7,0525762E-006
2	1	0	1	1	2,018937973893465E+005	2,7765605E+000	2,7772574E+000	2,085259117495283E-003	1,000000000000000E+000	6,2622544E-003	42	5,7913012E-006
2	1	0	1	1	2,019280585947079E+005	2,7525775E+000	2,7532840E+000	1,695600523468677E-003	1,000000000000000E+000	6,3228733E-003	42	4,6684700E-006
2	1	0	1	1	2,019623200000674E+005	2,7285943E+000	2,7293208E+000	1,329117196469160E-003	1,000000000000000E+000	6,3705239E-003	42	3,6275871E-006
2	1	0	1	1	2,019965814054275E+005	2,7046113E+000	2,7053158E+000	9,880274575581136E-004	1,000000000000000E+000	6,4059775E-003	42	2,6729263E-006
2	1	0	1	1	2,020308429107892E+005	2,6806283E+000	2,6813226E+000	6,034105375378410E-004	1,000000000000000E+000	6,4294036E-003	42	1,6179383E-006
2	1	0	1	1	2,020655324162161E+005	2,6563458E+000	2,6570463E+000	1,823578753088349E-004	1,000000000000000E+000	6,4393394E-003	43	4,8453330E-007
2	0	0	1	1	2,021001507216329E+005	2,6321130E+000	2,6327994E+000	-3,942348560882760E-004	1,000000000000000E+000	6,4320709E-003	43	-1,0379413E-006
2	0	0	1	1	2,021347687270488E+005	2,6078799E+000	2,6085515E+000	-8,507138404646626E-004	1,000000000000000E+000	6,4060502E-003	42	-2,2191309E-006
2	0	0	1	1	2,021690302324103E+005	2,5838969E+000	2,5845950E+000	-1,072188643820728E-003	1,000000000000000E+000	6,3685388E-003	42	-2,7711733E-006
2	0	0	1	1	2,022032914377712E+005	2,5599141E+000	2,5605867E+000	-1,230190189398576E-003	1,000000000000000E+000	6,3255178E-003	42	-3,1500085E-006
2	0	0	1	1	2,022375528431307E+005	2,5359311E+000	2,5366287E+000	-1,505377269335695E-003	1,000000000000000E+000	6,2753968E-003	42	-3,8185831E-006
2	0	0	1	1	2,022718143484911E+005	2,5119479E+000	2,5126052E+000	-1,849255830423030E-003	1,000000000000000E+000	6,2142452E-003	42	-4,6464497E-006
2	0	0	1	1	2,023060757538532E+005	2,4879649E+000	2,4886408E+000	-2,195866787291436E-003	1,000000000000000E+000	6,1411853E-003	42	-5,4647235E-006
2	0	0	1	1	2,023403368592137E+005	2,4639821E+000	2,4646449E+000	-2,561866595971986E-003	1,000000000000000E+000	6,0559968E-003	42	-6,3140915E-006
2	0	0	1	1	2,023745983645730E+005	2,4399989E+000	2,4406734E+000	-2,928408040788463E-003	1,000000000000000E+000	5,9582000E-003	42	-7,1472873E-006
2	0	0	1	1	2,024088597699341E+005	2,4160161E+000	2,4167173E+000	-3,272313302957172E-003	1,000000000000000E+000	5,8481167E-003	42	-7,9082565E-006
2	0	0	1	1	2,024431212752953E+005	2,3920333E+000	2,3927321E+000	-3,619371713114206E-003	1,000000000000000E+000	5,7262606E-003	42	-8,6601867E-006
2	0	0	1	1	2,024773824806558E+005	2,3680501E+000	2,3687465E+000	-3,992887846032175E-003	1,000000000000000E+000	5,5924817E-003	42	-9,4581392E-006
2	0	0	1	1	2,025116439860153E+005	2,3440671E+000	2,3447564E+000	-4,430257398575166E-003	1,000000000000000E+000	5,4445942E-003	42	-1,0387875E-005
2	0	0	1	1	2,025459048913768E+005	2,3200843E+000	2,3207881E+000	-4,939774571181946E-003	1,000000000000000E+000	5,2803867E-003	42	-1,1464171E-005
2	0	0	1	1	2,025801662967377E+005	2,2961016E+000	2,2967882E+000	-5,511535771182895E-003	1,000000000000000E+000	5,0978125E-003	42	-1,2658830E-005
2	0	0	1	1	2,026144278020971E+005	2,2721186E+000	2,2728112E+000	-6,143899688639567E-003	1,000000000000000E+000	4,8944876E-003	42	-1,3963924E-005
2	0	0	1	1	2,026486892074576E+005	2,2481353E+000	2,2488506E+000	-6,826610432016572E-003	1,000000000000000E+000	4,6684244E-003	42	-1,5352027E-005
2	0	0	1	1	2,026829507128196E+005	2,2241523E+000	2,2248349E+000	-7,631039416297974E-003	1,000000000000000E+000	4,4171475E-003	42	-1,6977803E-005
2	0	0	1	1	2,027172121181800E+005	2,2001696E+000	2,2008331E+000	-8,477256616319342E-003	1,000000000000000E+000	4,1377400E-003	42	-1,8657027E-005
2	0	0	1	1	2,027514732235391E+005	2,1761863E+000	2,1768603E+000	-9,453614259479780E-003	1,000000000000000E+000	3,8271016E-003	42	-2,0579198E-005
2	0	0	1	1	2,027857347289007E+005	2,1522036E+000	2,1528857E+000	-1,050578122177584E-002	1,000000000000000E+000	3,4816889E-003	41	-2,2617745E-005
2	0	0	1	1	2,028199961342618E+005	2,1282206E+000	2,1289275E+000	-1,173367825578883E-002	1,000000000000000E+000	3,0971069E-003	41	-2,4980151E-005
2	0	0	1	1	2,028542573396219E+005	2,1042373E+000	2,1049297E+000	-1,308726950962108E-002	1,000000000000000E+000	2,6684040E-003	41	-2,7547781E-005
2	0	0	1	1	2,028885188449819E+005	2,0802546E+000	2,0809214E+000	-1,458030008284642E-002	1,000000000000000E+000	2,1907643E-003	41	-3,0340459E-005
2	0	0	1	1	2,029227797503435E+005	2,0562718E+000	2,0569592E+000	-1,623722153856869E-002	2,000000000000000E+000	1,6592545E-003	41	-3,3399301E-005
2	0	0	1	1	2,029570411557043E+005	2,0322888E+000	2,0329578E+000	-1,806728187832903E-002	2,000000000000000E+000	1,0678524E-003	41	-3,6730020E-005
2	0	0	1	1	2,029913026610636E+005	2,0083055E+000	2,0089989E+000	-2,012073851336299E-002	2,000000000000000E+000	4,1073468E-004	41	-4,0422539E-005
2	0	0	1	1	2,030255641664241E+005	1,9843229E+000	1,9850218E+000	-2,232135242728822E-002	2,000000000000000E+000	-3,1943980E-004	41	-4,4308374E-005
2	0	0	1	1	2,030598255717861E+005	1,9603399E+000	1,9610586E+000	-2,476584890618511E-002	2,000000000000000E+000	-1,1293449E-003	41	-4,8567283E-005
2	0	0	1	1	2,030940869771466E+005	1,9363570E+000	1,9370352E+000	-2,742810312068822E-002	2,000000000000000E+000	-2,0271018E-003	41	-5,3129203E-005
2	0	0	1	1	2,031283482825058E+005	1,9123737E+000	1,9130877E+000	-3,037991518838545E-002	2,000000000000000E+000	-3,0204824E-003	41	-5,8119444E-005
2	0	0	1	1	2,031626097878668E+005	1,8883908E+000	1,8890847E+000	-3,369769448274609E-002	2,000000000000000E+000	-4,1211233E-003	41	-6,3657797E-005
2	0	0	1	1	2,031968710932285E+005	1,8644079E+000	1,8651048E+000	-3,739299946810082E-002	2,000000000000000E+000	-5,3420076E-003	41	-6,9741865E-005
2	0	0	1	1	2,032311324985884E+005	1,8404250E+000	1,8411149E+000	-4,149279102586956E-002	2,000000000000000E+000	-6,6964789E-003	41	-7,6392993E-005
2	0	0	1	1	2,032653938039483E+005	1,8164421E+000	1,8171779E+000	-4,605755184257582E-002	2,000000000000000E+000	-8,1995940E-003	41	-8,3694766E-005
2	0	0	1	1	2,032996553093100E+005	1,7924589E+000	1,7931612E+000	-5,120911478384804E-002	2,000000000000000E+000	-9,8685669E-003	41	-9,1826194E-005
2	0	0	1	1	2,033339166146708E+005	1,7684760E+000	1,7691611E+000	-5,689817109278694E-002	2,000000000000000E+000	-1,1722505E-002	41	-1,0066203E-004
2	0	0	1	1	2,033681779200304E+005	1,7444931E+000	1,7451869E+000	-6,321845492984890E-002	2,000000000000000E+000	-1,3782814E-002	41	-1,1032802E-004
2	0	0	1	1	2,034024394253906E+005	1,7205102E+000	1,7212093E+000	-7,019479354333602E-002	2,000000000000000E+000	-1,6071349E-002	41	-1,2081993E-004
2	0	0	1	1	2,034367007307529E+005	1,6965271E+000	1,6972287E+000	-7,796795379198285E-002	2,000000000000000E+000	-1,8610843E-002	41	-1,3232944E-004
2	0	0	1	1	2,034709622361134E+005	1,6725442E+000	1,6732353E+000	-8,643838299792717E-002	2,000000000000000E+000	-2,1428896E-002	41	-1,4463175E-004
2	0	0	1	1	2,035052236414724E+005	1,6485612E+000	1,6492413E+000	-9,569281868783830E-002	2,000000000000000E+000	-2,4549970E-002	41	-1,5782056E-004
2	0	0	1	1	2,035394849468335E+005	1,6245781E+000	1,6253002E+000	-1,057232318339697E-001	2,000000000000000E+000	-2,8002393E-002	40	-1,7183198E-004
2	0	0	1	1	2,035737463521948E+005	1,6005951E+000	1,6013263E+000	-1,171508765338625E-001	2,000000000000000E+000	-3,1821165E-002	40	-1,8759679E-004
2	0	0	1	1	2,036080077575548E+005	1,5766122E+000	1,5773129E+000	-1,303680984584102E-001	2,000000000000000E+000	-3,6061134E-002	40	-2,0563130E-004
2	0	0	1	1	2,036422691629149E+005	1,5526294E+000	1,5533096E+000	-1,457107639385604E-001	2,000000000000000E+000	-4,0788464E-002	40	-2,2633393E-004
2	0	0	1	1	2,036765304682761E+005	1,5286465E+000	1,5293500E+000	-1,633498845051178E-001	2,000000000000000E+000	-4,6081051E-002	40	-2,4981916E-004
2	0	0	1	1	2,037107919736374E+005	1,5046633E+000	1,5053623E+000	-1,840117157150651E-001	2,000000000000000E+000	-5,2027561E-002	40	-2,7700429E-004
2	0	0	1	1	2,037450532789966E+005	1,4806805E+000	1,4813657E+000	-2,062864809645957E-001	2,000000000000000E+000	-5,8719210E-002	40	-3,0558571E-004
2	0	0	1	1	2,037793145843570E+005	1,4566975E+000	1,4573741E+000	-2,263451073733564E-001	2,000000000000000E+000	-6,6147827E-002	40	-3,2986951E-004
2	0	0	1	1	2,038135760897191E+005	1,4327143E+000	1,4334089E+000	-2,417419314179821E-001	2,000000000000000E+000	-7,4185438E-002	40	-3,4651504E-004
2	0	0	1	1	2,038478373950799E+005	1,4087316E+000	1,4094472E+000	-2,517889852740307E-001	2,000000000000000E+000	-8,2658097E-002	40	-3,5488329E-004
2	0	0	1	1	2,038820989004392E+005	1,3847486E+000	1,3854580E+000	-2,578448714848753E-001	2,000000000000000E+000	-9,1403283E-002	40	-3,5723325E-004
2	0	0	1	1	2,039163603058000E+005	1,3607655E+000	1,3614794E+000	-2,616491625033290E-001	2,000000000000000E+000	-1,0031147E-001	40	-3,5622995E-004
2	0	0	1	1	2,039506215111616E+005	1,3367827E+000	1,3374667E+000	-2,636900263538087E-001	2,000000000000000E+000	-1,0931956E-001	40	-3,5267664E-004
2	0	0	1	1	2,039848829165217E+005	1,3127996E+000	1,3135273E+000	-2,635608304049361E-001	2,000000000000000E+000	-1,1836025E-001	40	-3,4619437E-004
2	0	0	1	1	2,040191443218815E+005	1,2888167E+000	1,2895442E+000	-2,616644397601942E-001	2,000000000000000E+000	-1,2736623E-001	40	-3,3742786E-004
2	0	0	1	1	2,040534057272427E+005	1,2648337E+000	1,2655429E+000	-2,583646761969611E-001	2,000000000000000E+000	-1,3628390E-001	40	-3,2697158E-004
2	0	0	1	1	2,040876671326039E+005	1,2408507E+000	1,2415544E+000	-2,538937396043885E-001	2,000000000000000E+000	-1,4506513E-001	40	-3,1522289E-004
2	0	0	1	1	2,041219284379631E+005	1,2168678E+000	1,2175696E+000	-2,484974940961360E-001	2,000000000000000E+000	-1,5367766E-001	40	-3,0256298E-004
2	0	0	1	1	2,041561898433235E+005	1,1928847E+000	1,1935885E+000	-2,426575431053135E-001	2,000000000000000E+000	-1,6209580E-001	40	-2,8963326E-004
2	0	0	1	1	2,041904511486855E+005	1,1689018E+000	1,1696024E+000	-2,363572453963860E-001	2,000000000000000E+000	-1,7030469E-001	40	-2,7644401E-004
2	0	0	1	1	2,042247126540462E+005	1,1449187E+000	1,1456352E+000	-2,298361290433015E-001	2,000000000000000E+000	-1,7829445E-001	40	-2,6330838E-004
2	0	0	1	1	2,042589740594053E+005	1,1209357E+000	1,1216503E+000	-2,233536032327472E-001	2,000000000000000E+000	-1,8606098E-001	40	-2,5052464E-004
2	0	0	1	1	2,042932354647663E+005	1,0969529E+000	1,0976659E+000	-2,171385539931077E-001	2,000000000000000E+000	-1,9360907E-001	40	-2,3834559E-004
2	0	0	1	1	2,043274967701279E+005	1,0729699E+000	1,0737170E+000	-2,111992614218243E-001	2,000000000000000E+000	-2,0094861E-001	40	-2,2676824E-004
2	0	0	1	1	2,043617580754883E+005	1,0489868E+000	1,0497227E+000	-2,056476679445272E-001	2,000000000000000E+000	-2,0809133E-001	40	-2,1587302E-004
2	0	0	1	1	2,043960195808480E+005	1,0250039E+000	1,0257254E+000	-2,006006563972147E-001	2,000000000000000E+000	-2,1505199E-001	40	-2,0576119E-004
2	0	0	1	1	2,044302809862092E+005	1,0010209E+000	1,0017661E+000	-1,960902409334029E-001	2,000000000000000E+000	-2,2184902E-001	40	-1,9643655E-004
2	0	0	1	1	2,044625441912580E+005	1,0215065E+000	1,0222267E+000	-1,588624079569150E-001	2,000000000000000E+000	-2,2747943E-001	40	-1,6239339E-004
2	0	0	1	1	2,044968055966184E+005	1,0454895E+000	1,0461998E+000	-1,371209675233747E-001	2,000000000000000E+000	-2,3252352E-001	40	-1,4345592E-004
2	0	0	1	1	2,045310669019776E+005	1,0694724E+000	1,0702132E+000	-1,209740342363317E-001	2,000000000000000E+000	-2,3693012E-001	40	-1,2946801E-004
2	0	0	1	1	2,045653284073389E+005	1,0934554E+000	1,0942150E+000	-1,079231971379624E-001	2,000000000000000E+000	-2,4084073E-001	40	-1,1809119E-004
2	0	0	1	1	2,045995897127003E+005	1,1174382E+000	1,1181858E+000	-9,700155768664209E-002	2,000000000000000E+000	-2,4434274E-001	40	-1,0846576E-004
2	0	0	1	1	2,046338512180597E+005	1,1414214E+000	1,1421889E+000	-8,751267021701403E-002	2,000000000000000E+000	-2,4749704E-001	40	-9,9956000E-005
2	0	0	1	1	2,046681126234201E+005	1,1654044E+000	1,1661655E+000	-7,926670351021536E-002	2,000000000000000E+000	-2,5034815E-001	40	-9,2438095E-005
2	0	0	1	1	2,047023739287816E+005	1,1893871E+000	1,1901319E+000	-7,192192080264548E-002	2,000000000000000E+000	-2,5293219E-001	40	-8,5596570E-005
2	0	0	1	1	2,047366353341429E+005	1,2133701E+000	1,2140868E+000	-6,529653300446125E-002	2,000000000000000E+000	-2,5527743E-001	40	-7,9275655E-005
2	0	0	1	1	2,047708968395023E+005	1,2373532E+000	1,2380656E+000	-5,927303687670360E-002	2,000000000000000E+000	-2,5740647E-001	40	-7,3383912E-005
2	0	0	1	1	2,048051582448622E+005	1,2613362E+000	1,2620567E+000	-5,366342807909147E-002	2,000000000000000E+000	-2,5933686E-001	40	-6,7726287E-005
2	0	0	1	1	2,048394196502245E+005	1,2853192E+000	1,2860500E+000	-4,846164335328973E-002	2,000000000000000E+000	-2,6108086E-001	41	-6,2324092E-005
2	0	0	1	1	2,048736810555854E+005	1,3093022E+000	1,3099984E+000	-4,320457894574481E-002	2,000000000000000E+000	-2,6264817E-001	41	-5,6597928E-005
2	0	0	1	1	2,049079423609441E+005	1,3332851E+000	1,3339832E+000	-3,792184822088795E-002	2,000000000000000E+000	-2,6403531E-001	41	-5,0587107E-005
2	0	0	1	1	2,049422038663054E+005	1,3572681E+000	1,3579617E+000	-3,252602038786426E-002	2,000000000000000E+000	-2,6523986E-001	41	-4,4169090E-005
2	0	0	1	1	2,049764652716669E+005	1,3812511E+000	1,3819611E+000	-2,692544325706486E-002	2,000000000000000E+000	-2,6625648E-001	41	-3,7209917E-005
2	0	0	1	1	2,050107266770271E+005	1,4052340E+000	1,4059516E+000	-2,101738147386076E-002	2,000000000000000E+000	-2,6707578E-001	41	-2,9549421E-005
2	0	0	1	1	2,050449880823868E+005	1,4292170E+000	1,4299191E+000	-1,471392996435985E-002	2,000000000000000E+000	-2,6768628E-001	41	-2,1039730E-005
2	0	0	1	1	2,050792494877480E+005	1,4532000E+000	1,4539368E+000	-7,935844483772339E-003	2,000000000000000E+000	-2,6807317E-001	41	-1,1538216E-005
2	0	0	1	1	2,051135108931093E+005	1,4771830E+000	1,4778978E+000	-6,397094758705713E-004	2,000000000000000E+000	-2,6821920E-001	42	-9,4542520E-007
2	1	0	1	1	2,051477722984683E+005	1,5011659E+000	1,5019158E+000	7,391475586677283E-003	2,000000000000000E+000	-2,6810262E-001	42	1,1101374E-005
2	1	0	1	1	2,051820337038289E+005	1,5251489E+000	1,5258554E+000	1,625670678286780E-002	2,000000000000000E+000	-2,6769757E-001	41	2,4805384E-005
2	1	0	1	1	2,052162951091909E+005	1,5491318E+000	1,5498692E+000	2,639794094643033E-002	2,000000000000000E+000	-2,6696870E-001	41	4,0913354E-005
2	1	0	1	1	2,052505565145514E+005	1,5731148E+000	1,5738060E+000	3,811319822111858E-002	2,000000000000000E+000	-2,6586577E-001	41	5,9982784E-005
2	1	0	1	1	2,052848179199104E+005	1,5970979E+000	1,5978433E+000	5,306535756090780E-002	2,000000000000000E+000	-2,6431611E-001	41	8,4790125E-005
2	1	0	1	1	2,053190793252717E+005	1,6210808E+000	1,6218208E+000	7,763819655758475E-002	2,000000000000000E+000	-2,6210919E-001	41	1,2591525E-004
2	1	0	1	1	2,053533407306334E+005	1,6450636E+000	1,6457665E+000	1,110935016193615E-001	2,000000000000000E+000	-2,5888744E-001	40	1,8283396E-004
2	1	0	1	1	2,053876022359938E+005	1,6690466E+000	1,6697661E+000	1,485080025208978E-001	2,000000000000000E+000	-2,5444627E-001	40	2,4797363E-004
2	1	0	1	1	2,054218636413533E+005	1,6930296E+000	1,6937582E+000	1,896762550284926E-001	2,000000000000000E+000	-2,4866033E-001	40	3,2126572E-004
2	1	0	1	1	2,054561250467146E+005	1,7170125E+000	1,7177621E+000	2,352807089616318E-001	2,000000000000000E+000	-2,4138889E-001	40	4,0415628E-004
2	1	0	1	1	2,054903864520760E+005	1,7409953E+000	1,7417321E+000	2,843092731561212E-001	2,000000000000000E+000	-2,3249091E-001	40	4,9519062E-004
2	1	0	1	1	2,055246478574360E+005	1,7649784E+000	1,7656939E+000	3,343710067310131E-001	2,000000000000000E+000	-2,2188441E-001	40	5,9039687E-004
2	1	0	1	1	2,055589093627958E+005	1,7889615E+000	1,7897025E+000	3,815118669028049E-001	2,000000000000000E+000	-2,0960391E-001	40	6,8279274E-004
2	1	0	1	1	2,055931706681574E+005	1,8129443E+000	1,8136741E+000	4,213174676405158E-001	2,000000000000000E+000	-1,9581681E-001	40	7,6413259E-004
2	1	0	1	1	2,056274321735185E+005	1,8369274E+000	1,8376644E+000	4,488401766944370E-001	2,000000000000000E+000	-1,8086611E-001	40	8,2481757E-004
2	1	0	1	1	2,056616934788777E+005	1,8609102E+000	1,8616582E+000	4,609992669224789E-001	2,000000000000000E+000	-1,6523053E-001	40	8,5822307E-004
2	1	0	1	1	2,056959549842379E+005	1,8848937E+000	1,8856225E+000	4,564129809104589E-001	2,000000000000000E+000	-1,4946526E-001	40	8,6062256E-004
2	1	0	1	1	2,057302163896000E+005	1,9088763E+000	1,9096110E+000	4,367318399778668E-001	2,000000000000000E+000	-1,3412160E-001	40	8,3398790E-004
2	1	0	1	1	2,057644777949606E+005	1,9328594E+000	1,9335816E+000	4,051819459378760E-001	2,000000000000000E+000	-1,1966857E-001	40	7,8345236E-004
2	1	0	1	1	2,057987392003196E+005	1,9568423E+000	1,9575682E+000	3,665620644984644E-001	2,000000000000000E+000	-1,0643256E-001	40	7,1757025E-004
2	1	0	1	1	2,058330006056809E+005	1,9808253E+000	1,9815606E+000	3,254439454991145E-001	2,000000000000000E+000	-9,4573975E-002	40	6,4488692E-004
2	1	0	1	1	2,058672620110423E+005	2,0048082E+000	2,0055492E+000	2,857561125745988E-001	2,000000000000000E+000	-8,4109090E-002	40	5,7309796E-004
2	1	0	1	1	2,059015234164028E+005	2,0287912E+000	2,0295084E+000	2,494726728399330E-001	2,000000000000000E+000	-7,4947268E-002	40	5,0630688E-004
2	1	0	1	1	2,059357848217622E+005	2,0527742E+000	2,0534930E+000	2,170036245259506E-001	2,000000000000000E+000	-6,6965036E-002	40	4,4561544E-004
2	1	0	1	1	2,059700465271237E+005	2,0767570E+000	2,0774524E+000	1,883874726453660E-001	2,000000000000000E+000	-6,0028292E-002	40	3,9136602E-004
2	1	0	1	1	2,060043079324849E+005	2,1007400E+000	2,1014311E+000	1,635610288384408E-001	2,000000000000000E+000	-5,4005582E-002	40	3,4371225E-004
2	1	0	1	1	2,060385694378447E+005	2,1247232E+000	2,1254342E+000	1,423193176498803E-001	2,000000000000000E+000	-4,8771661E-002	40	3,0249034E-004
2	1	0	1	1	2,060728308432046E+005	2,1487062E+000	2,1494033E+000	1,242756898983146E-001	2,000000000000000E+000	-4,4210095E-002	40	2,6711859E-004
2	1	0	1	1	2,061070922485666E+005	2,1726890E+000	2,1734149E+000	1,093064207068482E-001	2,000000000000000E+000	-4,0212221E-002	40	2,3756821E-004
2	1	0	1	1	2,061413535539275E+005	2,1966720E+000	2,1973932E+000	9,682722984698455E-002	2,000000000000000E+000	-3,6683574E-002	40	2,1276750E-004
2	1	0	1	1	2,061756150592864E+005	2,2206547E+000	2,2213724E+000	8,648837141934074E-002	2,000000000000000E+000	-3,3544600E-002	40	1,9212288E-004
2	1	0	1	1	2,062098762646472E+005	2,2446380E+000	2,2453642E+000	7,789464369741195E-002	2,000000000000000E+000	-3,0728903E-002	40	1,7490184E-004
2	1	0	1	1	2,062441376700089E+005	2,2686210E+000	2,2693491E+000	7,068451385191799E-002	2,000000000000000E+000	-2,8183335E-002	40	1,6040784E-004
2	1	0	1	1	2,062783991753692E+005	2,2926035E+000	2,2933168E+000	6,455057995039082E-002	2,000000000000000E+000	-2,5865890E-002	40	1,4803493E-004
2	1	0	1	1	2,063126605807287E+005	2,3165870E+000	2,3173084E+000	5,933224552836713E-002	2,000000000000000E+000	-2,3742059E-002	40	1,3749111E-004
2	1	0	1	1	2,063469220860901E+005	2,3405697E+000	2,3412588E+000	5,483808988384042E-002	2,000000000000000E+000	-2,1784123E-002	40	1,2839017E-004
2	1	0	1	1	2,063811834914512E+005	2,3645527E+000	2,3652339E+000	5,094370686850647E-002	2,000000000000000E+000	-1,9969705E-002	40	1,2049378E-004
2	1	0	1	1	2,064155876968349E+005	2,3886356E+000	2,3893611E+000	4,747697645659932E-002	2,000000000000000E+000	-1,8272685E-002	41	1,1343964E-004
2	1	0	1	1	2,064498491021935E+005	2,4126186E+000	2,4133058E+000	4,459979472106501E-002	2,000000000000000E+000	-1,6692366E-002	41	1,0763294E-004
2	1	0	1	1	2,064841105075546E+005	2,4366016E+000	2,4373479E+000	4,218912510691430E-002	2,000000000000000E+000	-1,5202123E-002	41	1,0282957E-004
2	1	0	1	1	2,065183719129164E+005	2,4605846E+000	2,4612994E+000	4,000603472228936E-002	2,000000000000000E+000	-1,3790408E-002	41	9,8466830E-005
2	1	0	1	1	2,065526335182767E+005	2,4845674E+000	2,4852707E+000	3,788106562950705E-002	2,000000000000000E+000	-1,2452443E-002	41	9,4144707E-005
2	1	0	1	1	2,065868947236361E+005	2,5085506E+000	2,5092621E+000	3,587744746349297E-002	2,000000000000000E+000	-1,1185145E-002	41	9,0025918E-005
2	1	0	1	1	2,066211561289973E+005	2,5325334E+000	2,5332417E+000	3,406053901119044E-002	2,000000000000000E+000	-9,9834036E-003	41	8,6283580E-005
2	1	0	1	1	2,066554174343585E+005	2,5565164E+000	2,5572169E+000	3,236035535545512E-002	2,000000000000000E+000	-8,8421078E-003	41	8,2752449E-005
2	1	0	1	1	2,066896788397180E+005	2,5804992E+000	2,5812011E+000	3,079124618923895E-002	2,000000000000000E+000	-7,7565121E-003	41	7,9478399E-005
2	1	0	1	1	2,067239403450782E+005	2,6044824E+000	2,6051614E+000	2,946743306005767E-002	2,000000000000000E+000	-6,7209704E-003	41	7,6767421E-005
2	1	0	1	1	2,067582017504401E+005	2,6284654E+000	2,6291537E+000	2,842990210642060E-002	2,000000000000000E+000	-5,7253265E-003	41	7,4746582E-005
2	1	0	1	1	2,067924632558012E+005	2,6524484E+000	2,6531520E+000	2,733323717512583E-002	2,000000000000000E+000	-4,7653951E-003	41	7,2519229E-005
2	1	0	1	1	2,068267246611603E+005	2,6764312E+000	2,6771274E+000	2,607118083759796E-002	2,000000000000000E+000	-3,8465019E-003	41	6,9795875E-005
2	1	0	1	1	2,068609861665207E+005	2,7004144E+000	2,7010968E+000	2,491289580115025E-002	2,000000000000000E+000	-2,9696021E-003	41	6,7292145E-005
2	1	0	1	1	2,068952475718828E+005	2,7243974E+000	2,7250860E+000	2,398384393234274E-002	2,000000000000000E+000	-2,1287703E-003	41	6,5358035E-005
2	1	0	1	1	2,069295087772431E+005	2,7483802E+000	2,7490966E+000	2,321783458073358E-002	2,000000000000000E+000	-1,3171521E-003	41	6,3828069E-005
2	1	0	1	1	2,069637701826026E+005	2,7723634E+000	2,7730534E+000	2,265937799408509E-002	2,000000000000000E+000	-5,2825821E-004	41	6,2835665E-005
2	1	0	1	1	2,069980315879639E+005	2,7963464E+000	2,7970746E+000	2,231361522971597E-002	2,000000000000000E+000	2,4529421E-004	41	6,2412844E-005
2	1	0	1	1	2,070322929933253E+005	2,8203292E+000	2,8210380E+000	2,220722883546070E-002	2,000000000000000E+000	1,0111884E-003	41	6,2647436E-005
2	1	0	1	1	2,070665543986848E+005	2,8443122E+000	2,8450243E+000	2,212522959169996E-002	2,000000000000000E+000	1,7750540E-003	41	6,2946820E-005
2	1	0	1	1	2,071008158040449E+005	2,8682950E+000	2,8690126E+000	2,175304875332232E-002	2,000000000000000E+000	2,5309562E-003	41	6,2409774E-005
2	1	0	1	1	2,071350773094065E+005	2,8922782E+000	2,8929501E+000	2,125926687518792E-002	2,000000000000000E+000	3,2716759E-003	41	6,1501996E-005
2	1	0	1	1	2,071693388147675E+005	2,9162610E+000	2,9169350E+000	2,078967344554747E-002	2,000000000000000E+000	3,9959108E-003	41	6,0642127E-005
2	1	0	1	1	2,072036002201270E+005	2,9402442E+000	2,9409244E+000	2,028820892301192E-002	2,000000000000000E+000	4,7034752E-003	41	5,9666090E-005
2	1	0	1	1	2,072378615254872E+005	2,9642270E+000	2,9649100E+000	1,978225010241591E-002	2,000000000000000E+000	5,3934376E-003	41	5,8652593E-005
2	1	0	1	1	2,072721229308494E+005	2,9882097E+000	2,9889083E+000	1,944722983866546E-002	2,000000000000000E+000	6,0692197E-003	41	5,8125988E-005
2	1	0	1	0	2,073039574358291E+005	2,9894092E+000	2,9900994E+000	1,337807027510241E-002	2,000000000000000E+000	6,6196839E-003	41	4,0001760E-005
2	1	0	1	0	2,073382188411902E+005	2,9654262E+000	2,9660852E+000	9,850437137149726E-003	2,000000000000000E+000	7,0069567E-003	41	2,9217235E-005
2	1	0	1	0	2,073724802465513E+005	2,9414432E+000	2,9421463E+000	7,747789894643923E-003	2,000000000000000E+000	7,3021022E-003	41	2,2795131E-005
2	1	0	1	0	2,074067417519111E+005	2,9174602E+000	2,9181452E+000	6,274050445244428E-003	2,000000000000000E+000	7,5368956E-003	41	1,8308590E-005
2	1	0	1	0	2,074410031572713E+005	2,8934770E+000	2,8941946E+000	5,104770788773173E-003	2,000000000000000E+000	7,7271918E-003	42	1,4774200E-005
2	1	0	1	0	2,074752644626329E+005	2,8694940E+000	2,8701999E+000	4,189314790505505E-003	2,000000000000000E+000	7,8818668E-003	42	1,2024171E-005
2	1	0	1	0	2,075095258679935E+005	2,8455112E+000	2,8462234E+000	3,426353844247679E-003	2,000000000000000E+000	8,0079259E-003	42	9,7521679E-006
2	1	0	1	0	2,075437870733528E+005	2,8215282E+000	2,8222177E+000	2,840651615775128E-003	2,000000000000000E+000	8,1108082E-003	42	8,0169375E-006
2	1	0	1	0	2,075780485787137E+005	2,7975452E+000	2,7982717E+000	2,349393191625670E-003	2,000000000000000E+000	8,1953714E-003	42	6,5742402E-006
2	1	0	1	0	2,076123099840758E+005	2,7735622E+000	2,7742705E+000	1,941522230119999E-003	2,000000000000000E+000	8,2647214E-003	42	5,3863077E-006
2	1	0	1	0	2,076465710894358E+005	2,7495797E+000	2,7502813E+000	1,560933839309712E-003	2,000000000000000E+000	8,3206482E-003	42	4,2930074E-006
2	1	0	1	0	2,076808325947952E+005	2,7255962E+000	2,7263162E+000	1,206570624348882E-003	2,000000000000000E+000	8,3641522E-003	42	3,2894930E-006
2	1	0	1	0	2,077150940001567E+005	2,7016134E+000	2,7023253E+000	8,737319931512028E-004	2,000000000000000E+000	8,3957901E-003	42	2,3611080E-006
2	1	0	1	0	2,077493555055179E+005	2,6776302E+000	2,6783416E+000	5,076071259232190E-004	2,000000000000000E+000	8,4155202E-003	42	1,3595453E-006
2	1	0	1	0	2,077864719113247E+005	2,6516488E+000	2,6523659E+000	1,601797536120453E-005	2,000000000000000E+000	8,4217936E-003	43	4,2485532E-008
2	0	0	1	0	2,078224464169540E+005	2,6264665E+000	2,6271644E+000	-5,609184724188270E-004	2,000000000000000E+000	8,4085902E-003	43	-1,4736250E-006
2	0	0	1	0	2,078567075223131E+005	2,6024837E+000	2,6031644E+000	-9,719223769726407E-004	2,000000000000000E+000	8,3779842E-003	42	-2,5300737E-006
2	0	0	1	0	2,078909688276743E+005	2,5785007E+000	2,5791943E+000	-1,138262125446331E-003	2,000000000000000E+000	8,3377482E-003	42	-2,9357991E-006
2	0	0	1	0	2,079252302330355E+005	2,5545180E+000	2,5552104E+000	-1,303392660555989E-003	2,000000000000000E+000	8,2921749E-003	42	-3,3304425E-006
2	0	0	1	0	2,079594915383952E+005	2,5305350E+000	2,5312295E+000	-1,607939086257962E-003	2,000000000000000E+000	8,2386043E-003	42	-4,0700629E-006
2	0	0	1	0	2,079937529437556E+005	2,5065520E+000	2,5072405E+000	-1,962802880689601E-003	2,000000000000000E+000	8,1737442E-003	42	-4,9212190E-006
2	0	0	1	0	2,080280144491171E+005	2,4825687E+000	2,4832644E+000	-2,284176687936446E-003	2,000000000000000E+000	8,0969473E-003	42	-5,6722147E-006
2	0	0	1	0	2,080622755544782E+005	2,4585862E+000	2,4592853E+000	-2,663715939139517E-003	2,000000000000000E+000	8,0080247E-003	42	-6,5508375E-006
2	0	0	1	0	2,080965369598372E+005	2,4346032E+000	2,4353180E+000	-3,015419001021198E-003	2,000000000000000E+000	7,9069054E-003	42	-7,3435040E-006
2	0	0	1	0	2,081307984651980E+005	2,4106200E+000	2,4113343E+000	-3,373329019066906E-003	2,000000000000000E+000	7,7934256E-003	42	-8,1342241E-006
2	0	0	1	0	2,081650598705600E+005	2,3866370E+000	2,3873644E+000	-3,698255513272172E-003	2,000000000000000E+000	7,6684305E-003	42	-8,8290835E-006
2	0	0	1	0	2,081993213759204E+005	2,3626537E+000	2,3633513E+000	-4,083994764158876E-003	2,000000000000000E+000	7,5311502E-003	42	-9,6519143E-006
2	0	0	1	0	2,082335825812798E+005	2,3386710E+000	2,3393772E+000	-4,540597097621353E-003	2,000000000000000E+000	7,3793945E-003	42	-1,0622170E-005
2	0	0	1	0	2,082678436866408E+005	2,3146882E+000	2,3153899E+000	-5,094778421672080E-003	2,000000000000000E+000	7,2107548E-003	42	-1,1796398E-005
2	0	0	1	0	2,083021051920019E+005	2,2907050E+000	2,2914085E+000	-5,653308374345190E-003	2,000000000000000E+000	7,0232395E-003	42	-1,2954039E-005
2	0	0	1	0	2,083363663973622E+005	2,2667222E+000	2,2674148E+000	-6,289846489807072E-003	2,000000000000000E+000	6,8146200E-003	42	-1,4261691E-005
2	0	0	1	0	2,083706278027219E+005	2,2427397E+000	2,2434201E+000	-7,028500774879418E-003	2,000000000000000E+000	6,5826159E-003	42	-1,5767881E-005
2	0	0	1	0	2,084048893080837E+005	2,2187560E+000	2,2194731E+000	-7,819876723086205E-003	2,000000000000000E+000	6,3247238E-003	42	-1,7356006E-005
2	0	0	1	0	2,084391504134447E+005	2,1947734E+000	2,1954606E+000	-8,702066767848893E-003	2,000000000000000E+000	6,0379007E-003	42	-1,9105044E-005
2	0	0	1	0	2,084734118188038E+005	2,1707904E+000	2,1715286E+000	-9,673184882650288E-003	2,000000000000000E+000	5,7191029E-003	42	-2,1005597E-005
2	0	0	1	0	2,085076733241646E+005	2,1468072E+000	2,1475134E+000	-1,079047442760692E-002	2,000000000000000E+000	5,3645102E-003	41	-2,3172688E-005
2	0	0	1	0	2,085419347295265E+005	2,1228242E+000	2,1235335E+000	-1,206041156170831E-002	2,000000000000000E+000	4,9694185E-003	41	-2,5610689E-005
2	0	0	1	0	2,085761962348870E+005	2,0988414E+000	2,0995593E+000	-1,343252552390911E-002	2,000000000000000E+000	4,5290701E-003	41	-2,8202385E-005
2	0	0	1	0	2,086104576402465E+005	2,0748584E+000	2,0755911E+000	-1,497986450389876E-002	2,000000000000000E+000	4,0385658E-003	41	-3,1092073E-005
2	0	0	1	0	2,086332970438204E+005	2,0588205E+000	2,0595601E+000	-1,634738273918629E-002	2,000000000000000E+000	3,6810704E-003	41	-3,3668417E-005