File: Dati/210416/CV_LTO-CB_05_CV_C05.mpt
EC-Lab ASCII FILE
Nb header lines : 57

Cyclic Voltammetry

Run on channel : 5 (SN 6809)
User : Seelab
Electrode connection : standard
Ewe ctrl range : min = 0,00 V, max = 5,00 V
Ewe,I filtering : 50 kHz
Safety Limits :
	Do not start on E overload
Channel : Grounded
Acquisition started on : 04/16/2021 18:38:45
Saved on :
	File : CV_LTO-CB_05_CV_C05.mpr
	Directory : C:\Users\labsuperfici\Desktop\Biologic\Users\Prisca Viviani\210416\
	Host : 10.78.33.0
Device : VSP-300 (SN 0638)
Address : USB
EC-Lab for windows v11.31 (software)
Internet server v11.30 (firmware)
Command interpretor v11.31 (firmware)
Electrode material :
Initial state :
Electrolyte :
Comments :
Cable : standard
Reference electrode : SCE Saturated Calomel Electrode (0,241 V)
Electrode surface area : 0,001 cm²
Characteristic mass : 0,001 g
Equivalent Weight : 0,000 g/eq.
Density : 0,000 g/cm3
Cycle Definition : Charge/Discharge alternance
Ei (V)              0,000
vs.                 Eoc
dE/dt               0,400
dE/dt unit          mV/s
E1 (V)              1,000
vs.                 Ref
Step percent        50
N                   10
E range min (V)     0,000
E range max (V)     5,000
I Range             Auto
I Range min         Unset
I Range max         Unset
I Range init        Unset
Bandwidth           8
E2 (V)              3,000
vs.                 Ref
nc cycles           1
Reverse Scan        1
Ef (V)              0,000
vs.                 Eoc

mode	ox/red	error	control changes	counter inc.	time/s	control/V	Ewe/V	<I>/mA	cycle number	(Q-Qo)/C	I Range	P/W
2	0	0	1	0	1,478715323369295E+005	2,0588205E+000	2,0594685E+000	-8,206616155803204E-003	1,000000000000000E+000	0,0000000E+000	42	-1,6901267E-005
2	0	0	1	0	1,479303651461340E+005	2,0352864E+000	2,0359638E+000	-9,806260752338286E-003	1,000000000000000E+000	-5,3208403E-004	42	-1,9965191E-005
2	0	0	1	0	1,479903226555167E+005	2,0113037E+000	2,0120211E+000	-1,127847358538801E-002	1,000000000000000E+000	-1,1668949E-003	41	-2,2692526E-005
2	0	0	1	0	1,480502804648969E+005	1,9873208E+000	1,9880086E+000	-1,280820867219556E-002	1,000000000000000E+000	-1,8921271E-003	41	-2,5462828E-005
2	0	0	1	0	1,481102376742763E+005	1,9633378E+000	1,9640565E+000	-1,440480229245827E-002	1,000000000000000E+000	-2,7104917E-003	41	-2,8291846E-005
2	0	0	1	0	1,481701950836591E+005	1,9393547E+000	1,9400541E+000	-1,611391679600660E-002	1,000000000000000E+000	-3,6282144E-003	41	-3,1261869E-005
2	0	0	1	0	1,482301524930410E+005	1,9153717E+000	1,9160906E+000	-1,799735125721502E-002	1,000000000000000E+000	-4,6535996E-003	41	-3,4484554E-005
2	0	0	1	0	1,482901098024207E+005	1,8913887E+000	1,8920883E+000	-2,008470852189043E-002	1,000000000000000E+000	-5,7975561E-003	41	-3,8002043E-005
2	0	0	1	0	1,483500673118010E+005	1,8674059E+000	1,8680911E+000	-2,235290065287965E-002	1,000000000000000E+000	-7,0719938E-003	41	-4,1757256E-005
2	0	0	1	0	1,484100247211838E+005	1,8434230E+000	1,8441578E+000	-2,481546867113943E-002	1,000000000000000E+000	-8,4885564E-003	41	-4,5763642E-005
2	0	0	1	0	1,484699821305645E+005	1,8194399E+000	1,8201511E+000	-2,754086228666261E-002	1,000000000000000E+000	-1,0060466E-002	41	-5,0128532E-005
2	0	0	1	0	1,485299393399446E+005	1,7954569E+000	1,7961615E+000	-3,052462031168135E-002	1,000000000000000E+000	-1,1803411E-002	41	-5,4827149E-005
2	0	0	1	0	1,485898969493257E+005	1,7714739E+000	1,7721778E+000	-3,382146586256685E-002	1,000000000000000E+000	-1,3734185E-002	41	-5,9937651E-005
2	0	0	1	0	1,486498543587085E+005	1,7474909E+000	1,7481967E+000	-3,746245708103924E-002	1,000000000000000E+000	-1,5873181E-002	41	-6,5491746E-005
2	0	0	1	0	1,487098115680884E+005	1,7235080E+000	1,7242069E+000	-4,144017467279210E-002	1,000000000000000E+000	-1,8240655E-002	41	-7,1451439E-005
2	0	0	1	0	1,487697689774681E+005	1,6995250E+000	1,7002223E+000	-4,579173497002620E-002	1,000000000000000E+000	-2,0856766E-002	41	-7,7856130E-005
2	0	0	1	0	1,488297265868504E+005	1,6755421E+000	1,6762295E+000	-5,050750816082004E-002	1,000000000000000E+000	-2,3744605E-002	41	-8,4662177E-005
2	0	0	1	0	1,488896838962322E+005	1,6515590E+000	1,6522440E+000	-5,552276130190226E-002	1,000000000000000E+000	-2,6924107E-002	41	-9,1737151E-005
2	0	0	1	0	1,489496413056123E+005	1,6275760E+000	1,6282564E+000	-6,096743572666319E-002	1,000000000000000E+000	-3,0418754E-002	41	-9,9270619E-005
2	0	0	1	0	1,490095988149927E+005	1,6035930E+000	1,6042476E+000	-6,705562541736088E-002	1,000000000000000E+000	-3,4256652E-002	41	-1,0757383E-004
2	0	0	1	0	1,490695563243749E+005	1,5796101E+000	1,5803064E+000	-7,387276455099290E-002	1,000000000000000E+000	-3,8480800E-002	41	-1,1674160E-004
2	0	0	1	0	1,491295134337558E+005	1,5556271E+000	1,5563241E+000	-8,162176757809747E-002	1,000000000000000E+000	-4,3138690E-002	41	-1,2702993E-004
2	0	0	1	0	1,491894708431356E+005	1,5316442E+000	1,5323310E+000	-9,084136791025894E-002	1,000000000000000E+000	-4,8305359E-002	41	-1,3919904E-004
2	0	0	1	0	1,492494283525171E+005	1,5076611E+000	1,5083388E+000	-1,015818318440747E-001	1,000000000000000E+000	-5,4068670E-002	41	-1,5321982E-004
2	0	0	1	0	1,493093856619000E+005	1,4836783E+000	1,4843664E+000	-1,140045789669055E-001	1,000000000000000E+000	-6,0522124E-002	40	-1,6922457E-004
2	0	0	1	0	1,493693431712795E+005	1,4596952E+000	1,4603933E+000	-1,276087653865572E-001	1,000000000000000E+000	-6,7766532E-002	40	-1,8635899E-004
2	0	0	1	0	1,494293004806596E+005	1,4357125E+000	1,4363977E+000	-1,411386995351473E-001	1,000000000000000E+000	-7,5831704E-002	40	-2,0273130E-004
2	0	0	1	0	1,494892576900413E+005	1,4117293E+000	1,4124027E+000	-1,534173275918111E-001	1,000000000000000E+000	-8,4679283E-002	40	-2,1668705E-004
2	0	0	1	0	1,495492151994237E+005	1,3877462E+000	1,3884323E+000	-1,636041067149234E-001	1,000000000000000E+000	-9,4200321E-002	40	-2,2715321E-004
2	0	0	1	0	1,496091727088037E+005	1,3637633E+000	1,3644811E+000	-1,717775459500603E-001	1,000000000000000E+000	-1,0427174E-001	40	-2,3438722E-004
2	0	0	1	0	1,496691301181838E+005	1,3397803E+000	1,3404779E+000	-1,777013800188549E-001	1,000000000000000E+000	-1,1476448E-001	40	-2,3820478E-004
2	0	0	1	0	1,497290873275665E+005	1,3157976E+000	1,3165220E+000	-1,814893197586200E-001	1,000000000000000E+000	-1,2554683E-001	40	-2,3893468E-004
2	0	0	1	0	1,497890447369476E+005	1,2918144E+000	1,2925106E+000	-1,834143369043419E-001	1,000000000000000E+000	-1,3649720E-001	40	-2,3706497E-004
2	0	0	1	0	1,498490022463272E+005	1,2678314E+000	1,2685190E+000	-1,836651159308236E-001	1,000000000000000E+000	-1,4751334E-001	40	-2,3298270E-004
2	0	0	1	0	1,499089595557088E+005	1,2438486E+000	1,2445650E+000	-1,823623860387760E-001	1,000000000000000E+000	-1,5849704E-001	40	-2,2696184E-004
2	0	0	1	0	1,499689169650911E+005	1,2198657E+000	1,2205693E+000	-1,797015453513970E-001	1,000000000000000E+000	-1,6936181E-001	40	-2,1933818E-004
2	0	0	1	0	1,500288743744712E+005	1,1958827E+000	1,1966007E+000	-1,758342250256374E-001	1,000000000000000E+000	-1,8002887E-001	40	-2,1040335E-004
2	0	0	1	0	1,500888315838510E+005	1,1718997E+000	1,1726080E+000	-1,710213988194413E-001	1,000000000000000E+000	-1,9043304E-001	40	-2,0054106E-004
2	0	0	1	0	1,501487890932332E+005	1,1479167E+000	1,1486384E+000	-1,656854639950360E-001	1,000000000000000E+000	-2,0053323E-001	40	-1,9031268E-004
2	0	0	1	0	1,502087466026151E+005	1,1239337E+000	1,1246454E+000	-1,601002874183561E-001	1,000000000000000E+000	-2,1030399E-001	40	-1,8005604E-004
2	0	0	1	0	1,502687040119952E+005	1,0999508E+000	1,1006604E+000	-1,544777503724033E-001	1,000000000000000E+000	-2,1973813E-001	40	-1,7002755E-004
2	0	0	1	0	1,503286612213752E+005	1,0759679E+000	1,0766718E+000	-1,489297731033951E-001	1,000000000000000E+000	-2,2883689E-001	40	-1,6034850E-004
2	0	0	1	0	1,503886186307580E+005	1,0519849E+000	1,0526979E+000	-1,435014212065417E-001	1,000000000000000E+000	-2,3760623E-001	40	-1,5106365E-004
2	0	0	1	0	1,504485761401386E+005	1,0280018E+000	1,0287250E+000	-1,383856871332427E-001	1,000000000000000E+000	-2,4605812E-001	40	-1,4236082E-004
2	0	0	1	0	1,505085334495187E+005	1,0040189E+000	1,0047388E+000	-1,338096765397450E-001	1,000000000000000E+000	-2,5421882E-001	40	-1,3444378E-004
2	0	0	1	0	1,505649939583540E+005	1,0185084E+000	1,0192331E+000	-1,097436370421017E-001	1,000000000000000E+000	-2,6109639E-001	40	-1,1185435E-004
2	0	0	1	0	1,506249514677345E+005	1,0424916E+000	1,0432146E+000	-9,298931583483339E-002	1,000000000000000E+000	-2,6713800E-001	40	-9,7007811E-005
2	0	0	1	0	1,506849088771145E+005	1,0664746E+000	1,0671864E+000	-8,066464445865273E-002	1,000000000000000E+000	-2,7232441E-001	40	-8,6084205E-005
2	0	0	1	0	1,507448663864960E+005	1,0904574E+000	1,0911843E+000	-7,082830086478964E-002	1,000000000000000E+000	-2,7685195E-001	40	-7,7286728E-005
2	0	0	1	0	1,508048237958788E+005	1,1144403E+000	1,1151516E+000	-6,265018727640492E-002	1,000000000000000E+000	-2,8084356E-001	40	-6,9864458E-005
2	0	0	1	0	1,508647813052585E+005	1,1384234E+000	1,1391343E+000	-5,575269008955508E-002	1,000000000000000E+000	-2,8438470E-001	40	-6,3509804E-005
2	0	0	1	0	1,509247389146383E+005	1,1624063E+000	1,1631352E+000	-4,977990370609531E-002	1,000000000000000E+000	-2,8754041E-001	40	-5,7900757E-005
2	0	0	1	0	1,509846963240211E+005	1,1863894E+000	1,1871026E+000	-4,469466793659604E-002	1,000000000000000E+000	-2,9036734E-001	41	-5,3057156E-005
2	0	0	1	0	1,510446538334026E+005	1,2103724E+000	1,2110707E+000	-4,012080701196141E-002	1,000000000000000E+000	-2,9290307E-001	41	-4,8589132E-005
2	0	0	1	0	1,511046112427823E+005	1,2343552E+000	1,2350649E+000	-3,606316960433376E-002	1,000000000000000E+000	-2,9518107E-001	41	-4,4540353E-005
2	0	0	1	0	1,511645687521636E+005	1,2583383E+000	1,2590338E+000	-3,239783343846003E-002	1,000000000000000E+000	-2,9722884E-001	41	-4,0789968E-005
2	0	0	1	0	1,512245263615460E+005	1,2823212E+000	1,2830132E+000	-2,898451036212379E-002	1,000000000000000E+000	-2,9906493E-001	41	-3,7187510E-005
2	0	0	1	0	1,512844837709258E+005	1,3063043E+000	1,3070115E+000	-2,564757629426973E-002	1,000000000000000E+000	-3,0069891E-001	41	-3,3521676E-005
2	0	0	1	0	1,513444411803058E+005	1,3302872E+000	1,3309958E+000	-2,229660732857741E-002	1,000000000000000E+000	-3,0213299E-001	41	-2,9676690E-005
2	0	0	1	0	1,514043986896882E+005	1,3542701E+000	1,3549823E+000	-1,887055620722622E-002	1,000000000000000E+000	-3,0336452E-001	41	-2,5569268E-005
2	0	0	1	0	1,514643561990701E+005	1,3782531E+000	1,3789620E+000	-1,531766577694960E-002	1,000000000000000E+000	-3,0438694E-001	41	-2,1122480E-005
2	0	0	1	0	1,515243137084496E+005	1,4022361E+000	1,4029419E+000	-1,156182136957717E-002	1,000000000000000E+000	-3,0519059E-001	41	-1,6220563E-005
2	0	0	1	0	1,515842712178305E+005	1,4262191E+000	1,4269223E+000	-7,581036960495811E-003	1,000000000000000E+000	-3,0576229E-001	41	-1,0817551E-005
2	0	0	1	0	1,516442286272133E+005	1,4502020E+000	1,4508941E+000	-3,313447368807225E-003	1,000000000000000E+000	-3,0608726E-001	42	-4,8074612E-006
2	1	0	1	0	1,517041860365934E+005	1,4741850E+000	1,4748865E+000	1,308433437310207E-003	1,000000000000000E+000	-3,0614623E-001	42	1,9297909E-006
2	1	0	1	0	1,517641435459733E+005	1,4981679E+000	1,4988858E+000	6,322934018296797E-003	1,000000000000000E+000	-3,0591670E-001	42	9,4773559E-006
2	1	0	1	0	1,518241011553546E+005	1,5221509E+000	1,5228546E+000	1,178864089431866E-002	1,000000000000000E+000	-3,0537367E-001	41	1,7952385E-005
2	1	0	1	0	1,518840584647376E+005	1,5461339E+000	1,5468353E+000	1,796378918528004E-002	1,000000000000000E+000	-3,0448338E-001	41	2,7787024E-005
2	1	0	1	0	1,519440160741174E+005	1,5701170E+000	1,5707978E+000	2,523671308114450E-002	1,000000000000000E+000	-3,0319092E-001	41	3,9641774E-005
2	1	0	1	0	1,520039734834973E+005	1,5941000E+000	1,5947949E+000	3,440060516829019E-002	1,000000000000000E+000	-3,0141604E-001	41	5,4861910E-005
2	1	0	1	0	1,520639309928799E+005	1,6180826E+000	1,6187785E+000	4,996598236413519E-002	1,000000000000000E+000	-2,9892769E-001	41	8,0883859E-005
2	1	0	1	0	1,521238885022614E+005	1,6420656E+000	1,6427563E+000	7,224072723540598E-002	1,000000000000000E+000	-2,9528233E-001	41	1,1867391E-004
2	1	0	1	0	1,521838459116411E+005	1,6660488E+000	1,6667602E+000	9,814045791295634E-002	1,000000000000000E+000	-2,9018432E-001	41	1,6357661E-004
2	1	0	1	0	1,522438036210225E+005	1,6900318E+000	1,6907470E+000	1,262677165693065E-001	1,000000000000000E+000	-2,8345880E-001	40	2,1348677E-004
2	1	0	1	0	1,523037609304050E+005	1,7140148E+000	1,7147214E+000	1,557392271691054E-001	1,000000000000000E+000	-2,7500555E-001	40	2,6704939E-004
2	1	0	1	0	1,523637185397849E+005	1,7379978E+000	1,7386850E+000	1,863531015106002E-001	1,000000000000000E+000	-2,6474977E-001	40	3,2400934E-004
2	1	0	1	0	1,524236759491647E+005	1,7619807E+000	1,7626661E+000	2,179679625823097E-001	1,000000000000000E+000	-2,5262585E-001	40	3,8420473E-004
2	1	0	1	0	1,524836334585468E+005	1,7859634E+000	1,7866768E+000	2,486825018719592E-001	1,000000000000000E+000	-2,3861891E-001	40	4,4431526E-004
2	1	0	1	0	1,525435909679288E+005	1,8099468E+000	1,8106567E+000	2,754026350688347E-001	1,000000000000000E+000	-2,2287530E-001	40	4,9865962E-004
2	1	0	1	0	1,526035483773084E+005	1,8339297E+000	1,8346344E+000	2,951867686580991E-001	1,000000000000000E+000	-2,0572238E-001	40	5,4155983E-004
2	1	0	1	0	1,526635057866895E+005	1,8579125E+000	1,8586174E+000	3,052280798143312E-001	1,000000000000000E+000	-1,8766408E-001	40	5,6730222E-004
2	1	0	1	0	1,527234632960721E+005	1,8818953E+000	1,8825911E+000	3,045206667914921E-001	1,000000000000000E+000	-1,6932265E-001	40	5,7328789E-004
2	1	0	1	0	1,527834209054521E+005	1,9058784E+000	1,9065713E+000	2,933998144848939E-001	1,000000000000000E+000	-1,5134518E-001	40	5,5938767E-004
2	1	0	1	0	1,528433782148322E+005	1,9298614E+000	1,9305478E+000	2,737903264399104E-001	1,000000000000000E+000	-1,3429923E-001	40	5,2856532E-004
2	1	0	1	0	1,529033358242149E+005	1,9538445E+000	1,9545209E+000	2,484535207762049E-001	1,000000000000000E+000	-1,1861455E-001	40	4,8560760E-004
2	1	0	1	0	1,529632931335964E+005	1,9778273E+000	1,9785068E+000	2,200992800006265E-001	1,000000000000000E+000	-1,0455504E-001	40	4,3546793E-004
2	1	0	1	0	1,530232507429763E+005	2,0018101E+000	2,0025191E+000	1,914823088625970E-001	1,000000000000000E+000	-9,2216529E-002	40	3,8344698E-004
2	1	0	1	0	1,530832082523564E+005	2,0257931E+000	2,0264866E+000	1,643465459854837E-001	1,000000000000000E+000	-8,1558801E-002	40	3,3304607E-004
2	1	0	1	0	1,531431657617390E+005	2,0497761E+000	2,0504684E+000	1,399982590484707E-001	1,000000000000000E+000	-7,2447546E-002	40	2,8706202E-004
2	1	0	1	0	1,532031236711199E+005	2,0737593E+000	2,0744567E+000	1,189501433684337E-001	1,000000000000000E+000	-6,4698018E-002	40	2,4675691E-004
2	1	0	1	0	1,532630811804996E+005	2,0977421E+000	2,0983906E+000	1,012217137442737E-001	1,000000000000000E+000	-5,8110155E-002	40	2,1240269E-004
2	1	0	1	0	1,533230386898825E+005	2,1217253E+000	2,1224334E+000	8,671169917890076E-002	1,000000000000000E+000	-5,2485913E-002	40	1,8403980E-004
2	1	0	1	0	1,533829965992637E+005	2,1457081E+000	2,1463842E+000	7,494607075615600E-002	1,000000000000000E+000	-4,7648508E-002	40	1,6086307E-004
2	1	0	1	0	1,534429541086438E+005	2,1696911E+000	2,1703622E+000	6,550073818363411E-002	1,000000000000000E+000	-4,3443386E-002	40	1,4216032E-004
2	1	0	1	0	1,535029114180240E+005	2,1936741E+000	2,1943240E+000	5,786585603488426E-002	1,000000000000000E+000	-3,9748471E-002	40	1,2697643E-004
2	1	0	1	0	1,535628688274063E+005	2,2176571E+000	2,2183516E+000	5,164507996515511E-002	1,000000000000000E+000	-3,6466304E-002	40	1,1456694E-004
2	1	0	1	0	1,536230765368263E+005	2,2417402E+000	2,2424116E+000	4,635587384632950E-002	1,000000000000000E+000	-3,3515703E-002	41	1,0394895E-004
2	1	0	1	0	1,536830340462059E+005	2,2657232E+000	2,2663877E+000	4,203165943907328E-002	1,000000000000000E+000	-3,0865172E-002	41	9,5260039E-005
2	1	0	1	0	1,537429912555879E+005	2,2897055E+000	2,2903948E+000	3,838796409227385E-002	1,000000000000000E+000	-2,8452508E-002	41	8,7923596E-005
2	1	0	1	0	1,538029491649703E+005	2,3136885E+000	2,3143582E+000	3,524098609399168E-002	1,000000000000000E+000	-2,6243100E-002	41	8,1560269E-005
2	1	0	1	0	1,538629066743501E+005	2,3376718E+000	2,3383555E+000	3,256899075204159E-002	1,000000000000000E+000	-2,4207208E-002	41	7,6157878E-005
2	1	0	1	0	1,539228641837304E+005	2,3616548E+000	2,3623402E+000	3,023727419794696E-002	1,000000000000000E+000	-2,2321962E-002	41	7,1430732E-005
2	1	0	1	0	1,539828220931133E+005	2,3856378E+000	2,3863392E+000	2,822784994474659E-002	1,000000000000000E+000	-2,0566659E-002	41	6,7361223E-005
2	1	0	1	0	1,540427796024940E+005	2,4096208E+000	2,4103055E+000	2,651564334235562E-002	1,000000000000000E+000	-1,8923037E-002	41	6,3910804E-005
2	1	0	1	0	1,541027371118739E+005	2,4336038E+000	2,4342687E+000	2,505758036377437E-002	1,000000000000000E+000	-1,7373828E-002	41	6,0996885E-005
2	1	0	1	0	1,541626946212547E+005	2,4575865E+000	2,4582429E+000	2,374957863789996E-002	1,000000000000000E+000	-1,5906688E-002	41	5,8382233E-005
2	1	0	1	0	1,542226525306380E+005	2,4815695E+000	2,4822199E+000	2,247382586121527E-002	1,000000000000000E+000	-1,4517080E-002	41	5,5784978E-005
2	1	0	1	0	1,542826097400179E+005	2,5055528E+000	2,5062118E+000	2,128473035099016E-002	1,000000000000000E+000	-1,3201449E-002	41	5,3344040E-005
2	1	0	1	0	1,543425672493977E+005	2,5295358E+000	2,5302279E+000	2,019115149779223E-002	1,000000000000000E+000	-1,1954426E-002	41	5,1088216E-005
2	1	0	1	0	1,544025248587807E+005	2,5535183E+000	2,5541592E+000	1,915114569043481E-002	1,000000000000000E+000	-1,0770930E-002	41	4,8915073E-005
2	1	0	1	0	1,544624823681612E+005	2,5775013E+000	2,5781615E+000	1,819654874962817E-002	1,000000000000000E+000	-9,6469931E-003	41	4,6913639E-005
2	1	0	1	0	1,545224398775415E+005	2,6014843E+000	2,6021218E+000	1,738672758466048E-002	1,000000000000000E+000	-8,5771428E-003	41	4,5242385E-005
2	1	0	1	0	1,545823977869237E+005	2,6254673E+000	2,6261392E+000	1,676490592621249E-002	1,000000000000000E+000	-7,5496365E-003	41	4,4026976E-005
2	1	0	1	0	1,546423552963054E+005	2,6494505E+000	2,6500981E+000	1,612434796887147E-002	1,000000000000000E+000	-6,5587708E-003	41	4,2731102E-005
2	1	0	1	0	1,547023128056852E+005	2,6734331E+000	2,6741083E+000	1,538942035334534E-002	1,000000000000000E+000	-5,6104446E-003	41	4,1152976E-005
2	1	0	1	0	1,547622703150650E+005	2,6974163E+000	2,6980717E+000	1,472627595546167E-002	1,000000000000000E+000	-4,7047292E-003	41	3,9732549E-005
2	1	0	1	0	1,548222282244479E+005	2,7213991E+000	2,7220623E+000	1,419063453455111E-002	1,000000000000000E+000	-3,8341051E-003	41	3,8627793E-005
2	1	0	1	0	1,548821854338290E+005	2,7453825E+000	2,7460542E+000	1,380725017361938E-002	1,000000000000000E+000	-2,9907608E-003	41	3,7915455E-005
2	1	0	1	0	1,549421429432088E+005	2,7693655E+000	2,7700396E+000	1,354468770021913E-002	1,000000000000000E+000	-2,1673555E-003	41	3,7519319E-005
2	1	0	1	0	1,550021005525906E+005	2,7933481E+000	2,7940447E+000	1,348605039030787E-002	1,000000000000000E+000	-1,3539094E-003	41	3,7680627E-005
2	1	0	1	0	1,550620580619732E+005	2,8173308E+000	2,8179998E+000	1,366931012339795E-002	1,000000000000000E+000	-5,3667295E-004	41	3,8520113E-005
2	1	0	1	0	1,551220155713526E+005	2,8413141E+000	2,8420019E+000	1,380993895475774E-002	1,000000000000000E+000	2,9234018E-004	41	3,9247872E-005
2	1	0	1	0	1,551819734807326E+005	2,8652971E+000	2,8659689E+000	1,368625829924912E-002	1,000000000000000E+000	1,1216223E-003	41	3,9224393E-005
2	1	0	1	0	1,552419309901153E+005	2,8892803E+000	2,8899653E+000	1,338023797501058E-002	1,000000000000000E+000	1,9377520E-003	41	3,8668422E-005
2	1	0	1	0	1,553018885994966E+005	2,9132628E+000	2,9139264E+000	1,296012571596186E-002	1,000000000000000E+000	2,7315516E-003	41	3,7764850E-005
2	1	0	1	0	1,553618460088763E+005	2,9372461E+000	2,9379127E+000	1,257396010479833E-002	1,000000000000000E+000	3,5008863E-003	41	3,6941197E-005
2	1	0	1	0	1,554218040182581E+005	2,9612291E+000	2,9618886E+000	1,233453803224147E-002	1,000000000000000E+000	4,2513255E-003	41	3,6533525E-005
2	1	0	1	0	1,554817611276405E+005	2,9852121E+000	2,9859016E+000	1,224686277814438E-002	1,000000000000000E+000	4,9920073E-003	41	3,6567926E-005
2	1	0	1	1	1,555374712363549E+005	2,9924068E+000	2,9930670E+000	8,904445604867972E-003	1,000000000000000E+000	5,6282799E-003	41	2,6651602E-005
2	1	0	1	1	1,555974287457364E+005	2,9684238E+000	2,9690831E+000	6,379869720180353E-003	1,000000000000000E+000	6,0730646E-003	41	1,8942363E-005
2	1	0	1	1	1,556573862551190E+005	2,9444411E+000	2,9451203E+000	4,943135937225424E-003	1,000000000000000E+000	6,4053549E-003	42	1,4558130E-005
2	1	0	1	1	1,557173437644986E+005	2,9204576E+000	2,9211187E+000	3,977085152003734E-003	1,000000000000000E+000	6,6665141E-003	42	1,1617538E-005
2	1	0	1	1	1,557773012738787E+005	2,8964751E+000	2,8971367E+000	3,259919837560257E-003	1,000000000000000E+000	6,8780016E-003	42	9,4444331E-006
2	1	0	1	1	1,558372584832613E+005	2,8724923E+000	2,8731754E+000	2,658763228471960E-003	1,000000000000000E+000	7,0506614E-003	42	7,6390934E-006
2	1	0	1	1	1,558972157926427E+005	2,8485091E+000	2,8491955E+000	2,179263293724566E-003	1,000000000000000E+000	7,1910317E-003	42	6,2091472E-006
2	1	0	1	1	1,559571730020227E+005	2,8245258E+000	2,8251765E+000	1,763305003711423E-003	1,000000000000000E+000	7,3046922E-003	42	4,9816476E-006
2	1	0	1	1	1,560171305114031E+005	2,8005431E+000	2,8012400E+000	1,472179153436434E-003	1,000000000000000E+000	7,3974724E-003	42	4,1239273E-006
2	1	0	1	1	1,560770878207856E+005	2,7765601E+000	2,7772279E+000	1,209896061420293E-003	1,000000000000000E+000	7,4733873E-003	42	3,3601571E-006
2	1	0	1	1	1,561370453301665E+005	2,7525771E+000	2,7532353E+000	9,851229144386964E-004	1,000000000000000E+000	7,5348439E-003	42	2,7122753E-006
2	1	0	1	1	1,561970028395460E+005	2,7285938E+000	2,7292538E+000	7,752120280584852E-004	1,000000000000000E+000	7,5830659E-003	42	2,1157502E-006
2	1	0	1	1	1,562569603489274E+005	2,7046108E+000	2,7052817E+000	5,602146653380224E-004	1,000000000000000E+000	7,6188263E-003	42	1,5155385E-006
2	1	0	1	1	1,563169176583104E+005	2,6806281E+000	2,6812782E+000	3,530241995052356E-004	1,000000000000000E+000	7,6420079E-003	43	9,4655610E-007
2	1	0	1	1	1,563768751676902E+005	2,6566453E+000	2,6573033E+000	8,431737920369187E-005	1,000000000000000E+000	7,6508373E-003	43	2,2405685E-007
2	0	0	1	1	1,564368324770699E+005	2,6326625E+000	2,6333258E+000	-2,488242122027297E-004	1,000000000000000E+000	7,6414570E-003	43	-6,5523523E-007
2	0	0	1	1	1,564967896864521E+005	2,6086795E+000	2,6093178E+000	-5,308108549130349E-004	1,000000000000000E+000	7,6125981E-003	43	-1,3850542E-006
2	0	0	1	1	1,565567469958342E+005	2,5846965E+000	2,5853658E+000	-6,508845393019842E-004	1,000000000000000E+000	7,5725317E-003	43	-1,6827746E-006
2	0	0	1	1	1,566167045052141E+005	2,5607133E+000	2,5613911E+000	-7,435240336353711E-004	1,000000000000000E+000	7,5270808E-003	42	-1,9044559E-006
2	0	0	1	1	1,566766618145946E+005	2,5367305E+000	2,5374193E+000	-9,327299000204195E-004	1,000000000000000E+000	7,4728886E-003	42	-2,3667269E-006
2	0	0	1	1	1,567366193239773E+005	2,5127473E+000	2,5134296E+000	-1,151263795790280E-003	1,000000000000000E+000	7,4062143E-003	42	-2,8936206E-006
2	0	0	1	1	1,567965768333575E+005	2,4887645E+000	2,4894059E+000	-1,367454879690874E-003	1,000000000000000E+000	7,3265247E-003	42	-3,4041502E-006
2	0	0	1	1	1,568565343427376E+005	2,4647813E+000	2,4654241E+000	-1,590915124415020E-003	1,000000000000000E+000	7,2338190E-003	42	-3,9222805E-006
2	0	0	1	1	1,569164916521190E+005	2,4407985E+000	2,4414835E+000	-1,800738594513775E-003	1,000000000000000E+000	7,1281060E-003	42	-4,3964737E-006
2	0	0	1	1	1,569764491615016E+005	2,4168153E+000	2,4174948E+000	-2,029503441676695E-003	1,000000000000000E+000	7,0090555E-003	42	-4,9063142E-006
2	0	0	1	1	1,570364063708816E+005	2,3928325E+000	2,3934970E+000	-2,236825151426390E-003	1,000000000000000E+000	6,8772766E-003	42	-5,3538342E-006
2	0	0	1	1	1,570963636802612E+005	2,3688498E+000	2,3694963E+000	-2,470301313425675E-003	1,000000000000000E+000	6,7321793E-003	42	-5,8533701E-006
2	0	0	1	1	1,571563208896439E+005	2,3448668E+000	2,3455272E+000	-2,754186908929104E-003	1,000000000000000E+000	6,5716142E-003	42	-6,4600204E-006
2	0	0	1	1	1,572162783990256E+005	2,3208838E+000	2,3215551E+000	-3,060213527693565E-003	1,000000000000000E+000	6,3934983E-003	42	-7,1044547E-006
2	0	0	1	1	1,572762357084053E+005	2,2969007E+000	2,2975416E+000	-3,399203349511291E-003	1,000000000000000E+000	6,1960234E-003	42	-7,8098110E-006
2	0	0	1	1	1,573361932177860E+005	2,2729177E+000	2,2735419E+000	-3,785960900186791E-003	1,000000000000000E+000	5,9770411E-003	42	-8,6075406E-006
2	0	0	1	1	1,573961507271691E+005	2,2489347E+000	2,2495790E+000	-4,193663952587488E-003	1,000000000000000E+000	5,7341810E-003	42	-9,4339784E-006
2	0	0	1	1	1,574561082365491E+005	2,2249515E+000	2,2256007E+000	-4,658372635419253E-003	1,000000000000000E+000	5,4646558E-003	42	-1,0367678E-005
2	0	0	1	1	1,575160655459291E+005	2,2009687E+000	2,2016315E+000	-5,198321145606019E-003	1,000000000000000E+000	5,1651509E-003	42	-1,1444788E-005
2	0	0	1	1	1,575760230553104E+005	2,1769857E+000	2,1776340E+000	-5,794738729653623E-003	1,000000000000000E+000	4,8316489E-003	42	-1,2618820E-005
2	0	0	1	1	1,576359805646932E+005	2,1530027E+000	2,1536531E+000	-6,481045851797504E-003	1,000000000000000E+000	4,4598570E-003	42	-1,3957925E-005
2	0	0	1	1	1,576959375740731E+005	2,1290200E+000	2,1296592E+000	-7,256031482816058E-003	1,000000000000000E+000	4,0445994E-003	42	-1,5452873E-005
2	0	0	1	1	1,577558950834526E+005	2,1050372E+000	2,1057072E+000	-8,103038341257154E-003	1,000000000000000E+000	3,5807970E-003	42	-1,7062626E-005
2	0	0	1	1	1,578158525928357E+005	2,0810540E+000	2,0817089E+000	-9,021843185037015E-003	1,000000000000000E+000	3,0633351E-003	42	-1,8780851E-005
2	0	0	1	1	1,578730618017860E+005	2,0581701E+000	2,0588489E+000	-1,000250692344021E-002	2,000000000000000E+000	2,5150585E-003	41	-2,0593650E-005
2	0	0	1	1	1,579330194111662E+005	2,0341871E+000	2,0348556E+000	-1,117612720458006E-002	2,000000000000000E+000	1,8767755E-003	41	-2,2741806E-005
2	0	0	1	1	1,579929769205484E+005	2,0102041E+000	2,0108895E+000	-1,245705220482880E-002	2,000000000000000E+000	1,1648143E-003	41	-2,5049756E-005
2	0	0	1	1	1,580529342299304E+005	1,9862216E+000	1,9868766E+000	-1,388955318252195E-002	2,000000000000000E+000	3,7148551E-004	41	-2,7596829E-005
2	0	0	1	1	1,581128916393102E+005	1,9622387E+000	1,9629171E+000	-1,543226210216120E-002	2,000000000000000E+000	-5,1069685E-004	41	-3,0292251E-005
2	0	0	1	1	1,581728489486901E+005	1,9382554E+000	1,9389207E+000	-1,716165048611469E-002	2,000000000000000E+000	-1,4909921E-003	41	-3,3275079E-005
2	0	0	1	1	1,582328064580732E+005	1,9142725E+000	1,9149256E+000	-1,907547570900552E-002	2,000000000000000E+000	-2,5805109E-003	41	-3,6528116E-005
2	0	0	1	1	1,582927637674540E+005	1,8902894E+000	1,8909615E+000	-2,123837419699881E-002	2,000000000000000E+000	-3,7925388E-003	41	-4,0160947E-005
2	0	0	1	1	1,583527210768336E+005	1,8663068E+000	1,8669826E+000	-2,360597674285603E-002	2,000000000000000E+000	-5,1405672E-003	41	-4,4071949E-005
2	0	0	1	1	1,584126786862155E+005	1,8423237E+000	1,8429840E+000	-2,626321792004235E-002	2,000000000000000E+000	-6,6384342E-003	41	-4,8402690E-005
2	0	0	1	1	1,584726357955979E+005	1,8183405E+000	1,8190262E+000	-2,914421020590541E-002	2,000000000000000E+000	-8,3024735E-003	41	-5,3014082E-005
2	0	0	1	1	1,585325933049777E+005	1,7943577E+000	1,7950486E+000	-3,237501869362577E-002	2,000000000000000E+000	-1,0149850E-002	41	-5,8114732E-005
2	0	0	1	1	1,585925508143576E+005	1,7703747E+000	1,7710496E+000	-3,595213338407177E-002	2,000000000000000E+000	-1,2201538E-002	41	-6,3673011E-005
2	0	0	1	1	1,586525081237401E+005	1,7463919E+000	1,7470403E+000	-3,994645978882361E-002	2,000000000000000E+000	-1,4479008E-002	41	-6,9788075E-005
2	0	0	1	1	1,587124655331220E+005	1,7224087E+000	1,7230825E+000	-4,427961149621151E-002	2,000000000000000E+000	-1,7006444E-002	41	-7,6297423E-005
2	0	0	1	1	1,587724228425017E+005	1,6984257E+000	1,6991004E+000	-4,903560045707706E-002	2,000000000000000E+000	-1,9805839E-002	41	-8,3316409E-005
2	0	0	1	1	1,588323805518821E+005	1,6744429E+000	1,6750870E+000	-5,419693943557813E-002	2,000000000000000E+000	-2,2902332E-002	41	-9,0784590E-005
2	0	0	1	1	1,588923376612645E+005	1,6504598E+000	1,6511077E+000	-5,971568176340680E-002	2,000000000000000E+000	-2,6318630E-002	41	-9,8597018E-005
2	0	0	1	1	1,589522951706450E+005	1,6264768E+000	1,6271288E+000	-6,583985786783131E-002	2,000000000000000E+000	-3,0083755E-002	41	-1,0712993E-004
2	0	0	1	1	1,590122526800253E+005	1,6024938E+000	1,6031588E+000	-7,272666801324479E-002	2,000000000000000E+000	-3,4237854E-002	41	-1,1659240E-004
2	0	0	1	1	1,590722098894068E+005	1,5785108E+000	1,5791897E+000	-8,072405951179129E-002	2,000000000000000E+000	-3,8837206E-002	41	-1,2747860E-004
2	0	0	1	1	1,591321673987890E+005	1,5545280E+000	1,5552089E+000	-9,010577855901686E-002	2,000000000000000E+000	-4,3954968E-002	41	-1,4013331E-004
2	0	0	1	1	1,591921247081690E+005	1,5305450E+000	1,5312078E+000	-1,012611687330119E-001	2,000000000000000E+000	-4,9687419E-002	41	-1,5505189E-004
2	0	0	1	1	1,592520822175485E+005	1,5065620E+000	1,5072676E+000	-1,144029886755727E-001	2,000000000000000E+000	-5,6143522E-002	40	-1,7243592E-004
2	0	0	1	1	1,593120395269315E+005	1,4825790E+000	1,4832561E+000	-1,295793860074372E-001	2,000000000000000E+000	-6,3456886E-002	40	-1,9219941E-004
2	0	0	1	1	1,593719968363133E+005	1,4585962E+000	1,4592695E+000	-1,448322679651900E-001	2,000000000000000E+000	-7,1691103E-002	40	-2,1134931E-004
2	0	0	1	1	1,594319544456927E+005	1,4346131E+000	1,4352962E+000	-1,585719541699837E-001	2,000000000000000E+000	-8,0801941E-002	40	-2,2759772E-004
2	0	0	1	1	1,594919115550732E+005	1,4106301E+000	1,4113363E+000	-1,699035172222813E-001	2,000000000000000E+000	-9,0670563E-002	40	-2,3979100E-004
2	0	0	1	1	1,595518690644563E+005	1,3866471E+000	1,3873385E+000	-1,787161857071811E-001	2,000000000000000E+000	-1,0114273E-001	40	-2,4793984E-004
2	0	0	1	1	1,596118265738366E+005	1,3626640E+000	1,3633572E+000	-1,845026406360808E-001	2,000000000000000E+000	-1,1204872E-001	40	-2,5154301E-004
2	0	0	1	1	1,596717838832166E+005	1,3386812E+000	1,3393309E+000	-1,876281981568120E-001	2,000000000000000E+000	-1,2322365E-001	40	-2,5129624E-004
2	0	0	1	1	1,597317412925982E+005	1,3146983E+000	1,3153918E+000	-1,885006915879748E-001	2,000000000000000E+000	-1,3451567E-001	40	-2,4795227E-004
2	0	0	1	1	1,597916987019805E+005	1,2907153E+000	1,2914195E+000	-1,874260596598420E-001	2,000000000000000E+000	-1,4579903E-001	40	-2,4204567E-004
2	0	0	1	1	1,598516561113606E+005	1,2667323E+000	1,2674391E+000	-1,850250571816003E-001	2,000000000000000E+000	-1,5697475E-001	40	-2,3450800E-004
2	0	0	1	1	1,599116135207401E+005	1,2427493E+000	1,2434515E+000	-1,812335410628936E-001	2,000000000000000E+000	-1,6796567E-001	40	-2,2535512E-004
2	0	0	1	1	1,599715709301229E+005	1,2187663E+000	1,2194484E+000	-1,767776552111284E-001	2,000000000000000E+000	-1,7870441E-001	40	-2,1557124E-004
2	0	0	1	1	1,600315283395043E+005	1,1947834E+000	1,1955055E+000	-1,716990603847547E-001	2,000000000000000E+000	-1,8915640E-001	40	-2,0526718E-004
2	0	0	1	1	1,600914855488845E+005	1,1708003E+000	1,1715264E+000	-1,662628040504701E-001	2,000000000000000E+000	-1,9929335E-001	40	-1,9478127E-004
2	0	0	1	1	1,601514430582649E+005	1,1468173E+000	1,1475141E+000	-1,606338204538076E-001	2,000000000000000E+000	-2,0909673E-001	40	-1,8432958E-004
2	0	0	1	1	1,602114005676475E+005	1,1228344E+000	1,1235325E+000	-1,548882588260638E-001	2,000000000000000E+000	-2,1855976E-001	40	-1,7402200E-004
2	0	0	1	1	1,602713578770279E+005	1,0988514E+000	1,0995524E+000	-1,492910275620281E-001	2,000000000000000E+000	-2,2768189E-001	40	-1,6415330E-004
2	0	0	1	1	1,603313151864081E+005	1,0748684E+000	1,0755609E+000	-1,438635091106764E-001	2,000000000000000E+000	-2,3647280E-001	40	-1,5473396E-004
2	0	0	1	1	1,603912725957902E+005	1,0508854E+000	1,0515982E+000	-1,386794340011686E-001	2,000000000000000E+000	-2,4494529E-001	40	-1,4583505E-004
2	0	0	1	1	1,604512301051719E+005	1,0269024E+000	1,0275977E+000	-1,339492953587393E-001	2,000000000000000E+000	-2,5311938E-001	40	-1,3764598E-004
2	0	0	1	1	1,605111874145516E+005	1,0029196E+000	1,0036290E+000	-1,296997689100883E-001	2,000000000000000E+000	-2,6102477E-001	40	-1,3017045E-004
2	0	0	1	1	1,605673978233468E+005	1,0195078E+000	1,0202037E+000	-1,046826589801209E-001	2,000000000000000E+000	-2,6757380E-001	40	-1,0679763E-004
2	0	0	1	1	1,606273554327292E+005	1,0434909E+000	1,0441928E+000	-8,841553615491926E-002	2,000000000000000E+000	-2,7332717E-001	40	-9,2322865E-005
2	0	0	1	1	1,606873127421085E+005	1,0674738E+000	1,0681819E+000	-7,644460604136638E-002	2,000000000000000E+000	-2,7824971E-001	40	-8,1656741E-005
2	0	0	1	1	1,607472702514888E+005	1,0914567E+000	1,0921692E+000	-6,695641313207301E-002	2,000000000000000E+000	-2,8253520E-001	40	-7,3127732E-005
2	0	0	1	1	1,608072278608717E+005	1,1154397E+000	1,1161610E+000	-5,907598759013977E-002	2,000000000000000E+000	-2,8630230E-001	40	-6,5938315E-005
2	0	0	1	1	1,608671852702524E+005	1,1394227E+000	1,1401312E+000	-5,238295733227866E-002	2,000000000000000E+000	-2,8963506E-001	40	-5,9723447E-005
2	0	0	1	1	1,609271426796324E+005	1,1634055E+000	1,1641115E+000	-4,675263151820949E-002	2,000000000000000E+000	-2,9259825E-001	41	-5,4425276E-005
2	0	0	1	1	1,609871001890134E+005	1,1873884E+000	1,1880829E+000	-4,169506347428320E-002	2,000000000000000E+000	-2,9524282E-001	41	-4,9537193E-005
2	0	0	1	1	1,610470576983960E+005	1,2113715E+000	1,2120330E+000	-3,724813393526061E-002	2,000000000000000E+000	-2,9760277E-001	41	-4,5145967E-005
2	0	0	1	1	1,611070152077763E+005	1,2353547E+000	1,2360384E+000	-3,329883406536904E-002	2,000000000000000E+000	-2,9971161E-001	41	-4,1158641E-005
2	0	0	1	1	1,611669727171562E+005	1,2593377E+000	1,2600355E+000	-2,971798114670543E-002	2,000000000000000E+000	-3,0159509E-001	41	-3,7445712E-005
2	0	0	1	1	1,612269301265385E+005	1,2833205E+000	1,2840388E+000	-2,640415362970767E-002	2,000000000000000E+000	-3,0327293E-001	41	-3,3903958E-005
2	0	0	1	1	1,612868875359201E+005	1,3073034E+000	1,3080194E+000	-2,317920873512644E-002	2,000000000000000E+000	-3,0475566E-001	41	-3,0318855E-005
2	0	0	1	1	1,613468450453000E+005	1,3312865E+000	1,3319794E+000	-1,997299375421363E-002	2,000000000000000E+000	-3,0604684E-001	41	-2,6603617E-005
2	0	0	1	1	1,614068026546808E+005	1,3552693E+000	1,3559684E+000	-1,669600790737668E-002	2,000000000000000E+000	-3,0714363E-001	41	-2,2639259E-005
2	0	0	1	1	1,614667599640633E+005	1,3792524E+000	1,3799521E+000	-1,324530250356704E-002	2,000000000000000E+000	-3,0803946E-001	41	-1,8277882E-005
2	0	0	1	1	1,615267175734437E+005	1,4032354E+000	1,4039495E+000	-9,605997585420495E-003	2,000000000000000E+000	-3,0872270E-001	41	-1,3486336E-005
2	0	0	1	1	1,615866749828232E+005	1,4272182E+000	1,4279076E+000	-5,705566086030414E-003	2,000000000000000E+000	-3,0918029E-001	41	-8,1470207E-006
2	0	0	1	1	1,616466324922061E+005	1,4512012E+000	1,4518993E+000	-1,482700321066144E-003	2,000000000000000E+000	-3,0939499E-001	42	-2,1527314E-006
2	1	0	1	1	1,617065900015878E+005	1,4751843E+000	1,4758739E+000	3,103419960042070E-003	2,000000000000000E+000	-3,0934581E-001	42	4,5802567E-006
2	1	0	1	1	1,617665474109674E+005	1,4991672E+000	1,4998907E+000	8,131087516972973E-003	2,000000000000000E+000	-3,0900830E-001	42	1,2195743E-005
2	1	0	1	1	1,618265050203479E+005	1,5231503E+000	1,5238405E+000	1,361429064080541E-002	2,000000000000000E+000	-3,0835676E-001	41	2,0746009E-005
2	1	0	1	1	1,618864624297307E+005	1,5471331E+000	1,5478282E+000	1,991776737944639E-002	2,000000000000000E+000	-3,0735254E-001	41	3,0829284E-005
2	1	0	1	1	1,619464198391114E+005	1,5711161E+000	1,5718204E+000	2,748460914027248E-002	2,000000000000000E+000	-3,0593395E-001	41	4,3200867E-005
2	1	0	1	1	1,620063774484913E+005	1,5950991E+000	1,5957640E+000	3,728371486737540E-002	2,000000000000000E+000	-3,0400944E-001	41	5,9496011E-005
2	1	0	1	1	1,620663348578727E+005	1,6190822E+000	1,6197635E+000	5,481794090227624E-002	2,000000000000000E+000	-3,0129391E-001	41	8,8792098E-005
2	1	0	1	1	1,621262923672553E+005	1,6430651E+000	1,6437427E+000	7,923864344654463E-002	2,000000000000000E+000	-2,9729360E-001	41	1,3024794E-004
2	1	0	1	1	1,621862498766352E+005	1,6670481E+000	1,6677400E+000	1,081169155213423E-001	2,000000000000000E+000	-2,9169142E-001	40	1,8031090E-004
2	1	0	1	1	1,622462074860148E+005	1,6910311E+000	1,6917335E+000	1,399286819339465E-001	2,000000000000000E+000	-2,8426296E-001	40	2,3672203E-004
2	1	0	1	1	1,623061648953976E+005	1,7150140E+000	1,7157348E+000	1,738631221159119E-001	2,000000000000000E+000	-2,7486056E-001	40	2,9830303E-004
2	1	0	1	1	1,623661224047786E+005	1,7389969E+000	1,7396938E+000	2,095495373793406E-001	2,000000000000000E+000	-2,6336795E-001	40	3,6455202E-004
2	1	0	1	1	1,624260800141590E+005	1,7629799E+000	1,7636704E+000	2,457987435016968E-001	2,000000000000000E+000	-2,4970560E-001	40	4,3350799E-004
2	1	0	1	1	1,624860373235401E+005	1,7869630E+000	1,7876632E+000	2,793907341997750E-001	2,000000000000000E+000	-2,3392916E-001	40	4,9945654E-004
2	1	0	1	1	1,625459949329225E+005	1,8109459E+000	1,8116293E+000	3,060599804426922E-001	2,000000000000000E+000	-2,1632913E-001	40	5,5446720E-004
2	1	0	1	1	1,626059523423025E+005	1,8349286E+000	1,8355957E+000	3,212530571451380E-001	2,000000000000000E+000	-1,9746441E-001	40	5,8969075E-004
2	1	0	1	1	1,626659098516821E+005	1,8589115E+000	1,8596040E+000	3,232452999928226E-001	2,000000000000000E+000	-1,7807582E-001	40	6,0110824E-004
2	1	0	1	1	1,627258673610645E+005	1,8828949E+000	1,8835784E+000	3,130388887476165E-001	2,000000000000000E+000	-1,5893994E-001	40	5,8963330E-004
2	1	0	1	1	1,627858247704469E+005	1,9068778E+000	1,9075611E+000	2,926062229858752E-001	2,000000000000000E+000	-1,4073701E-001	40	5,5816426E-004
2	1	0	1	1	1,628457823798263E+005	1,9308609E+000	1,9315494E+000	2,657559913019583E-001	2,000000000000000E+000	-1,2396859E-001	40	5,1332085E-004
2	1	0	1	1	1,629057396892067E+005	1,9548435E+000	1,9555334E+000	2,360189131091959E-001	2,000000000000000E+000	-1,0891315E-001	40	4,6154286E-004
2	1	0	1	1	1,629656972985896E+005	1,9788266E+000	1,9794977E+000	2,058876728249734E-001	2,000000000000000E+000	-9,5664836E-002	40	4,0755418E-004
2	1	0	1	1	1,630256551079700E+005	2,0028093E+000	2,0034614E+000	1,774701282333422E-001	2,000000000000000E+000	-8,4178723E-002	40	3,5555454E-004
2	1	0	1	1	1,630856123173500E+005	2,0267928E+000	2,0274727E+000	1,519256673586422E-001	2,000000000000000E+000	-7,4315958E-002	40	3,0802516E-004
2	1	0	1	1	1,631455698267315E+005	2,0507755E+000	2,0514500E+000	1,295361809002131E-001	2,000000000000000E+000	-6,5890297E-002	40	2,6573701E-004
2	1	0	1	1	1,632055274361141E+005	2,0747583E+000	2,0754442E+000	1,104629962116599E-001	2,000000000000000E+000	-5,8707044E-002	40	2,2925979E-004
2	1	0	1	1	1,632654849454940E+005	2,0987415E+000	2,0993967E+000	9,451207543027615E-002	2,000000000000000E+000	-5,2573223E-002	40	1,9841833E-004
2	1	0	1	1	1,633254424548741E+005	2,1227243E+000	2,1234014E+000	8,142101638657318E-002	2,000000000000000E+000	-4,7308095E-002	40	1,7288950E-004
2	1	0	1	1	1,633854003642569E+005	2,1467073E+000	2,1473992E+000	7,081312498262693E-002	2,000000000000000E+000	-4,2750765E-002	40	1,5206405E-004
2	1	0	1	1	1,634453578736373E+005	2,1706903E+000	2,1713610E+000	6,222079424999616E-002	2,000000000000000E+000	-3,8766030E-002	40	1,3510381E-004
2	1	0	1	1	1,635053153830175E+005	2,1946731E+000	2,1953526E+000	5,524442067291946E-002	2,000000000000000E+000	-3,5246614E-002	40	1,2128098E-004
2	1	0	1	1	1,635652730923994E+005	2,2186563E+000	2,2193363E+000	4,946769745144172E-002	2,000000000000000E+000	-3,2108340E-002	40	1,0978545E-004
2	1	0	1	1	1,636254805018206E+005	2,2427390E+000	2,2434130E+000	4,454231188043967E-002	2,000000000000000E+000	-2,9279051E-002	41	9,9926801E-005
2	1	0	1	1	1,636854381112005E+005	2,2667224E+000	2,2673976E+000	4,047840542492481E-002	2,000000000000000E+000	-2,6728224E-002	41	9,1780639E-005
2	1	0	1	1	1,637453956205803E+005	2,2907050E+000	2,2913747E+000	3,702966464407809E-002	2,000000000000000E+000	-2,4402322E-002	41	8,4848834E-005
2	1	0	1	1	1,638053535299636E+005	2,3146882E+000	2,3153806E+000	3,406735483031256E-002	2,000000000000000E+000	-2,2267966E-002	41	7,8878889E-005
2	1	0	1	1	1,638653107393441E+005	2,3386710E+000	2,3393586E+000	3,150185706104991E-002	2,000000000000000E+000	-2,0298947E-002	41	7,3694137E-005
2	1	0	1	1	1,639252679487239E+005	2,3626540E+000	2,3633463E+000	2,926699180670350E-002	2,000000000000000E+000	-1,8473180E-002	41	6,9168040E-005
2	1	0	1	1	1,639852258581063E+005	2,3866367E+000	2,3873467E+000	2,734719459858498E-002	2,000000000000000E+000	-1,6771674E-002	41	6,5287233E-005
2	1	0	1	1	1,640451833674884E+005	2,4106200E+000	2,4113028E+000	2,571190907818981E-002	2,000000000000000E+000	-1,5177013E-002	41	6,1999199E-005
2	1	0	1	1	1,641051408768680E+005	2,4346027E+000	2,4352870E+000	2,433534777926377E-002	2,000000000000000E+000	-1,3672261E-002	41	5,9263555E-005
2	1	0	1	1	1,641650985862482E+005	2,4585860E+000	2,4592352E+000	2,305371863777881E-002	2,000000000000000E+000	-1,2246542E-002	41	5,6694516E-005
2	1	0	1	1	1,642250562956305E+005	2,4825687E+000	2,4832456E+000	2,181688689946001E-002	2,000000000000000E+000	-1,0896609E-002	41	5,4176689E-005
2	1	0	1	1	1,642850138050118E+005	2,5065517E+000	2,5072224E+000	2,064036707440453E-002	2,000000000000000E+000	-9,6193999E-003	41	5,1749990E-005
2	1	0	1	1	1,643449713143916E+005	2,5305347E+000	2,5312152E+000	1,956057866256844E-002	2,000000000000000E+000	-8,4091658E-003	41	4,9512033E-005
2	1	0	1	1	1,644049292237731E+005	2,5545180E+000	2,5551980E+000	1,855347372797922E-002	2,000000000000000E+000	-7,2613400E-003	41	4,7407797E-005
2	1	0	1	1	1,644648864331557E+005	2,5785007E+000	2,5791545E+000	1,760973658545262E-002	2,000000000000000E+000	-6,1726463E-003	41	4,5418230E-005
2	1	0	1	1	1,645248439425352E+005	2,6024837E+000	2,6031644E+000	1,685135965958612E-002	2,000000000000000E+000	-5,1356093E-003	41	4,3866861E-005
2	1	0	1	1	1,645848015519152E+005	2,6264668E+000	2,6271486E+000	1,625167951875951E-002	2,000000000000000E+000	-4,1385307E-003	41	4,2695578E-005
2	1	0	1	1	1,646447590612983E+005	2,6504498E+000	2,6511331E+000	1,560250463104357E-002	2,000000000000000E+000	-3,1778011E-003	41	4,1364317E-005
2	1	0	1	1	1,647047165706791E+005	2,6744325E+000	2,6751199E+000	1,485382787069402E-002	2,000000000000000E+000	-2,2601131E-003	41	3,9735769E-005
2	1	0	1	1	1,647646742800591E+005	2,6984158E+000	2,6990736E+000	1,419799216586077E-002	2,000000000000000E+000	-1,3845935E-003	41	3,8321425E-005
2	1	0	1	1	1,648246319894404E+005	2,7223988E+000	2,7230523E+000	1,371270675119449E-002	2,000000000000000E+000	-5,4333336E-004	41	3,7340418E-005
2	1	0	1	1	1,648845894988230E+005	2,7463813E+000	2,7470562E+000	1,334062402286694E-002	2,000000000000000E+000	2,7192468E-004	41	3,6647445E-005
2	1	0	1	1	1,649445470082030E+005	2,7703645E+000	2,7710392E+000	1,310518914170922E-002	2,000000000000000E+000	1,0684865E-003	41	3,6314992E-005
2	1	0	1	1	1,650045049175830E+005	2,7943473E+000	2,7950230E+000	1,306817847128640E-002	2,000000000000000E+000	1,8567288E-003	41	3,6525860E-005
2	1	0	1	1	1,650644621269656E+005	2,8183303E+000	2,8189940E+000	1,323920829430958E-002	2,000000000000000E+000	2,6498016E-003	41	3,7321250E-005
2	1	0	1	1	1,651244196363469E+005	2,8423138E+000	2,8430037E+000	1,333720341216885E-002	2,000000000000000E+000	3,4530002E-003	41	3,7917718E-005
2	1	0	1	1	1,651843772457265E+005	2,8662961E+000	2,8669918E+000	1,318828834687757E-002	2,000000000000000E+000	4,2540943E-003	41	3,7810714E-005
2	1	0	1	1	1,652443347551082E+005	2,8902793E+000	2,8909421E+000	1,288523497093741E-002	2,000000000000000E+000	5,0409916E-003	41	3,7250469E-005
2	1	0	1	1	1,653042922644904E+005	2,9142623E+000	2,9149339E+000	1,250594234914676E-002	2,000000000000000E+000	5,8072838E-003	41	3,6453996E-005
2	1	0	1	1	1,653642497738705E+005	2,9382453E+000	2,9389114E+000	1,214858461176499E-002	2,000000000000000E+000	6,5508625E-003	41	3,5703615E-005
2	1	0	1	1	1,654242076832503E+005	2,9622281E+000	2,9628880E+000	1,193438713977746E-002	2,000000000000000E+000	7,2766687E-003	41	3,5360252E-005
2	1	0	1	1	1,654841651926329E+005	2,9862111E+000	2,9868820E+000	1,182963052374721E-002	2,000000000000000E+000	7,9934159E-003	41	3,5333709E-005
2	1	0	1	0	1,655398751013489E+005	2,9914074E+000	2,9920740E+000	8,364139343199711E-003	2,000000000000000E+000	8,5983267E-003	41	2,5026124E-005
2	1	0	1	0	1,655998326107292E+005	2,9674246E+000	2,9680736E+000	5,976780781326260E-003	2,000000000000000E+000	9,0146670E-003	41	1,7739525E-005
2	1	0	1	0	1,656597901201113E+005	2,9434416E+000	2,9441199E+000	4,598915621711445E-003	2,000000000000000E+000	9,3239089E-003	42	1,3539759E-005
2	1	0	1	0	1,657197476294928E+005	2,9194586E+000	2,9201257E+000	3,677753817400348E-003	2,000000000000000E+000	9,5653962E-003	42	1,0739504E-005
2	1	0	1	0	1,657797051388724E+005	2,8954759E+000	2,8961225E+000	2,993405419503534E-003	2,000000000000000E+000	9,7592557E-003	42	8,6692689E-006
2	1	0	1	0	1,658396626482541E+005	2,8714926E+000	2,8721695E+000	2,457439494284300E-003	2,000000000000000E+000	9,9169016E-003	42	7,0581827E-006
2	1	0	1	0	1,658996199576366E+005	2,8475096E+000	2,8481879E+000	1,993780446751636E-003	2,000000000000000E+000	1,0044857E-002	42	5,6786612E-006
2	1	0	1	0	1,659595774670164E+005	2,8235266E+000	2,8242028E+000	1,620090304616406E-003	2,000000000000000E+000	1,0147813E-002	42	4,5754637E-006
2	1	0	1	0	1,660195346763963E+005	2,7995441E+000	2,8002093E+000	1,330483424585568E-003	2,000000000000000E+000	1,0230944E-002	42	3,7256320E-006
2	1	0	1	0	1,660794919857783E+005	2,7755609E+000	2,7762227E+000	1,071072814598964E-003	2,000000000000000E+000	1,0297892E-002	42	2,9735368E-006
2	1	0	1	0	1,661394491951605E+005	2,7515779E+000	2,7522163E+000	8,516367875893317E-004	2,000000000000000E+000	1,0351120E-002	42	2,3438886E-006
2	1	0	1	0	1,661994067045405E+005	2,7275949E+000	2,7282674E+000	6,697615129542629E-004	2,000000000000000E+000	1,0391936E-002	42	1,8272885E-006
2	1	0	1	0	1,662593643139205E+005	2,7036119E+000	2,7043056E+000	4,885114067569125E-004	2,000000000000000E+000	1,0421744E-002	43	1,3210841E-006
2	1	0	1	0	1,663193215233032E+005	2,6796286E+000	2,6802993E+000	2,764972413057476E-004	2,000000000000000E+000	1,0439714E-002	43	7,4109533E-007
2	1	0	1	0	1,663792791326845E+005	2,6556458E+000	2,6563330E+000	3,325772500479423E-005	2,000000000000000E+000	1,0443781E-002	43	8,8343590E-008
2	0	0	1	0	1,664392365420642E+005	2,6316631E+000	2,6323173E+000	-3,012378997886995E-004	2,000000000000000E+000	1,0430029E-002	43	-7,9295376E-007
2	0	0	1	0	1,664991939514456E+005	2,6076798E+000	2,6083343E+000	-6,251084620991776E-004	2,000000000000000E+000	1,0395102E-002	43	-1,6304919E-006
2	0	0	1	0	1,665591514608278E+005	2,5836968E+000	2,5843666E+000	-7,240279198044775E-004	2,000000000000000E+000	1,0349258E-002	42	-1,8711536E-006
2	0	0	1	0	1,666191086702078E+005	2,5597141E+000	2,5603755E+000	-8,141795794327691E-004	2,000000000000000E+000	1,0298493E-002	42	-2,0846055E-006
2	0	0	1	0	1,666790659795876E+005	2,5357313E+000	2,5363948E+000	-9,981433193598441E-004	2,000000000000000E+000	1,0239458E-002	42	-2,5316856E-006
2	0	0	1	0	1,667390231889701E+005	2,5117483E+000	2,5123959E+000	-1,210717477040039E-003	2,000000000000000E+000	1,0168226E-002	42	-3,0418016E-006
2	0	0	1	0	1,667989806983520E+005	2,4877651E+000	2,4884262E+000	-1,426749715542689E-003	2,000000000000000E+000	1,0084275E-002	42	-3,5503615E-006
2	0	0	1	0	1,668589382077316E+005	2,4637823E+000	2,4644380E+000	-1,642599164165183E-003	2,000000000000000E+000	9,9873487E-003	42	-4,0480836E-006
2	0	0	1	0	1,669188955171118E+005	2,4397993E+000	2,4404898E+000	-1,871042596059608E-003	2,000000000000000E+000	9,8772338E-003	42	-4,5662605E-006
2	0	0	1	0	1,669788530264948E+005	2,4158161E+000	2,4164834E+000	-2,080798658247496E-003	2,000000000000000E+000	9,7536091E-003	42	-5,0282156E-006
2	0	0	1	0	1,670388105358754E+005	2,3918331E+000	2,3925028E+000	-2,303304935709696E-003	2,000000000000000E+000	9,6174758E-003	42	-5,5106634E-006
2	0	0	1	0	1,670987678452556E+005	2,3678501E+000	2,3685181E+000	-2,532898383248758E-003	2,000000000000000E+000	9,4679641E-003	42	-5,9992158E-006
2	0	0	1	0	1,671587253546366E+005	2,3438671E+000	2,3445501E+000	-2,815068988134755E-003	2,000000000000000E+000	9,3028937E-003	42	-6,6000703E-006
2	0	0	1	0	1,672186828640192E+005	2,3198841E+000	2,3205564E+000	-3,121269036939385E-003	2,000000000000000E+000	9,1200331E-003	42	-7,2430807E-006
2	0	0	1	0	1,672786398733993E+005	2,2959018E+000	2,2965624E+000	-3,466627256609955E-003	2,000000000000000E+000	8,9174351E-003	42	-7,9613255E-006
2	0	0	1	0	1,673385973827788E+005	2,2719188E+000	2,2725577E+000	-3,859056070526959E-003	2,000000000000000E+000	8,6929612E-003	42	-8,7699282E-006
2	0	0	1	0	1,673985545921614E+005	2,2479353E+000	2,2485843E+000	-4,294344399943348E-003	2,000000000000000E+000	8,4440475E-003	42	-9,6561953E-006
2	0	0	1	0	1,674585121015436E+005	2,2239525E+000	2,2246180E+000	-4,760775709810264E-003	2,000000000000000E+000	8,1679141E-003	42	-1,0590908E-005
2	0	0	1	0	1,675184694109233E+005	2,1999695E+000	2,2006202E+000	-5,305266269977793E-003	2,000000000000000E+000	7,8609791E-003	42	-1,1674876E-005
2	0	0	1	0	1,675784269203036E+005	2,1759865E+000	2,1766615E+000	-5,927501650241369E-003	2,000000000000000E+000	7,5192386E-003	42	-1,2902165E-005
2	0	0	1	0	1,676383844296858E+005	2,1520035E+000	2,1526694E+000	-6,632689734754851E-003	2,000000000000000E+000	7,1377936E-003	42	-1,4277988E-005
2	0	0	1	0	1,676983417390671E+005	2,1280205E+000	2,1287019E+000	-7,424143320990922E-003	2,000000000000000E+000	6,7118532E-003	42	-1,5803787E-005
2	0	0	1	0	1,677582992484469E+005	2,1040375E+000	2,1046939E+000	-8,298435845777136E-003	2,000000000000000E+000	6,2358128E-003	42	-1,7465667E-005
2	0	0	1	0	1,678182567578284E+005	2,0800548E+000	2,0807116E+000	-9,282513382059751E-003	2,000000000000000E+000	5,7041771E-003	42	-1,9314233E-005
2	0	0	1	0	1,678712166661150E+005	2,0588205E+000	2,0595219E+000	-1,037586144405245E-002	2,000000000000000E+000	5,1843328E-003	41	-2,1369315E-005