File: Dati/210416/CV_LTO-CB_09_CV_C05.mpt
EC-Lab ASCII FILE
Nb header lines : 57

Cyclic Voltammetry

Run on channel : 5 (SN 6809)
User : Seelab
Electrode connection : standard
Ewe ctrl range : min = 0,00 V, max = 5,00 V
Ewe,I filtering : 50 kHz
Safety Limits :
	Do not start on E overload
Channel : Grounded
Acquisition started on : 04/16/2021 18:38:45
Saved on :
	File : CV_LTO-CB_09_CV_C05.mpr
	Directory : C:\Users\labsuperfici\Desktop\Biologic\Users\Prisca Viviani\210416\
	Host : 10.78.33.0
Device : VSP-300 (SN 0638)
Address : USB
EC-Lab for windows v11.31 (software)
Internet server v11.30 (firmware)
Command interpretor v11.31 (firmware)
Electrode material :
Initial state :
Electrolyte :
Comments :
Cable : standard
Reference electrode : SCE Saturated Calomel Electrode (0,241 V)
Electrode surface area : 0,001 cm²
Characteristic mass : 0,001 g
Equivalent Weight : 0,000 g/eq.
Density : 0,000 g/cm3
Cycle Definition : Charge/Discharge alternance
Ei (V)              0,000
vs.                 Eoc
dE/dt               0,800
dE/dt unit          mV/s
E1 (V)              1,000
vs.                 Ref
Step percent        50
N                   10
E range min (V)     0,000
E range max (V)     5,000
I Range             Auto
I Range min         Unset
I Range max         Unset
I Range init        Unset
Bandwidth           8
E2 (V)              3,000
vs.                 Ref
nc cycles           1
Reverse Scan        1
Ef (V)              0,000
vs.                 Eoc

mode	ox/red	error	control changes	counter inc.	time/s	control/V	Ewe/V	<I>/mA	cycle number	(Q-Qo)/C	I Range	P/W
2	0	0	1	0	2,086335220438549E+005	2,0588205E+000	2,0595181E+000	-1,775736734271050E-002	1,000000000000000E+000	0,0000000E+000	41	-3,6571619E-005
2	0	0	1	0	2,086629385484579E+005	2,0352864E+000	2,0359936E+000	-1,890774391928340E-002	1,000000000000000E+000	-5,2405056E-004	41	-3,8496044E-005
2	0	0	1	0	2,086929172531501E+005	2,0113037E+000	2,0120263E+000	-2,135290741997045E-002	1,000000000000000E+000	-1,1304291E-003	41	-4,2962612E-005
2	0	0	1	0	2,087228961578384E+005	1,9873205E+000	1,9880188E+000	-2,388233707084725E-002	1,000000000000000E+000	-1,8118189E-003	41	-4,7478534E-005
2	0	0	1	0	2,087528748625299E+005	1,9633379E+000	1,9640491E+000	-2,664093269215839E-002	1,000000000000000E+000	-2,5727474E-003	41	-5,2324100E-005
2	0	0	1	0	2,087828535672207E+005	1,9393547E+000	1,9400650E+000	-2,961207929262605E-002	1,000000000000000E+000	-3,4191392E-003	41	-5,7449361E-005
2	0	0	1	0	2,088128322719093E+005	1,9153718E+000	1,9160836E+000	-3,282976269647431E-002	1,000000000000000E+000	-4,3580434E-003	41	-6,2904568E-005
2	0	0	1	0	2,088428109766016E+005	1,8913888E+000	1,8920883E+000	-3,644370547615594E-002	1,000000000000000E+000	-5,3994120E-003	41	-6,8954709E-005
2	0	0	1	0	2,088727897812920E+005	1,8674058E+000	1,8681115E+000	-4,043522705091218E-002	1,000000000000000E+000	-6,5544457E-003	41	-7,5537515E-005
2	0	0	1	0	2,089027683859814E+005	1,8434227E+000	1,8441255E+000	-4,487501810184810E-002	1,000000000000000E+000	-7,8358343E-003	41	-8,2755163E-005
2	0	0	1	0	2,089327471906734E+005	1,8194398E+000	1,8201704E+000	-4,979838051022359E-002	1,000000000000000E+000	-9,2572672E-003	41	-9,0641537E-005
2	0	0	1	0	2,089627258953634E+005	1,7954570E+000	1,7961688E+000	-5,533178135787305E-002	1,000000000000000E+000	-1,0835413E-002	41	-9,9385223E-005
2	0	0	1	0	2,089927046000537E+005	1,7714740E+000	1,7722167E+000	-6,144519387415182E-002	1,000000000000000E+000	-1,2587516E-002	41	-1,0889420E-004
2	0	0	1	0	2,090226834047460E+005	1,7474908E+000	1,7481960E+000	-6,824274138481568E-002	1,000000000000000E+000	-1,4533835E-002	41	-1,1930169E-004
2	0	0	1	0	2,090526620094343E+005	1,7235079E+000	1,7242091E+000	-7,580608543473555E-002	1,000000000000000E+000	-1,6695218E-002	41	-1,3070554E-004
2	0	0	1	0	2,090826407141252E+005	1,6995251E+000	1,7002228E+000	-8,416690468528198E-002	1,000000000000000E+000	-1,9094571E-002	41	-1,4310250E-004
2	0	0	1	0	2,091126195188169E+005	1,6755421E+000	1,6762347E+000	-9,324375776619820E-002	1,000000000000000E+000	-2,1754764E-002	41	-1,5629843E-004
2	0	0	1	0	2,091425983235054E+005	1,6515592E+000	1,6522865E+000	-1,029949216165900E-001	1,000000000000000E+000	-2,4700085E-002	40	-1,7017713E-004
2	0	0	1	0	2,091725770281971E+005	1,6275759E+000	1,6282836E+000	-1,139477768361350E-001	1,000000000000000E+000	-2,7953625E-002	40	-1,8553931E-004
2	0	0	1	0	2,092025557328882E+005	1,6035931E+000	1,6043142E+000	-1,260531966778580E-001	1,000000000000000E+000	-3,1551991E-002	40	-2,0222894E-004
2	0	0	1	0	2,092325344375768E+005	1,5796101E+000	1,5803353E+000	-1,398679947924166E-001	1,000000000000000E+000	-3,5537288E-002	40	-2,2103832E-004
2	0	0	1	0	2,092625131422691E+005	1,5556272E+000	1,5563531E+000	-1,556703329673426E-001	1,000000000000000E+000	-3,9964754E-002	40	-2,4227801E-004
2	0	0	1	0	2,092924918469591E+005	1,5316441E+000	1,5323279E+000	-1,738312375442385E-001	1,000000000000000E+000	-4,4900797E-002	40	-2,6636646E-004
2	0	0	1	0	2,093224705516492E+005	1,5076613E+000	1,5083747E+000	-1,947234240756259E-001	1,000000000000000E+000	-5,0423104E-002	40	-2,9371589E-004
2	0	0	1	0	2,093524492563417E+005	1,4836782E+000	1,4843779E+000	-2,177591086119648E-001	1,000000000000000E+000	-5,6608692E-002	40	-3,2323680E-004
2	0	0	1	0	2,093824280610303E+005	1,4596951E+000	1,4604067E+000	-2,394589808772212E-001	1,000000000000000E+000	-6,3473977E-002	40	-3,4970749E-004
2	0	0	1	0	2,094124067657209E+005	1,4357125E+000	1,4364204E+000	-2,570786378538363E-001	1,000000000000000E+000	-7,0934296E-002	40	-3,6927301E-004
2	0	0	1	0	2,094423853704128E+005	1,4117293E+000	1,4124261E+000	-2,693610376553988E-001	1,000000000000000E+000	-7,8841917E-002	40	-3,8045258E-004
2	0	0	1	0	2,094723640751010E+005	1,3877462E+000	1,3884522E+000	-2,767482707641705E-001	1,000000000000000E+000	-8,7041393E-002	40	-3,8425173E-004
2	0	0	1	0	2,095023428797929E+005	1,3637633E+000	1,3644801E+000	-2,809751571295682E-001	1,000000000000000E+000	-9,5410392E-002	40	-3,8338502E-004
2	0	0	1	0	2,095323215844841E+005	1,3397806E+000	1,3405161E+000	-2,837034109670045E-001	1,000000000000000E+000	-1,0388226E-001	40	-3,8030898E-004
2	0	0	1	0	2,095623002891722E+005	1,3157974E+000	1,3165234E+000	-2,844278236495157E-001	1,000000000000000E+000	-1,1240726E-001	40	-3,7445591E-004
2	0	0	1	0	2,095922789938648E+005	1,2918146E+000	1,2925314E+000	-2,831378885971173E-001	1,000000000000000E+000	-1,2092248E-001	40	-3,6596460E-004
2	0	0	1	0	2,096222576985545E+005	1,2678314E+000	1,2685775E+000	-2,801860745725442E-001	1,000000000000000E+000	-1,2937187E-001	40	-3,5543775E-004
2	0	0	1	0	2,096522365032451E+005	1,2438484E+000	1,2445594E+000	-2,759406042466721E-001	1,000000000000000E+000	-1,3771349E-001	40	-3,4342447E-004
2	0	0	1	0	2,096822151079373E+005	1,2198657E+000	1,2206101E+000	-2,707306343387135E-001	1,000000000000000E+000	-1,4591306E-001	40	-3,3045656E-004
2	0	0	1	0	2,097121939126258E+005	1,1958826E+000	1,1966482E+000	-2,649165146017016E-001	1,000000000000000E+000	-1,5394734E-001	40	-3,1701187E-004
2	0	0	1	0	2,097421725173167E+005	1,1718998E+000	1,1726363E+000	-2,586771912533443E-001	1,000000000000000E+000	-1,6180009E-001	40	-3,0333427E-004
2	0	0	1	0	2,097721513220086E+005	1,1479167E+000	1,1486444E+000	-2,521842662598477E-001	1,000000000000000E+000	-1,6946144E-001	40	-2,8967005E-004
2	0	0	1	0	2,098021301266970E+005	1,1239336E+000	1,1246831E+000	-2,456068454274227E-001	1,000000000000000E+000	-1,7692629E-001	40	-2,7622987E-004
2	0	0	1	0	2,098321087313887E+005	1,0999508E+000	1,1007006E+000	-2,391691754391596E-001	1,000000000000000E+000	-1,8419494E-001	40	-2,6325366E-004
2	0	0	1	0	2,098620874360800E+005	1,0759680E+000	1,0767276E+000	-2,330145076354331E-001	1,000000000000000E+000	-1,9127420E-001	40	-2,5089315E-004
2	0	0	1	0	2,098920661407681E+005	1,0519849E+000	1,0527272E+000	-2,272356795031456E-001	1,000000000000000E+000	-1,9817548E-001	40	-2,3921719E-004
2	0	0	1	0	2,099220449454605E+005	1,0280018E+000	1,0287306E+000	-2,219191805411307E-001	1,000000000000000E+000	-2,0490962E-001	40	-2,2829506E-004
2	0	0	1	0	2,099520236501507E+005	1,0040189E+000	1,0047585E+000	-2,170985099548051E-001	1,000000000000000E+000	-2,1149157E-001	40	-2,1813156E-004
2	0	0	1	0	2,099802541545662E+005	1,0185086E+000	1,0192350E+000	-1,799827646609855E-001	1,000000000000000E+000	-2,1709295E-001	40	-1,8344473E-004
2	0	0	1	0	2,100102328592585E+005	1,0424916E+000	1,0432316E+000	-1,551658220851551E-001	1,000000000000000E+000	-2,2208872E-001	40	-1,6187389E-004
2	0	0	1	0	2,100402115639485E+005	1,0664746E+000	1,0672255E+000	-1,370529514515501E-001	1,000000000000000E+000	-2,2645454E-001	40	-1,4626639E-004
2	0	0	1	0	2,100701903686384E+005	1,0904576E+000	1,0912127E+000	-1,225778648100582E-001	1,000000000000000E+000	-2,3033647E-001	40	-1,3375853E-004
2	0	0	1	0	2,101001689733304E+005	1,1144403E+000	1,1151644E+000	-1,104092280389284E-001	1,000000000000000E+000	-2,3382130E-001	40	-1,2312444E-004
2	0	0	1	0	2,101301477780202E+005	1,1384234E+000	1,1391515E+000	-9,994046156335168E-002	1,000000000000000E+000	-2,3696797E-001	40	-1,1384732E-004
2	0	0	1	0	2,101601265827107E+005	1,1624064E+000	1,1631635E+000	-9,078692637084468E-002	1,000000000000000E+000	-2,3982084E-001	40	-1,0560004E-004
2	0	0	1	0	2,101901051874026E+005	1,1863893E+000	1,1871277E+000	-8,257453068625742E-002	1,000000000000000E+000	-2,4241424E-001	40	-9,8026510E-005
2	0	0	1	0	2,102200839920910E+005	1,2103724E+000	1,2110888E+000	-7,522558435607035E-002	1,000000000000000E+000	-2,4477471E-001	40	-9,1104863E-005
2	0	0	1	0	2,102500625967822E+005	1,2343552E+000	1,2350833E+000	-6,849282005580770E-002	1,000000000000000E+000	-2,4692459E-001	40	-8,4594343E-005
2	0	0	1	0	2,102800414014738E+005	1,2583382E+000	1,2590560E+000	-6,222091935112389E-002	1,000000000000000E+000	-2,4888012E-001	40	-7,8339617E-005
2	0	0	1	0	2,103100202061622E+005	1,2823213E+000	1,2830628E+000	-5,621047031892179E-002	1,000000000000000E+000	-2,5065225E-001	40	-7,2121562E-005
2	0	0	1	0	2,103399989108539E+005	1,3063043E+000	1,3070368E+000	-5,033736275442763E-002	1,000000000000000E+000	-2,5224665E-001	40	-6,5792781E-005
2	0	0	1	0	2,103699777155449E+005	1,3302873E+000	1,3309731E+000	-4,459892669794441E-002	1,000000000000000E+000	-2,5366807E-001	41	-5,9359973E-005
2	0	0	1	0	2,103999564202337E+005	1,3542700E+000	1,3549839E+000	-3,858375787753277E-002	1,000000000000000E+000	-2,5491229E-001	41	-5,2280371E-005
2	0	0	1	0	2,104299351249260E+005	1,3782531E+000	1,3789394E+000	-3,232409917446688E-002	1,000000000000000E+000	-2,5597304E-001	41	-4,4572975E-005
2	0	0	1	0	2,104599138296163E+005	1,4022361E+000	1,4029444E+000	-2,575246859568608E-002	1,000000000000000E+000	-2,5684178E-001	41	-3,6129284E-005
2	0	0	1	0	2,104898926343059E+005	1,4262190E+000	1,4269253E+000	-1,880874964321949E-002	1,000000000000000E+000	-2,5750834E-001	41	-2,6838681E-005
2	0	0	1	0	2,105198714389983E+005	1,4502020E+000	1,4509337E+000	-1,133755523715789E-002	1,000000000000000E+000	-2,5795889E-001	41	-1,6450042E-005
2	0	0	1	0	2,105498500436870E+005	1,4741849E+000	1,4749099E+000	-3,297207197817282E-003	1,000000000000000E+000	-2,5817740E-001	42	-4,8630836E-006
2	1	0	1	0	2,105799536483975E+005	1,4982677E+000	1,4990011E+000	5,522237177255874E-003	1,000000000000000E+000	-2,5814340E-001	42	8,2778397E-006
2	1	0	1	0	2,106099324530894E+005	1,5222508E+000	1,5229905E+000	1,517273713157416E-002	1,000000000000000E+000	-2,5783333E-001	41	2,3107934E-005
2	1	0	1	0	2,106399112577774E+005	1,5462338E+000	1,5469726E+000	2,608491687353885E-002	1,000000000000000E+000	-2,5721595E-001	41	4,0352654E-005
2	1	0	1	0	2,106698899624692E+005	1,5702169E+000	1,5709265E+000	3,864292506121392E-002	1,000000000000000E+000	-2,5624755E-001	41	6,0705195E-005
2	1	0	1	0	2,106998687671605E+005	1,5942000E+000	1,5949292E+000	5,400269438488187E-002	1,000000000000000E+000	-2,5486666E-001	41	8,6130472E-005
2	1	0	1	0	2,107298474718491E+005	1,6181827E+000	1,6189365E+000	7,803690198267055E-002	1,000000000000000E+000	-2,5291502E-001	41	1,2633679E-004
2	1	0	1	0	2,107598261765413E+005	1,6421658E+000	1,6428801E+000	1,121859099909339E-001	1,000000000000000E+000	-2,5007695E-001	40	1,8430800E-004
2	1	0	1	0	2,107898049812312E+005	1,6661487E+000	1,6668824E+000	1,508354981687717E-001	1,000000000000000E+000	-2,4613950E-001	40	2,5142502E-004
2	1	0	1	0	2,108197836859210E+005	1,6901317E+000	1,6908840E+000	1,932474044008954E-001	1,000000000000000E+000	-2,4098572E-001	40	3,2675895E-004
2	1	0	1	0	2,108497624906134E+005	1,7141148E+000	1,7148458E+000	2,394756850817026E-001	1,000000000000000E+000	-2,3450574E-001	40	4,1066387E-004
2	1	0	1	0	2,108797411953029E+005	1,7380978E+000	1,7388216E+000	2,891760664302589E-001	1,000000000000000E+000	-2,2658366E-001	40	5,0282560E-004
2	1	0	1	0	2,109097199999933E+005	1,7620808E+000	1,7628374E+000	3,403123909346111E-001	1,000000000000000E+000	-2,1714289E-001	40	5,9991539E-004
2	1	0	1	0	2,109396987046856E+005	1,7860634E+000	1,7868212E+000	3,897219225691027E-001	1,000000000000000E+000	-2,0618589E-001	40	6,9636339E-004
2	1	0	1	0	2,109696775093735E+005	1,8100463E+000	1,8107941E+000	4,333671576328317E-001	1,000000000000000E+000	-1,9382428E-001	40	7,8473869E-004
2	1	0	1	0	2,109996562140651E+005	1,8340294E+000	1,8347518E+000	4,667452022811704E-001	1,000000000000000E+000	-1,8029703E-001	40	8,5636164E-004
2	1	0	1	0	2,110296349187563E+005	1,8580123E+000	1,8587388E+000	4,866997941121922E-001	1,000000000000000E+000	-1,6595986E-001	40	9,0464781E-004
2	1	0	1	0	2,110596136234449E+005	1,8819954E+000	1,8827058E+000	4,902437403548645E-001	1,000000000000000E+000	-1,5127075E-001	40	9,2298473E-004
2	1	0	1	0	2,110895924281370E+005	1,9059783E+000	1,9066995E+000	4,778243988185569E-001	1,000000000000000E+000	-1,3671699E-001	40	9,1106759E-004
2	1	0	1	0	2,111195711328271E+005	1,9299612E+000	1,9306855E+000	4,510626878662487E-001	1,000000000000000E+000	-1,2275879E-001	40	8,7086018E-004
2	1	0	1	0	2,111495499375167E+005	1,9539443E+000	1,9546427E+000	4,139042808749351E-001	1,000000000000000E+000	-1,0977033E-001	40	8,0903497E-004
2	1	0	1	0	2,111795286422090E+005	1,9779276E+000	1,9786322E+000	3,715060834748041E-001	1,000000000000000E+000	-9,7987294E-002	40	7,3507393E-004
2	1	0	1	0	2,112095074468991E+005	2,0019104E+000	2,0026321E+000	3,282971573137283E-001	1,000000000000000E+000	-8,7497160E-002	40	6,5745844E-004
2	1	0	1	0	2,112394860515890E+005	2,0258930E+000	2,0266237E+000	2,875632756581563E-001	1,000000000000000E+000	-7,8270309E-002	40	5,8278255E-004
2	1	0	1	0	2,112694647562811E+005	2,0498760E+000	2,0505853E+000	2,505926167948469E-001	1,000000000000000E+000	-7,0210993E-002	40	5,1386154E-004
2	1	0	1	0	2,112994436609698E+005	2,0738592E+000	2,0746047E+000	2,179824121366154E-001	1,000000000000000E+000	-6,3194923E-002	40	4,5222734E-004
2	1	0	1	0	2,113294223656608E+005	2,0978420E+000	2,0985639E+000	1,895704382156289E-001	1,000000000000000E+000	-5,7093207E-002	40	3,9782567E-004
2	1	0	1	0	2,113594011703525E+005	2,1218250E+000	2,1225293E+000	1,651183163256662E-001	1,000000000000000E+000	-5,1782846E-002	40	3,5046847E-004
2	1	0	1	0	2,113893799750409E+005	2,1458080E+000	2,1465006E+000	1,443130774243540E-001	1,000000000000000E+000	-4,7149163E-002	40	3,0976810E-004
2	1	0	1	0	2,114193586797323E+005	2,1697910E+000	2,1705067E+000	1,268898932346283E-001	1,000000000000000E+000	-4,3087997E-002	40	2,7541537E-004
2	1	0	1	0	2,114493373844232E+005	2,1937740E+000	2,1944995E+000	1,122935574934407E-001	1,000000000000000E+000	-3,9506488E-002	40	2,4642816E-004
2	1	0	1	0	2,114793161891121E+005	2,2177570E+000	2,2184751E+000	1,001449949975755E-001	1,000000000000000E+000	-3,6323924E-002	40	2,2216918E-004
2	1	0	1	0	2,115092948938042E+005	2,2417400E+000	2,2424216E+000	9,007083107944736E-002	1,000000000000000E+000	-3,3473384E-002	40	2,0197679E-004
2	1	0	1	0	2,115392736984952E+005	2,2657232E+000	2,2664127E+000	8,166421416474834E-002	1,000000000000000E+000	-3,0899709E-002	40	1,8508482E-004
2	1	0	1	0	2,115692522031842E+005	2,2897058E+000	2,2903974E+000	7,449859109629453E-002	1,000000000000000E+000	-2,8558455E-002	40	1,7063138E-004
2	1	0	1	0	2,115992310078766E+005	2,3136888E+000	2,3143795E+000	6,841671405133776E-002	1,000000000000000E+000	-2,6414612E-002	40	1,5834224E-004
2	1	0	1	0	2,116292098125657E+005	2,3376718E+000	2,3383801E+000	6,317771880974576E-002	1,000000000000000E+000	-2,4439886E-002	40	1,4773352E-004
2	1	0	1	0	2,116591885172564E+005	2,3616550E+000	2,3623755E+000	5,868801838363851E-002	1,000000000000000E+000	-2,2611121E-002	40	1,3864314E-004
2	1	0	1	0	2,116891674219486E+005	2,3856380E+000	2,3863578E+000	5,479806908064633E-002	1,000000000000000E+000	-2,0907432E-002	40	1,3076780E-004
2	1	0	1	0	2,117191461266368E+005	2,4096208E+000	2,4103251E+000	5,146186369262079E-002	1,000000000000000E+000	-1,9312220E-002	40	1,2403981E-004
2	1	0	1	0	2,117491248313281E+005	2,4336035E+000	2,4342923E+000	4,865457478630077E-002	1,000000000000000E+000	-1,7808627E-002	40	1,1843946E-004
2	1	0	1	0	2,117792285360391E+005	2,4576864E+000	2,4583576E+000	4,602384697228146E-002	1,000000000000000E+000	-1,6381642E-002	41	1,1314308E-004
2	1	0	1	0	2,118092072407273E+005	2,4816694E+000	2,4823678E+000	4,363968517403755E-002	1,000000000000000E+000	-1,5034406E-002	41	1,0832975E-004
2	1	0	1	0	2,118391860454195E+005	2,5056527E+000	2,5063298E+000	4,135686660838844E-002	1,000000000000000E+000	-1,3757314E-002	41	1,0365395E-004
2	1	0	1	0	2,118691646501101E+005	2,5296354E+000	2,5303428E+000	3,925764293728007E-002	1,000000000000000E+000	-1,2545818E-002	41	9,9335295E-005
2	1	0	1	0	2,118991435547993E+005	2,5536187E+000	2,5543165E+000	3,733869291771834E-002	1,000000000000000E+000	-1,1394541E-002	41	9,5374839E-005
2	1	0	1	0	2,119291220594917E+005	2,5776014E+000	2,5783136E+000	3,555354558878931E-002	1,000000000000000E+000	-1,0298803E-002	41	9,1668189E-005
2	1	0	1	0	2,119591008641813E+005	2,6015842E+000	2,6022952E+000	3,399306160680762E-002	1,000000000000000E+000	-9,2534907E-003	41	8,8459979E-005
2	1	0	1	0	2,119890796688717E+005	2,6255672E+000	2,6263101E+000	3,275778298279197E-002	1,000000000000000E+000	-8,2498351E-003	41	8,6032094E-005
2	1	0	1	0	2,120190583735639E+005	2,6495504E+000	2,6502676E+000	3,155973332281714E-002	1,000000000000000E+000	-7,2813998E-003	41	8,3641738E-005
2	1	0	1	0	2,120490370782521E+005	2,6735332E+000	2,6742506E+000	3,018487199901676E-002	1,000000000000000E+000	-6,3522230E-003	41	8,0721911E-005
2	1	0	1	0	2,120790158829435E+005	2,6975162E+000	2,6982203E+000	2,881469039668749E-002	1,000000000000000E+000	-5,4648099E-003	41	7,7748380E-005
2	1	0	1	0	2,121089946876350E+005	2,7214992E+000	2,7221918E+000	2,768776991786837E-002	1,000000000000000E+000	-4,6147145E-003	41	7,5371419E-005
2	1	0	1	0	2,121389734923234E+005	2,7454822E+000	2,7461984E+000	2,677535104215245E-002	1,000000000000000E+000	-3,7951355E-003	41	7,3530427E-005
2	1	0	1	0	2,121689520970153E+005	2,7694652E+000	2,7701986E+000	2,606706070567849E-002	1,000000000000000E+000	-3,0000508E-003	41	7,2210933E-005
2	1	0	1	0	2,121989308017059E+005	2,7934482E+000	2,7941594E+000	2,559786905697942E-002	1,000000000000000E+000	-2,2228349E-003	41	7,1524526E-005
2	1	0	1	0	2,122289095063950E+005	2,8174310E+000	2,8181496E+000	2,536967227085669E-002	1,000000000000000E+000	-1,4558614E-003	41	7,1495531E-005
2	1	0	1	0	2,122588882110873E+005	2,8414140E+000	2,8421431E+000	2,522526335131575E-002	1,000000000000000E+000	-6,9358060E-004	41	7,1693808E-005
2	1	0	1	0	2,122888671157770E+005	2,8653970E+000	2,8661253E+000	2,481477666452273E-002	1,000000000000000E+000	6,0792059E-005	41	7,1122260E-005
2	1	0	1	0	2,123188458204672E+005	2,8893802E+000	2,8901300E+000	2,423967238783979E-002	1,000000000000000E+000	7,9974195E-004	41	7,0055808E-005
2	1	0	1	0	2,123488245251593E+005	2,9133630E+000	2,9140928E+000	2,369797492620168E-002	1,000000000000000E+000	1,5218961E-003	41	6,9058100E-005
2	1	0	1	0	2,123788033298482E+005	2,9373460E+000	2,9380851E+000	2,315725336905705E-002	1,000000000000000E+000	2,2281755E-003	41	6,8037982E-005
2	1	0	1	0	2,124087821345393E+005	2,9613292E+000	2,9620600E+000	2,258992924339842E-002	1,000000000000000E+000	2,9176571E-003	41	6,6912726E-005
2	1	0	1	0	2,124387608392313E+005	2,9853120E+000	2,9860570E+000	2,214509780405155E-002	1,000000000000000E+000	3,5916150E-003	41	6,6126522E-005
2	1	0	1	1	2,124664909435683E+005	2,9924066E+000	2,9931548E+000	1,602165325344507E-002	1,000000000000000E+000	4,1617574E-003	41	4,7955287E-005
2	1	0	1	1	2,124964697482586E+005	2,9684236E+000	2,9691651E+000	1,166928100021267E-002	1,000000000000000E+000	4,5647812E-003	41	3,4648023E-005
2	1	0	1	1	2,125264484529509E+005	2,9444408E+000	2,9452295E+000	9,147078031066333E-003	1,000000000000000E+000	4,8704497E-003	41	2,6940244E-005
2	1	0	1	1	2,125564271576391E+005	2,9204578E+000	2,9212236E+000	7,413805518365912E-003	1,000000000000000E+000	5,1135877E-003	41	2,1657384E-005
2	1	0	1	1	2,125864059623306E+005	2,8964746E+000	2,8972085E+000	6,063162612940903E-003	1,000000000000000E+000	5,3113089E-003	41	1,7566246E-005
2	1	0	1	1	2,126163845670219E+005	2,8724921E+000	2,8732448E+000	4,975853364653907E-003	1,000000000000000E+000	5,4728477E-003	42	1,4296845E-005
2	1	0	1	1	2,126463632717100E+005	2,8485093E+000	2,8492773E+000	4,084830300919870E-003	1,000000000000000E+000	5,6046015E-003	42	1,1638814E-005
2	1	0	1	1	2,126763419764023E+005	2,8245261E+000	2,8253367E+000	3,370825964786751E-003	1,000000000000000E+000	5,7125986E-003	42	9,5237183E-006
2	1	0	1	1	2,127063206810928E+005	2,8005433E+000	2,8013206E+000	2,821423399101509E-003	1,000000000000000E+000	5,8015971E-003	42	7,9037118E-006
2	1	0	1	1	2,127362993857826E+005	2,7765601E+000	2,7773271E+000	2,344905453003431E-003	1,000000000000000E+000	5,8753029E-003	42	6,5125691E-006
2	1	0	1	1	2,127662781904747E+005	2,7525771E+000	2,7533574E+000	1,914003683024305E-003	1,000000000000000E+000	5,9354794E-003	42	5,2699361E-006
2	1	0	1	1	2,127962569951639E+005	2,7285943E+000	2,7294016E+000	1,520117131039861E-003	1,000000000000000E+000	5,9831738E-003	42	4,1490102E-006
2	1	0	1	1	2,128262356998544E+005	2,7046113E+000	2,7053952E+000	1,134750289967372E-003	1,000000000000000E+000	6,0189855E-003	42	3,0699480E-006
2	1	0	1	1	2,128562142045465E+005	2,6806281E+000	2,6814094E+000	7,136227126674126E-004	1,000000000000000E+000	6,0430947E-003	42	1,9135146E-006
2	1	0	1	1	2,128876294094594E+005	2,6554964E+000	2,6562898E+000	1,972046239502342E-004	1,000000000000000E+000	6,0544671E-003	42	5,2383263E-007
2	0	0	1	1	2,129182952142588E+005	2,6309633E+000	2,6317468E+000	-4,100554044028162E-004	1,000000000000000E+000	6,0481220E-003	43	-1,0791620E-006
2	0	0	1	1	2,129483988189693E+005	2,6068807E+000	2,6076860E+000	-9,142635679506936E-004	1,000000000000000E+000	6,0240114E-003	42	-2,3841123E-006
2	0	0	1	1	2,129783776236582E+005	2,5828977E+000	2,5836926E+000	-1,179320160541116E-003	1,000000000000000E+000	5,9886947E-003	42	-3,0470007E-006
2	0	0	1	1	2,130083563283507E+005	2,5589149E+000	2,5597177E+000	-1,355119099342456E-003	1,000000000000000E+000	5,9478274E-003	42	-3,4687223E-006
2	0	0	1	1	2,130383347330401E+005	2,5349319E+000	2,5357182E+000	-1,650845698931900E-003	1,000000000000000E+000	5,8995932E-003	42	-4,1860794E-006
2	0	0	1	1	2,130683135377306E+005	2,5109491E+000	2,5117383E+000	-2,051390290288811E-003	1,000000000000000E+000	5,8406135E-003	42	-5,1525558E-006
2	0	0	1	1	2,130982920424226E+005	2,4869657E+000	2,4877660E+000	-2,437191033884612E-003	1,000000000000000E+000	5,7700085E-003	42	-6,0631610E-006
2	0	0	1	1	2,131282708471105E+005	2,4629827E+000	2,4637582E+000	-2,843992761198663E-003	1,000000000000000E+000	5,6876033E-003	42	-7,0069104E-006
2	0	0	1	1	2,131582496518024E+005	2,4389999E+000	2,4397938E+000	-3,238285055559426E-003	1,000000000000000E+000	5,5928961E-003	42	-7,9007477E-006
2	0	0	1	1	2,131882283564936E+005	2,4150169E+000	2,4158177E+000	-3,634888388287207E-003	1,000000000000000E+000	5,4863193E-003	42	-8,7812277E-006
2	0	0	1	1	2,132182070611822E+005	2,3910339E+000	2,3918440E+000	-4,003574473127894E-003	1,000000000000000E+000	5,3685238E-003	42	-9,5759260E-006
2	0	0	1	1	2,132481856658743E+005	2,3670509E+000	2,3678839E+000	-4,407174783971436E-003	1,000000000000000E+000	5,2394737E-003	42	-1,0435679E-005
2	0	0	1	1	2,132781644705641E+005	2,3430679E+000	2,3438683E+000	-4,883143069198816E-003	1,000000000000000E+000	5,0969166E-003	42	-1,1445444E-005
2	0	0	1	1	2,133081431752543E+005	2,3190849E+000	2,3198874E+000	-5,442481358229612E-003	1,000000000000000E+000	4,9387487E-003	42	-1,2625944E-005
2	0	0	1	1	2,133381217799466E+005	2,2951021E+000	2,2959278E+000	-6,052422916502875E-003	1,000000000000000E+000	4,7629480E-003	42	-1,3895926E-005
2	0	0	1	1	2,133681005846360E+005	2,2711191E+000	2,2719579E+000	-6,751917652169301E-003	1,000000000000000E+000	4,5675640E-003	42	-1,5340072E-005
2	0	0	1	1	2,133980792893263E+005	2,2471361E+000	2,2479339E+000	-7,520143508384425E-003	1,000000000000000E+000	4,3500909E-003	42	-1,6904785E-005
2	0	0	1	1	2,134280578940180E+005	2,2231531E+000	2,2239692E+000	-8,358923062308010E-003	1,000000000000000E+000	4,1087242E-003	42	-1,8589988E-005
2	0	0	1	1	2,134580364987063E+005	2,1991701E+000	2,1999466E+000	-9,298998008938374E-003	1,000000000000000E+000	3,8404840E-003	42	-2,0457299E-005
2	0	0	1	1	2,134880152033981E+005	2,1751871E+000	2,1759958E+000	-1,032464565272845E-002	1,000000000000000E+000	3,5430556E-003	41	-2,2466385E-005
2	0	0	1	1	2,135179940080894E+005	2,1512043E+000	2,1520364E+000	-1,149732645636584E-002	1,000000000000000E+000	3,2127451E-003	41	-2,4742665E-005
2	0	0	1	1	2,135479727127776E+005	2,1272211E+000	2,1280580E+000	-1,278860210700221E-002	1,000000000000000E+000	2,8454012E-003	41	-2,7214886E-005
2	0	0	1	1	2,135779515174695E+005	2,1032381E+000	2,1040566E+000	-1,425352522757561E-002	1,000000000000000E+000	2,4368109E-003	41	-2,9990224E-005
2	0	0	1	1	2,136079303221600E+005	2,0792553E+000	2,0800879E+000	-1,586777415880097E-002	1,000000000000000E+000	1,9822551E-003	41	-3,3006367E-005
2	0	0	1	1	2,136379088268501E+005	2,0552723E+000	2,0561130E+000	-1,761954280094573E-002	2,000000000000000E+000	1,4770168E-003	41	-3,6227771E-005
2	0	0	1	1	2,136678875315420E+005	2,0312891E+000	2,0321338E+000	-1,960545085501775E-002	2,000000000000000E+000	9,1631553E-004	41	-3,9840899E-005
2	0	0	1	1	2,136978662362318E+005	2,0073066E+000	2,0081413E+000	-2,177752563365688E-002	2,000000000000000E+000	2,9350354E-004	41	-4,3732347E-005
2	0	0	1	1	2,137278450409217E+005	1,9833233E+000	1,9841502E+000	-2,413028465531435E-002	2,000000000000000E+000	-3,9740748E-004	41	-4,7878108E-005
2	0	0	1	1	2,137578237456139E+005	1,9593405E+000	1,9601877E+000	-2,672703903350784E-002	2,000000000000000E+000	-1,1628943E-003	41	-5,2390013E-005
2	0	0	1	1	2,137878024503025E+005	1,9353576E+000	1,9361924E+000	-2,955882414369858E-002	2,000000000000000E+000	-2,0102321E-003	41	-5,7231569E-005
2	0	0	1	1	2,138177811549937E+005	1,9113747E+000	1,9122167E+000	-3,267258009256468E-002	2,000000000000000E+000	-2,9464329E-003	41	-6,2477055E-005
2	0	0	1	1	2,138477598596853E+005	1,8873917E+000	1,8882191E+000	-3,619928207740680E-002	2,000000000000000E+000	-3,9820750E-003	41	-6,8352179E-005
2	0	0	1	1	2,138777385643730E+005	1,8634084E+000	1,8642447E+000	-4,014182994351778E-002	2,000000000000000E+000	-5,1293834E-003	41	-7,4834192E-005
2	0	0	1	1	2,139077172690653E+005	1,8394254E+000	1,8402537E+000	-4,450086419834803E-002	2,000000000000000E+000	-6,4006699E-003	41	-8,1892882E-005
2	0	0	1	1	2,139376959737558E+005	1,8154427E+000	1,8162923E+000	-4,935954871400547E-002	2,000000000000000E+000	-7,8099896E-003	41	-8,9651367E-005
2	0	0	1	1	2,139676747784454E+005	1,7914596E+000	1,7923069E+000	-5,484671536687036E-002	2,000000000000000E+000	-9,3745710E-003	41	-9,8302145E-005
2	0	0	1	1	2,139976534831377E+005	1,7674769E+000	1,7683196E+000	-6,090827759608497E-002	2,000000000000000E+000	-1,1112139E-002	41	-1,0770530E-004
2	0	0	1	1	2,140276321878270E+005	1,7434938E+000	1,7443413E+000	-6,767759224365011E-002	2,000000000000000E+000	-1,3041751E-002	41	-1,1805282E-004
2	0	0	1	1	2,140576107925174E+005	1,7195108E+000	1,7203470E+000	-7,517373504884661E-002	2,000000000000000E+000	-1,5185858E-002	41	-1,2932491E-004
2	0	0	1	1	2,140875895972098E+005	1,6955279E+000	1,6963660E+000	-8,346730755233467E-002	2,000000000000000E+000	-1,7566200E-002	41	-1,4159110E-004
2	0	0	1	1	2,141175684018983E+005	1,6715449E+000	1,6723635E+000	-9,250744512126896E-002	2,000000000000000E+000	-2,0206431E-002	41	-1,5470608E-004
2	0	0	1	1	2,141475471065895E+005	1,6475619E+000	1,6483822E+000	-1,022250052432180E-001	2,000000000000000E+000	-2,3130190E-002	41	-1,6850588E-004
2	0	0	1	1	2,141775258112811E+005	1,6235790E+000	1,6244122E+000	-1,130642107932562E-001	2,000000000000000E+000	-2,6358606E-002	40	-1,8366288E-004
2	0	0	1	1	2,142075045159692E+005	1,5995961E+000	1,6004378E+000	-1,251775441733376E-001	2,000000000000000E+000	-2,9930489E-002	40	-2,0033887E-004
2	0	0	1	1	2,142374832206611E+005	1,5756130E+000	1,5764331E+000	-1,388589910853675E-001	2,000000000000000E+000	-3,3889085E-002	40	-2,1890190E-004
2	0	0	1	1	2,142674619253520E+005	1,5516301E+000	1,5524570E+000	-1,546078069204913E-001	2,000000000000000E+000	-3,8286217E-002	40	-2,4002197E-004
2	0	0	1	1	2,142974406300411E+005	1,5276471E+000	1,5284811E+000	-1,725295251618211E-001	2,000000000000000E+000	-4,3187816E-002	40	-2,6370812E-004
2	0	0	1	1	2,143274194347332E+005	1,5036639E+000	1,5045178E+000	-1,930123756901980E-001	2,000000000000000E+000	-4,8664838E-002	40	-2,9039054E-004
2	0	0	1	1	2,143573981394228E+005	1,4796813E+000	1,4805282E+000	-2,150965654082599E-001	2,000000000000000E+000	-5,4787789E-002	40	-3,1845653E-004
2	0	0	1	1	2,143873768441131E+005	1,4556980E+000	1,4565521E+000	-2,353613999463242E-001	2,000000000000000E+000	-6,1551843E-002	40	-3,4281614E-004
2	0	0	1	1	2,144173555488056E+005	1,4317151E+000	1,4325581E+000	-2,511686859573921E-001	2,000000000000000E+000	-6,8860509E-002	40	-3,5981371E-004
2	0	0	1	1	2,144473342534942E+005	1,4077321E+000	1,4085667E+000	-2,622128927988756E-001	2,000000000000000E+000	-7,6571807E-002	40	-3,6934434E-004
2	0	0	1	1	2,144773130581852E+005	1,3837491E+000	1,3845940E+000	-2,685975236572915E-001	2,000000000000000E+000	-8,4542871E-002	40	-3,7189850E-004
2	0	0	1	1	2,145072916628765E+005	1,3597662E+000	1,3606400E+000	-2,721588842176592E-001	2,000000000000000E+000	-9,2656992E-002	40	-3,7031027E-004
2	0	0	1	1	2,145372704675649E+005	1,3357832E+000	1,3366168E+000	-2,742799290526188E-001	2,000000000000000E+000	-1,0085504E-001	40	-3,6660716E-004
2	0	0	1	1	2,145672491722570E+005	1,3118004E+000	1,3126411E+000	-2,746236211845812E-001	2,000000000000000E+000	-1,0909254E-001	40	-3,6048226E-004
2	0	0	1	1	2,145972278769477E+005	1,2878172E+000	1,2886542E+000	-2,732930274651677E-001	2,000000000000000E+000	-1,1731271E-001	40	-3,5218021E-004
2	0	0	1	1	2,146272066816366E+005	1,2638342E+000	1,2646624E+000	-2,704185514380879E-001	2,000000000000000E+000	-1,2546903E-001	40	-3,4198817E-004
2	0	0	1	1	2,146571852863289E+005	1,2398514E+000	1,2406744E+000	-2,663786423695967E-001	2,000000000000000E+000	-1,3352142E-001	40	-3,3048916E-004
2	0	0	1	1	2,146871640910190E+005	1,2158684E+000	1,2167076E+000	-2,612809765089898E-001	2,000000000000000E+000	-1,4143506E-001	40	-3,1790254E-004
2	0	0	1	1	2,147171426957091E+005	1,1918854E+000	1,1927551E+000	-2,555752269660916E-001	2,000000000000000E+000	-1,4918649E-001	40	-3,0483864E-004
2	0	0	1	1	2,147471215004011E+005	1,1679024E+000	1,1687595E+000	-2,495244715174589E-001	2,000000000000000E+000	-1,5676193E-001	40	-2,9163409E-004
2	0	0	1	1	2,147771003050902E+005	1,1439192E+000	1,1447816E+000	-2,433323818835591E-001	2,000000000000000E+000	-1,6415295E-001	40	-2,7856242E-004
2	0	0	1	1	2,148070789097810E+005	1,1199366E+000	1,1208090E+000	-2,371332104295489E-001	2,000000000000000E+000	-1,7135708E-001	40	-2,6578104E-004
2	0	0	1	1	2,148370576144727E+005	1,0959537E+000	1,0968163E+000	-2,311289879945619E-001	2,000000000000000E+000	-1,7837785E-001	40	-2,5350603E-004
2	0	0	1	1	2,148670363191608E+005	1,0719706E+000	1,0728244E+000	-2,253348488994993E-001	2,000000000000000E+000	-1,8522146E-001	40	-2,4174471E-004
2	0	0	1	1	2,148970151238525E+005	1,0479876E+000	1,0488640E+000	-2,199496640869438E-001	2,000000000000000E+000	-1,9189750E-001	40	-2,3069729E-004
2	0	0	1	1	2,149269938285439E+005	1,0240046E+000	1,0248818E+000	-2,150326983646712E-001	2,000000000000000E+000	-1,9841950E-001	40	-2,2038311E-004
2	0	0	1	1	2,149566602331833E+005	1,0002717E+000	1,0011638E+000	-2,107321657749872E-001	2,000000000000000E+000	-2,0473735E-001	40	-2,1097742E-004
2	0	0	1	1	2,149852029376504E+005	1,0225056E+000	1,0233654E+000	-1,706472104195069E-001	2,000000000000000E+000	-2,1006747E-001	40	-1,7463445E-004
2	0	0	1	1	2,150151816423419E+005	1,0464886E+000	1,0473434E+000	-1,482042519995493E-001	2,000000000000000E+000	-2,1482344E-001	40	-1,5522074E-004
2	0	0	1	1	2,150451603470300E+005	1,0704715E+000	1,0713189E+000	-1,314238954023148E-001	2,000000000000000E+000	-2,1900095E-001	40	-1,4079690E-004
2	0	0	1	1	2,150751391517223E+005	1,0944546E+000	1,0952947E+000	-1,178226476064534E-001	2,000000000000000E+000	-2,2272775E-001	40	-1,2905052E-004
2	0	0	1	1	2,151051178564131E+005	1,1184378E+000	1,1192899E+000	-1,064251568799793E-001	2,000000000000000E+000	-2,2608188E-001	40	-1,1912060E-004
2	0	0	1	1	2,151350965611020E+005	1,1424205E+000	1,1432672E+000	-9,649270604637272E-002	2,000000000000000E+000	-2,2911724E-001	40	-1,1031694E-004
2	0	0	1	1	2,151650753657944E+005	1,1664035E+000	1,1672902E+000	-8,777095129529155E-002	2,000000000000000E+000	-2,3187397E-001	40	-1,0245417E-004
2	0	0	1	1	2,151950539704841E+005	1,1903864E+000	1,1912704E+000	-7,998069250027784E-002	2,000000000000000E+000	-2,3438422E-001	40	-9,5278629E-005
2	0	0	1	1	2,152250327751745E+005	1,2143694E+000	1,2151980E+000	-7,300553256519327E-002	2,000000000000000E+000	-2,3667344E-001	40	-8,8716180E-005
2	0	0	1	1	2,152550115798670E+005	1,2383525E+000	1,2391697E+000	-6,652837909717951E-002	2,000000000000000E+000	-2,3876098E-001	40	-8,2439954E-005
2	0	0	1	1	2,152849902845551E+005	1,2623357E+000	1,2631556E+000	-6,047294568820888E-002	2,000000000000000E+000	-2,4066073E-001	40	-7,6386736E-005
2	0	0	1	1	2,153149689892461E+005	1,2863183E+000	1,2871656E+000	-5,463223033713260E-002	2,000000000000000E+000	-2,4238327E-001	40	-7,0320733E-005
2	0	0	1	1	2,153449477939378E+005	1,3103013E+000	1,3111609E+000	-4,890107959249035E-002	2,000000000000000E+000	-2,4393228E-001	40	-6,4117186E-005
2	0	0	1	1	2,153749264986264E+005	1,3342844E+000	1,3350874E+000	-4,331291838923728E-002	2,000000000000000E+000	-2,4531446E-001	41	-5,7826532E-005
2	0	0	1	1	2,154049052033181E+005	1,3582671E+000	1,3590730E+000	-3,737955378679947E-002	2,000000000000000E+000	-2,4652177E-001	41	-5,0801544E-005
2	0	0	1	1	2,154348839080092E+005	1,3822503E+000	1,3830907E+000	-3,123056058191132E-002	2,000000000000000E+000	-2,4754886E-001	41	-4,3194697E-005
2	0	0	1	1	2,154648627126976E+005	1,4062334E+000	1,4070537E+000	-2,479675368387335E-002	2,000000000000000E+000	-2,4838702E-001	41	-3,4890363E-005
2	0	0	1	1	2,154948414173899E+005	1,4302162E+000	1,4310302E+000	-1,791804762673704E-002	2,000000000000000E+000	-2,4902597E-001	41	-2,5641266E-005
2	0	0	1	1	2,155248202220798E+005	1,4541992E+000	1,4550151E+000	-1,052926426179215E-002	2,000000000000000E+000	-2,4945119E-001	41	-1,5320238E-005
2	0	0	1	1	2,155547990267703E+005	1,4781823E+000	1,4790012E+000	-2,578475136612433E-003	2,000000000000000E+000	-2,4964644E-001	42	-3,8135677E-006
2	1	0	1	1	2,155849026314821E+005	1,5022651E+000	1,5031080E+000	6,199221680313442E-003	2,000000000000000E+000	-2,4959140E-001	42	9,3180997E-006
2	1	0	1	1	2,156148812361704E+005	1,5262481E+000	1,5270641E+000	1,581676553760697E-002	2,000000000000000E+000	-2,4926153E-001	41	2,4153214E-005
2	1	0	1	1	2,156448600408616E+005	1,5502310E+000	1,5510945E+000	2,678199290617497E-002	2,000000000000000E+000	-2,4862444E-001	41	4,1541403E-005
2	1	0	1	1	2,156748387455535E+005	1,5742140E+000	1,5750334E+000	3,936496957514435E-002	2,000000000000000E+000	-2,4763542E-001	41	6,2001141E-005
2	1	0	1	1	2,157048175502419E+005	1,5981969E+000	1,5990409E+000	5,514630587082814E-002	2,000000000000000E+000	-2,4622925E-001	41	8,8181194E-005
2	1	0	1	1	2,157347962549335E+005	1,6221799E+000	1,6230284E+000	8,021006093674943E-002	2,000000000000000E+000	-2,4422714E-001	41	1,3018321E-004
2	1	0	1	1	2,157647749596243E+005	1,6461631E+000	1,6469876E+000	1,142415042906102E-001	2,000000000000000E+000	-2,4132401E-001	40	1,8815434E-004
2	1	0	1	1	2,157947537643129E+005	1,6701460E+000	1,6709694E+000	1,525475083738823E-001	2,000000000000000E+000	-2,3733106E-001	40	2,5490220E-004
2	1	0	1	1	2,158247324690050E+005	1,6941286E+000	1,6949719E+000	1,943512642477914E-001	2,000000000000000E+000	-2,3213843E-001	40	3,2941994E-004
2	1	0	1	1	2,158547112736958E+005	1,7181119E+000	1,7189633E+000	2,392175116280022E-001	2,000000000000000E+000	-2,2564647E-001	40	4,1120613E-004
2	1	0	1	1	2,158846900783852E+005	1,7420948E+000	1,7429031E+000	2,875085902327372E-001	2,000000000000000E+000	-2,1775272E-001	40	5,0109962E-004
2	1	0	1	1	2,159146687830773E+005	1,7660778E+000	1,7669156E+000	3,368459133771626E-001	2,000000000000000E+000	-2,0838802E-001	40	5,9517828E-004
2	1	0	1	1	2,159446475877669E+005	1,7900608E+000	1,7908880E+000	3,840066136884199E-001	2,000000000000000E+000	-1,9756804E-001	40	6,8771280E-004
2	1	0	1	1	2,159746262924573E+005	1,8140434E+000	1,8148750E+000	4,251957481965500E-001	2,000000000000000E+000	-1,8541512E-001	40	7,7167712E-004
2	1	0	1	1	2,160046049971497E+005	1,8380268E+000	1,8388731E+000	4,564209350558688E-001	2,000000000000000E+000	-1,7216733E-001	40	8,3930022E-004
2	1	0	1	1	2,160345837018378E+005	1,8620096E+000	1,8628308E+000	4,742331584600539E-001	2,000000000000000E+000	-1,5817651E-001	40	8,8341610E-004
2	1	0	1	1	2,160645625065288E+005	1,8859925E+000	1,8868082E+000	4,762686215976668E-001	2,000000000000000E+000	-1,4388601E-001	40	8,9862751E-004
2	1	0	1	1	2,160945413112203E+005	1,9099756E+000	1,9108182E+000	4,624238609228877E-001	2,000000000000000E+000	-1,2977715E-001	40	8,8360795E-004
2	1	0	1	1	2,161245200159089E+005	1,9339586E+000	1,9347754E+000	4,345108083885281E-001	2,000000000000000E+000	-1,1630156E-001	40	8,4068079E-004
2	1	0	1	1	2,161544987206007E+005	1,9579414E+000	1,9587555E+000	3,971770167754993E-001	2,000000000000000E+000	-1,0381410E-001	40	7,7797269E-004
2	1	0	1	1	2,161844774252917E+005	1,9819244E+000	1,9827275E+000	3,549395373329638E-001	2,000000000000000E+000	-9,2533238E-002	40	7,0374837E-004
2	1	0	1	1	2,162144563299802E+005	2,0059073E+000	2,0067255E+000	3,127907978207958E-001	2,000000000000000E+000	-8,2524419E-002	40	6,2768528E-004
2	1	0	1	1	2,162444351346726E+005	2,0298903E+000	2,0307066E+000	2,733830738266247E-001	2,000000000000000E+000	-7,3743239E-002	40	5,5516080E-004
2	1	0	1	1	2,162744136393629E+005	2,0538733E+000	2,0546763E+000	2,381140704974198E-001	2,000000000000000E+000	-6,6083573E-002	40	4,8924732E-004
2	1	0	1	1	2,163043925440529E+005	2,0778563E+000	2,0786371E+000	2,070843714966228E-001	2,000000000000000E+000	-5,9418470E-002	40	4,3045325E-004
2	1	0	1	1	2,163343712487454E+005	2,1018395E+000	2,1026342E+000	1,803920799203254E-001	2,000000000000000E+000	-5,3617574E-002	40	3,7929855E-004
2	1	0	1	1	2,163643499534335E+005	2,1258221E+000	2,1266108E+000	1,574177197675586E-001	2,000000000000000E+000	-4,8559800E-002	40	3,3476623E-004
2	1	0	1	1	2,163943286581245E+005	2,1498051E+000	2,1505799E+000	1,378953957007969E-001	2,000000000000000E+000	-4,4138487E-002	40	2,9655508E-004
2	1	0	1	1	2,164243073628163E+005	2,1737881E+000	2,1745868E+000	1,214561489259567E-001	2,000000000000000E+000	-4,0254559E-002	40	2,6411694E-004
2	1	0	1	1	2,164542861675047E+005	2,1977713E+000	2,1985509E+000	1,078269301742876E-001	2,000000000000000E+000	-3,6819853E-002	40	2,3706300E-004
2	1	0	1	1	2,164842649721965E+005	2,2217541E+000	2,2225595E+000	9,643845243815904E-002	2,000000000000000E+000	-3,3760175E-002	40	2,1434019E-004
2	1	0	1	1	2,165142437768877E+005	2,2457371E+000	2,2465193E+000	8,697070431631015E-002	2,000000000000000E+000	-3,1011932E-002	40	1,9538136E-004
2	1	0	1	1	2,165442225815759E+005	2,2697201E+000	2,2705023E+000	7,899022562610036E-002	2,000000000000000E+000	-2,8524235E-002	40	1,7934749E-004
2	1	0	1	1	2,165742012862683E+005	2,2937031E+000	2,2945008E+000	7,223934697368110E-002	2,000000000000000E+000	-2,6255948E-002	40	1,6575324E-004
2	1	0	1	1	2,166041798909586E+005	2,3176861E+000	2,3184724E+000	6,651579015718012E-002	2,000000000000000E+000	-2,4174875E-002	40	1,5421503E-004
2	1	0	1	1	2,166341586956487E+005	2,3416693E+000	2,3424520E+000	6,155818640453675E-002	2,000000000000000E+000	-2,2253612E-002	40	1,4419710E-004
2	1	0	1	1	2,166641372003409E+005	2,3656516E+000	2,3664358E+000	5,728878659613501E-002	2,000000000000000E+000	-2,0469895E-002	40	1,3557024E-004
2	1	0	1	1	2,166941161050298E+005	2,3896348E+000	2,3904054E+000	5,360067930142975E-002	2,000000000000000E+000	-1,8805131E-002	40	1,2812736E-004
2	1	0	1	1	2,167240948097204E+005	2,4136178E+000	2,4144146E+000	5,043770521513158E-002	2,000000000000000E+000	-1,7243017E-002	40	1,2177754E-004
2	1	0	1	1	2,167541985144322E+005	2,4377007E+000	2,4384925E+000	4,763824842404567E-002	2,000000000000000E+000	-1,5763097E-002	41	1,1616552E-004
2	1	0	1	1	2,167841772191203E+005	2,4616838E+000	2,4624391E+000	4,520393198133990E-002	2,000000000000000E+000	-1,4368055E-002	41	1,1131193E-004
2	1	0	1	1	2,168141560238119E+005	2,4856665E+000	2,4864631E+000	4,288990284956096E-002	2,000000000000000E+000	-1,3043665E-002	41	1,0664416E-004
2	1	0	1	1	2,168441348285028E+005	2,5096498E+000	2,5104418E+000	4,074281580004013E-002	2,000000000000000E+000	-1,1787286E-002	41	1,0228247E-004
2	1	0	1	1	2,168741135331914E+005	2,5336328E+000	2,5344131E+000	3,869398793707135E-002	2,000000000000000E+000	-1,0593915E-002	41	9,8066550E-005
2	1	0	1	1	2,169040924378836E+005	2,5576158E+000	2,5584092E+000	3,682519881605509E-002	2,000000000000000E+000	-9,4588175E-003	41	9,4213930E-005
2	1	0	1	1	2,169340711425743E+005	2,5815988E+000	2,5823879E+000	3,511311478018075E-002	2,000000000000000E+000	-8,3774887E-003	41	9,0675683E-005
2	1	0	1	1	2,169640497472635E+005	2,6055818E+000	2,6063821E+000	3,363380545845684E-002	2,000000000000000E+000	-7,3444331E-003	41	8,7662549E-005
2	1	0	1	1	2,169940285519555E+005	2,6295648E+000	2,6303570E+000	3,245939669472744E-002	2,000000000000000E+000	-6,3509233E-003	41	8,5379805E-005
2	1	0	1	1	2,170240070566451E+005	2,6535473E+000	2,6543281E+000	3,124657108829587E-002	2,000000000000000E+000	-5,3917859E-003	41	8,2938655E-005
2	1	0	1	1	2,170539858613358E+005	2,6775305E+000	2,6782866E+000	2,988594568465518E-002	2,000000000000000E+000	-4,4716126E-003	41	8,0043130E-005
2	1	0	1	1	2,170839646660280E+005	2,7015131E+000	2,7022772E+000	2,859779780010724E-002	2,000000000000000E+000	-3,5919393E-003	41	7,7279175E-005
2	1	0	1	1	2,171139434707165E+005	2,7254963E+000	2,7262917E+000	2,751865316374169E-002	2,000000000000000E+000	-2,7477276E-003	41	7,5023876E-005
2	1	0	1	1	2,171439222754072E+005	2,7494793E+000	2,7502530E+000	2,664346571125398E-002	2,000000000000000E+000	-1,9329800E-003	41	7,3276271E-005
2	1	0	1	1	2,171739009800991E+005	2,7734625E+000	2,7742608E+000	2,596315444932640E-002	2,000000000000000E+000	-1,1417600E-003	41	7,2028561E-005
2	1	0	1	1	2,172038796847872E+005	2,7974453E+000	2,7982326E+000	2,551558865970643E-002	2,000000000000000E+000	-3,6707675E-004	41	7,1398550E-005
2	1	0	1	1	2,172338584894792E+005	2,8214283E+000	2,8221912E+000	2,532532690106287E-002	2,000000000000000E+000	3,9798109E-004	41	7,1472918E-005
2	1	0	1	1	2,172638370941700E+005	2,8454113E+000	2,8462012E+000	2,516175323001635E-002	2,000000000000000E+000	1,1584935E-003	41	7,1615410E-005
2	1	0	1	1	2,172938159988585E+005	2,8693945E+000	2,8701649E+000	2,471165655029545E-002	2,000000000000000E+000	1,9099922E-003	41	7,0926530E-005
2	1	0	1	1	2,173237945035510E+005	2,8933771E+000	2,8941619E+000	2,416027292859246E-002	2,000000000000000E+000	2,6459813E-003	41	6,9923743E-005
2	1	0	1	1	2,173537733082417E+005	2,9173598E+000	2,9181402E+000	2,363536023208668E-002	2,000000000000000E+000	3,3656878E-003	41	6,8971291E-005
2	1	0	1	1	2,173837521129313E+005	2,9413431E+000	2,9421036E+000	2,311712527648990E-002	2,000000000000000E+000	4,0701581E-003	41	6,8012982E-005
2	1	0	1	1	2,174137308176237E+005	2,9653261E+000	2,9661047E+000	2,260058740837652E-002	2,000000000000000E+000	4,7589215E-003	41	6,7035711E-005
2	1	0	1	1	2,174437095223120E+005	2,9893091E+000	2,9900942E+000	2,218736261133625E-002	2,000000000000000E+000	5,4336446E-003	41	6,6342305E-005
2	1	0	1	0	2,174714397266507E+005	2,9884095E+000	2,9892087E+000	1,517665752333665E-002	2,000000000000000E+000	5,9726918E-003	41	4,5366196E-005
2	1	0	1	0	2,175014184313433E+005	2,9644270E+000	2,9652023E+000	1,137311411904474E-002	2,000000000000000E+000	6,3610468E-003	41	3,3723583E-005
2	1	0	1	0	2,175313971360321E+005	2,9404438E+000	2,9411983E+000	9,021957282126722E-003	2,000000000000000E+000	6,6610309E-003	41	2,6535366E-005
2	1	0	1	0	2,175613759407229E+005	2,9164610E+000	2,9172180E+000	7,351503443881774E-003	2,000000000000000E+000	6,9019413E-003	41	2,1445938E-005
2	1	0	1	0	2,175913547454150E+005	2,8924780E+000	2,8932540E+000	6,086791290939308E-003	2,000000000000000E+000	7,0989830E-003	41	1,7610633E-005
2	1	0	1	0	2,176213334501032E+005	2,8684947E+000	2,8692942E+000	5,021948493270451E-003	2,000000000000000E+000	7,2614043E-003	42	1,4409447E-005
2	1	0	1	0	2,176513121547947E+005	2,8445117E+000	2,8453093E+000	4,149450888122734E-003	2,000000000000000E+000	7,3945313E-003	42	1,1806471E-005
2	1	0	1	0	2,176812909594858E+005	2,8205287E+000	2,8213193E+000	3,440359933022823E-003	2,000000000000000E+000	7,5041340E-003	42	9,7063539E-006
2	1	0	1	0	2,177112696641744E+005	2,7965460E+000	2,7973204E+000	2,891956647111942E-003	2,000000000000000E+000	7,5952415E-003	42	8,0897289E-006
2	1	0	1	0	2,177412482688666E+005	2,7725632E+000	2,7733498E+000	2,402864428359117E-003	2,000000000000000E+000	7,6711536E-003	42	6,6639836E-006
2	1	0	1	0	2,177712269735564E+005	2,7485800E+000	2,7493694E+000	1,969681597541840E-003	2,000000000000000E+000	7,7332249E-003	42	5,4153825E-006
2	1	0	1	0	2,178012057782465E+005	2,7245967E+000	2,7253971E+000	1,546179880842652E-003	2,000000000000000E+000	7,7826497E-003	42	4,2139541E-006
2	1	0	1	0	2,178311844829388E+005	2,7006140E+000	2,7014027E+000	1,156852082654515E-003	2,000000000000000E+000	7,8198854E-003	42	3,1251234E-006
2	1	0	1	0	2,178611629876280E+005	2,6766312E+000	2,6774058E+000	7,418315552316372E-004	2,000000000000000E+000	7,8449929E-003	42	1,9861841E-006
2	1	0	1	0	2,178922033924850E+005	2,6517990E+000	2,6525736E+000	2,219154160147513E-004	2,000000000000000E+000	7,8566195E-003	43	5,8864697E-007
2	0	0	1	0	2,179233687973614E+005	2,6268663E+000	2,6276453E+000	-4,221966430236050E-004	2,000000000000000E+000	7,8499997E-003	43	-1,1093830E-006
2	0	0	1	0	2,179534724020697E+005	2,6027837E+000	2,6035657E+000	-8,758381070214805E-004	2,000000000000000E+000	7,8260982E-003	42	-2,2803019E-006
2	0	0	1	0	2,179834512067621E+005	2,5788007E+000	2,5795822E+000	-1,089901112507553E-003	2,000000000000000E+000	7,7923536E-003	42	-2,8114896E-006
2	0	0	1	0	2,180134300114526E+005	2,5548174E+000	2,5555780E+000	-1,312781588647130E-003	2,000000000000000E+000	7,7528344E-003	42	-3,3549156E-006
2	0	0	1	0	2,180434085161423E+005	2,5308347E+000	2,5316141E+000	-1,646237754484164E-003	2,000000000000000E+000	7,7051567E-003	42	-4,1676385E-006
2	0	0	1	0	2,180733872208341E+005	2,5068514E+000	2,5076365E+000	-2,064145135981150E-003	2,000000000000000E+000	7,6463339E-003	42	-5,1761258E-006
2	0	0	1	0	2,181033660255233E+005	2,4828687E+000	2,4836516E+000	-2,431433793580087E-003	2,000000000000000E+000	7,5756893E-003	42	-6,0388347E-006
2	0	0	1	0	2,181333448302142E+005	2,4588857E+000	2,4596756E+000	-2,842722520688692E-003	2,000000000000000E+000	7,4931420E-003	42	-6,9921753E-006
2	0	0	1	0	2,181633235349064E+005	2,4349027E+000	2,4356863E+000	-3,259544556157720E-003	2,000000000000000E+000	7,3980861E-003	42	-7,9392285E-006
2	0	0	1	0	2,181933021395947E+005	2,4109201E+000	2,4117105E+000	-3,636275391601856E-003	2,000000000000000E+000	7,2909063E-003	42	-8,7696435E-006
2	0	0	1	0	2,182232809442856E+005	2,3869371E+000	2,3877180E+000	-4,023276277723676E-003	2,000000000000000E+000	7,1725198E-003	42	-9,6064487E-006
2	0	0	1	0	2,182532592489766E+005	2,3629537E+000	2,3637378E+000	-4,444616834396288E-003	2,000000000000000E+000	7,0422813E-003	42	-1,0505909E-005
2	0	0	1	0	2,182832380536655E+005	2,3389707E+000	2,3397560E+000	-4,957592230153109E-003	2,000000000000000E+000	6,8981559E-003	42	-1,1599556E-005
2	0	0	1	0	2,183132168583577E+005	2,3149879E+000	2,3157566E+000	-5,559439609113828E-003	2,000000000000000E+000	6,7376755E-003	42	-1,2874309E-005
2	0	0	1	0	2,183431955630481E+005	2,2910049E+000	2,2917793E+000	-6,166111608125628E-003	2,000000000000000E+000	6,5589482E-003	42	-1,4131367E-005
2	0	0	1	0	2,183731742677374E+005	2,2670221E+000	2,2678041E+000	-6,879258607250416E-003	2,000000000000000E+000	6,3599683E-003	42	-1,5600812E-005
2	0	0	1	0	2,184031530724298E+005	2,2430391E+000	2,2438114E+000	-7,682497955636886E-003	2,000000000000000E+000	6,1383550E-003	42	-1,7238077E-005
2	0	0	1	0	2,184331317771194E+005	2,2190559E+000	2,2197933E+000	-8,552989651894910E-003	2,000000000000000E+000	5,8918456E-003	42	-1,8985869E-005
2	0	0	1	0	2,184631103818098E+005	2,1950731E+000	2,1958199E+000	-9,514123857503831E-003	2,000000000000000E+000	5,6175874E-003	42	-2,0891302E-005
2	0	0	1	0	2,184930889865020E+005	2,1710901E+000	2,1718774E+000	-1,057701252650750E-002	2,000000000000000E+000	5,3134612E-003	41	-2,2971974E-005
2	0	0	1	0	2,185230677911900E+005	2,1471071E+000	2,1478617E+000	-1,181094944710218E-002	2,000000000000000E+000	4,9749645E-003	41	-2,5368287E-005
2	0	0	1	0	2,185530463958814E+005	2,1231241E+000	2,1238971E+000	-1,315103492883331E-002	2,000000000000000E+000	4,5980155E-003	41	-2,7931444E-005
2	0	0	1	0	2,185830251005725E+005	2,0991411E+000	2,0999467E+000	-1,462585886546713E-002	2,000000000000000E+000	4,1783471E-003	41	-3,0713523E-005
2	0	0	1	0	2,186130039052612E+005	2,0751581E+000	2,0759563E+000	-1,629010885667354E-002	2,000000000000000E+000	3,7113468E-003	41	-3,3817556E-005
2	0	0	0	0	2,186333634084463E+005	2,0588205E+000	2,0596516E+000	-1,779103618879663E-002	2,000000000000000E+000	3,3647558E-003	41	-3,6643338E-005