File: Dati/210416/CV_LTO-CB_02_CV_C05.mpt
EC-Lab ASCII FILE
Nb header lines : 57

Cyclic Voltammetry

Run on channel : 5 (SN 6809)
User : Seelab
Electrode connection : standard
Ewe ctrl range : min = 0,00 V, max = 5,00 V
Ewe,I filtering : 50 kHz
Safety Limits :
	Do not start on E overload
Channel : Grounded
Acquisition started on : 04/16/2021 18:38:45
Saved on :
	File : CV_LTO-CB_02_CV_C05.mpr
	Directory : C:\Users\labsuperfici\Desktop\Biologic\Users\Prisca Viviani\210416\
	Host : 10.78.33.0
Device : VSP-300 (SN 0638)
Address : USB
EC-Lab for windows v11.31 (software)
Internet server v11.30 (firmware)
Command interpretor v11.31 (firmware)
Electrode material :
Initial state :
Electrolyte :
Comments :
Cable : standard
Reference electrode : SCE Saturated Calomel Electrode (0,241 V)
Electrode surface area : 0,001 cm²
Characteristic mass : 0,001 g
Equivalent Weight : 0,000 g/eq.
Density : 0,000 g/cm3
Cycle Definition : Charge/Discharge alternance
Ei (V)              0,000
vs.                 Eoc
dE/dt               0,100
dE/dt unit          mV/s
E1 (V)              1,000
vs.                 Ref
Step percent        50
N                   10
E range min (V)     0,000
E range max (V)     5,000
I Range             Auto
I Range min         Unset
I Range max         Unset
I Range init        Unset
Bandwidth           8
E2 (V)              3,000
vs.                 Ref
nc cycles           1
Reverse Scan        1
Ef (V)              0,000
vs.                 Eoc

mode	ox/red	error	control changes	counter inc.	time/s	control/V	Ewe/V	<I>/mA	cycle number	(Q-Qo)/C	I Range	P/W
2	1	0	1	0	1,206049969532614E+003	2,0588205E+000	2,0593317E+000	4,070655850227922E-004	1,000000000000000E+000	0,0000000E+000	43	8,3828303E-007
2	0	0	1	0	1,441379163587699E+003	2,0352867E+000	2,0358152E+000	-1,335902609240019E-003	1,000000000000000E+000	-2,1552178E-004	42	-2,7196509E-006
2	0	0	1	0	1,681207157529134E+003	2,0113034E+000	2,0118773E+000	-2,029102894799933E-003	1,000000000000000E+000	-6,3243118E-004	42	-4,0823061E-006
2	0	0	1	0	1,921037551470508E+003	1,9873209E+000	1,9878782E+000	-2,674362637165209E-003	1,000000000000000E+000	-1,2088945E-003	42	-5,3163071E-006
2	0	0	1	0	2,160866145411928E+003	1,9633377E+000	1,9638817E+000	-3,345760492036377E-003	1,000000000000000E+000	-1,9416437E-003	42	-6,5706781E-006
2	0	0	1	0	2,400694939353358E+003	1,9393548E+000	1,9398903E+000	-4,060198492454654E-003	1,000000000000000E+000	-2,8393336E-003	42	-7,8763396E-006
2	0	0	1	0	2,640523133294773E+003	1,9153718E+000	1,9159054E+000	-4,827824455752527E-003	1,000000000000000E+000	-3,9145765E-003	42	-9,2496548E-006
2	0	0	1	0	2,880352327236178E+003	1,8913889E+000	1,8919140E+000	-5,663075811834575E-003	1,000000000000000E+000	-5,1811594E-003	42	-1,0714052E-005
2	0	0	1	0	3,120181521177583E+003	1,8674060E+000	1,8679281E+000	-6,573131607854318E-003	1,000000000000000E+000	-6,6573746E-003	42	-1,2278138E-005
2	0	0	1	0	3,360010215119000E+003	1,8434229E+000	1,8439037E+000	-7,572503551523710E-003	1,000000000000000E+000	-8,3634146E-003	42	-1,3962967E-005
2	0	0	1	0	3,599839409060405E+003	1,8194399E+000	1,8199196E+000	-8,661088782789761E-003	1,000000000000000E+000	-1,0319325E-002	42	-1,5762485E-005
2	0	0	1	0	3,839667203001845E+003	1,7954570E+000	1,7959838E+000	-9,860986720486742E-003	1,000000000000000E+000	-1,2551634E-002	41	-1,7710172E-005
2	0	0	1	0	4,079496496943248E+003	1,7714741E+000	1,7719897E+000	-1,127256880455407E-002	1,000000000000000E+000	-1,5096666E-002	41	-1,9974876E-005
2	0	0	1	0	4,319325693822480E+003	1,7474909E+000	1,7480114E+000	-1,279322883297399E-002	1,000000000000000E+000	-1,7992195E-002	41	-2,2362708E-005
2	0	0	1	0	4,559154290918836E+003	1,7235080E+000	1,7240243E+000	-1,442161936873032E-002	1,000000000000000E+000	-2,1265354E-002	41	-2,4863222E-005
2	0	0	1	0	4,798982888015176E+003	1,6995251E+000	1,7000186E+000	-1,625289906409716E-002	1,000000000000000E+000	-2,4953377E-002	41	-2,7630231E-005
2	0	0	1	0	5,038811885111529E+003	1,6755420E+000	1,6760116E+000	-1,813087485550191E-002	1,000000000000000E+000	-2,9084407E-002	41	-3,0387557E-005
2	0	0	1	0	5,278641082207869E+003	1,6515589E+000	1,6520661E+000	-2,016021334306438E-002	1,000000000000000E+000	-3,3682313E-002	41	-3,3306005E-005
2	0	0	1	0	5,518469679304217E+003	1,6275760E+000	1,6280473E+000	-2,245500735819822E-002	1,000000000000000E+000	-3,8798437E-002	41	-3,6557816E-005
2	0	0	1	0	5,758298876400557E+003	1,6035932E+000	1,6040792E+000	-2,522874212608553E-002	1,000000000000000E+000	-4,4515856E-002	41	-4,0468902E-005
2	0	0	1	0	5,998128173496894E+003	1,5796102E+000	1,5800619E+000	-2,902035043974494E-002	1,000000000000000E+000	-5,1013693E-002	41	-4,5853951E-005
2	0	0	1	0	6,237955970593262E+003	1,5556272E+000	1,5561028E+000	-3,429627716565009E-002	1,000000000000000E+000	-5,8578208E-002	41	-5,3368531E-005
2	0	0	1	0	6,477784567689603E+003	1,5316442E+000	1,5320719E+000	-4,256729272381199E-002	1,000000000000000E+000	-6,7723081E-002	41	-6,5216154E-005
2	0	0	1	0	6,717613864785948E+003	1,5076612E+000	1,5081123E+000	-5,617934905331318E-002	1,000000000000000E+000	-7,9498984E-002	41	-8,4724765E-005
2	0	0	1	0	6,957443061882281E+003	1,4836782E+000	1,4841055E+000	-6,898588828683527E-002	1,000000000000000E+000	-9,4604157E-002	41	-1,0238234E-004
2	0	0	1	0	7,197272258978628E+003	1,4596952E+000	1,4601282E+000	-7,667998918430918E-002	1,000000000000000E+000	-1,1218322E-001	41	-1,1196261E-004
2	0	0	1	0	7,437100056074989E+003	1,4357123E+000	1,4361367E+000	-8,090989979482133E-002	1,000000000000000E+000	-1,3116208E-001	41	-1,1619768E-004
2	0	0	1	0	7,676928653171337E+003	1,4117293E+000	1,4121436E+000	-8,222734207067606E-002	1,000000000000000E+000	-1,5081336E-001	41	-1,1611681E-004
2	0	0	1	0	7,916757850267677E+003	1,3877463E+000	1,3881702E+000	-8,050216311433456E-002	1,000000000000000E+000	-1,7038363E-001	41	-1,1175071E-004
2	0	0	1	0	8,156587047364024E+003	1,3637633E+000	1,3641561E+000	-7,680181195686697E-002	1,000000000000000E+000	-1,8930833E-001	41	-1,0476966E-004
2	0	0	1	0	8,396415644460387E+003	1,3397803E+000	1,3401701E+000	-7,179683190148078E-002	1,000000000000000E+000	-2,0713528E-001	41	-9,6219970E-005
2	0	0	1	0	8,636244041556703E+003	1,3157974E+000	1,3161610E+000	-6,706349025954550E-002	1,000000000000000E+000	-2,2377405E-001	41	-8,8266352E-005
2	0	0	1	0	8,876072738653049E+003	1,2918146E+000	1,2921860E+000	-6,278893557046272E-002	1,000000000000000E+000	-2,3934445E-001	41	-8,1134982E-005
2	0	0	1	0	9,115901935749396E+003	1,2678314E+000	1,2682376E+000	-5,867833014742585E-002	1,000000000000000E+000	-2,5391605E-001	41	-7,4418065E-005
2	0	0	1	0	9,355731132845773E+003	1,2438486E+000	1,2442619E+000	-5,478808418989867E-002	1,000000000000000E+000	-2,6752868E-001	41	-6,8170724E-005
2	0	0	1	0	9,595559829942096E+003	1,2198657E+000	1,2202682E+000	-5,111162745683951E-002	1,000000000000000E+000	-2,8022957E-001	41	-6,2369894E-005
2	0	0	1	0	9,835388227038435E+003	1,1958826E+000	1,1963031E+000	-4,795398692800312E-002	1,000000000000000E+000	-2,9210690E-001	41	-5,7367506E-005
2	0	0	1	0	1,007521682413481E+004	1,1718997E+000	1,1723338E+000	-4,527109426590115E-002	1,000000000000000E+000	-3,0328271E-001	41	-5,3072836E-005
2	0	0	1	0	1,031504602123116E+004	1,1479167E+000	1,1483200E+000	-4,305598440601355E-002	1,000000000000000E+000	-3,1387910E-001	41	-4,9442046E-005
2	0	0	1	0	1,055487521832751E+004	1,1239337E+000	1,1243451E+000	-4,137299094120428E-002	1,000000000000000E+000	-3,2400760E-001	41	-4,6517518E-005
2	0	0	1	0	1,079470381542383E+004	1,0999508E+000	1,1003737E+000	-3,992656297996083E-002	1,000000000000000E+000	-3,3376244E-001	41	-4,3934142E-005
2	0	0	1	0	1,103453221252017E+004	1,0759678E+000	1,0764014E+000	-3,859549631855275E-002	1,000000000000000E+000	-3,4318578E-001	41	-4,1544245E-005
2	0	0	1	0	1,127436080961651E+004	1,0519848E+000	1,0524060E+000	-3,738416379845112E-002	1,000000000000000E+000	-3,5230312E-001	41	-3,9343318E-005
2	0	0	1	0	1,151419000671289E+004	1,0280017E+000	1,0284517E+000	-3,639874325706716E-002	1,000000000000000E+000	-3,6115617E-001	41	-3,7434347E-005
2	0	0	1	0	1,175401930380923E+004	1,0040188E+000	1,0044475E+000	-3,551874309079207E-002	1,000000000000000E+000	-3,6979085E-001	41	-3,5676712E-005
2	0	0	1	0	1,197985980107490E+004	1,0185086E+000	1,0189480E+000	-2,716291373050528E-002	1,000000000000000E+000	-3,7687260E-001	41	-2,7677595E-005
2	0	0	1	0	1,221969019817123E+004	1,0424916E+000	1,0429178E+000	-2,161140866525207E-002	1,000000000000000E+000	-3,8266146E-001	41	-2,2538923E-005
2	0	0	1	0	1,245951999526762E+004	1,0664744E+000	1,0669125E+000	-1,778072256599900E-002	1,000000000000000E+000	-3,8735339E-001	41	-1,8970475E-005
2	0	0	1	0	1,269935039236391E+004	1,0904574E+000	1,0908862E+000	-1,492638060769699E-002	1,000000000000000E+000	-3,9125261E-001	41	-1,6282984E-005
2	0	0	1	0	1,293918018946025E+004	1,1144403E+000	1,1148684E+000	-1,263152917032817E-002	1,000000000000000E+000	-3,9454049E-001	41	-1,4082493E-005
2	0	0	1	0	1,317901078655656E+004	1,1384234E+000	1,1388611E+000	-1,074713669465811E-002	1,000000000000000E+000	-3,9733037E-001	41	-1,2239496E-005
2	0	0	1	0	1,341884138365291E+004	1,1624062E+000	1,1628567E+000	-9,192360240574543E-003	1,000000000000000E+000	-3,9970413E-001	41	-1,0689398E-005
2	0	0	1	0	1,365867118074922E+004	1,1863893E+000	1,1868304E+000	-7,807907800128661E-003	1,000000000000000E+000	-4,0173048E-001	41	-9,2666623E-006
2	0	0	1	0	1,389850157784557E+004	1,2103723E+000	1,2108198E+000	-6,554188678664015E-003	1,000000000000000E+000	-4,0343946E-001	41	-7,9359415E-006
2	0	0	1	0	1,413833137494186E+004	1,2343552E+000	1,2348213E+000	-5,453729540942576E-003	1,000000000000000E+000	-4,0486631E-001	41	-6,7343817E-006
2	0	0	1	0	1,437816187203822E+004	1,2583382E+000	1,2587889E+000	-4,488810391165568E-003	1,000000000000000E+000	-4,0604720E-001	42	-5,6504650E-006
2	0	0	1	0	1,461799256913451E+004	1,2823212E+000	1,2827693E+000	-3,607583530093592E-003	1,000000000000000E+000	-4,0700731E-001	42	-4,6276973E-006
2	0	0	1	0	1,485782246623085E+004	1,3063042E+000	1,3067590E+000	-2,820061481750270E-003	1,000000000000000E+000	-4,0776736E-001	42	-3,6851407E-006
2	0	0	1	0	1,509765286332718E+004	1,3302872E+000	1,3307620E+000	-2,096135464169042E-003	1,000000000000000E+000	-4,0834647E-001	42	-2,7894575E-006
2	0	0	1	0	1,533748266042356E+004	1,3542702E+000	1,3547446E+000	-1,418165698005729E-003	1,000000000000000E+000	-4,0875754E-001	42	-1,9212523E-006
2	0	0	1	0	1,557731305751987E+004	1,3782531E+000	1,3787335E+000	-7,162263043371860E-004	1,000000000000000E+000	-4,0900517E-001	42	-9,8748524E-007
2	1	0	1	0	1,581714385461615E+004	1,4022361E+000	1,4027035E+000	9,732191458972241E-005	1,000000000000000E+000	-4,0907326E-001	43	1,3651379E-007
2	1	0	1	0	1,605697365171250E+004	1,4262191E+000	1,4266795E+000	1,078678542804861E-003	1,000000000000000E+000	-4,0892616E-001	42	1,5389286E-006
2	1	0	1	0	1,629680414880888E+004	1,4502020E+000	1,4507003E+000	2,254215731626163E-003	1,000000000000000E+000	-4,0852162E-001	42	3,2701914E-006
2	1	0	1	0	1,653663394590520E+004	1,4741850E+000	1,4746920E+000	3,585943922622743E-003	1,000000000000000E+000	-4,0781549E-001	42	5,2881628E-006
2	1	0	1	0	1,677646434300154E+004	1,4981681E+000	1,4986818E+000	5,104285835846920E-003	1,000000000000000E+000	-4,0676549E-001	42	7,6496999E-006
2	1	0	1	0	1,701629514009782E+004	1,5221510E+000	1,5226367E+000	6,799396727375936E-003	1,000000000000000E+000	-4,0533242E-001	42	1,0353011E-005
2	1	0	1	0	1,725612493719414E+004	1,5461340E+000	1,5466491E+000	8,857244513109631E-003	1,000000000000000E+000	-4,0345725E-001	42	1,3699049E-005
2	1	0	1	0	1,749595533429051E+004	1,5701169E+000	1,5706202E+000	1,166886105094220E-002	1,000000000000000E+000	-4,0101036E-001	41	1,8327348E-005
2	1	0	1	0	1,773578513138682E+004	1,5940999E+000	1,5946075E+000	1,942815941800491E-002	1,000000000000000E+000	-3,9745525E-001	41	3,0980289E-005
2	1	0	1	0	1,797561552848315E+004	1,6180829E+000	1,6185864E+000	3,328305170050599E-002	1,000000000000000E+000	-3,9116892E-001	41	5,3871496E-005
2	1	0	1	0	1,821544632557948E+004	1,6420659E+000	1,6425633E+000	4,757462847473162E-002	1,000000000000000E+000	-3,8144296E-001	41	7,8144338E-005
2	1	0	1	0	1,845527612267586E+004	1,6660488E+000	1,6665534E+000	6,030193943129203E-002	1,000000000000000E+000	-3,6844996E-001	41	1,0049640E-004
2	1	0	1	0	1,869510711977209E+004	1,6900316E+000	1,6905518E+000	7,077358069997375E-002	1,000000000000000E+000	-3,5266972E-001	41	1,1964640E-004
2	1	0	1	0	1,893493691686849E+004	1,7140148E+000	1,7145251E+000	7,875797089280823E-002	1,000000000000000E+000	-3,3468342E-001	41	1,3503252E-004
2	1	0	1	0	1,917476731396481E+004	1,7379977E+000	1,7384819E+000	8,422963048964038E-002	1,000000000000000E+000	-3,1508034E-001	41	1,4643169E-004
2	1	0	1	0	1,941459751106109E+004	1,7619805E+000	1,7625157E+000	8,707400324645687E-002	1,000000000000000E+000	-2,9446581E-001	41	1,5346930E-004
2	1	0	1	0	1,965442790815744E+004	1,7859637E+000	1,7864474E+000	8,665263234448095E-002	1,000000000000000E+000	-2,7356032E-001	41	1,5480036E-004
2	1	0	1	0	1,989425830525381E+004	1,8099465E+000	1,8104893E+000	8,314093285605412E-002	1,000000000000000E+000	-2,5312707E-001	41	1,5052577E-004
2	1	0	1	0	2,013408810235013E+004	1,8339295E+000	1,8344382E+000	7,716577690662563E-002	1,000000000000000E+000	-2,3386158E-001	41	1,4155585E-004
2	1	0	1	0	2,037391789944642E+004	1,8579125E+000	1,8584430E+000	6,973669222434964E-002	1,000000000000000E+000	-2,1621647E-001	41	1,2960167E-004
2	1	0	1	0	2,061374869654281E+004	1,8818954E+000	1,8824110E+000	6,168362090955179E-002	1,000000000000000E+000	-2,0044392E-001	41	1,1611393E-004
2	1	0	1	0	2,085357909363916E+004	1,9058785E+000	1,9063929E+000	5,367101743451157E-002	1,000000000000000E+000	-1,8661083E-001	41	1,0231804E-004
2	1	0	1	0	2,109340899073542E+004	1,9298615E+000	1,9303606E+000	4,621270241275943E-002	1,000000000000000E+000	-1,7463964E-001	41	8,9207177E-005
2	1	0	1	0	2,133323938783177E+004	1,9538443E+000	1,9543142E+000	3,958924908476547E-002	1,000000000000000E+000	-1,6436103E-001	41	7,7369834E-005
2	1	0	1	0	2,157306918492808E+004	1,9778273E+000	1,9783586E+000	3,392108973409252E-002	1,000000000000000E+000	-1,5555687E-001	41	6,7108078E-005
2	1	0	1	0	2,181289998202439E+004	2,0018101E+000	2,0022819E+000	2,918043608067905E-002	1,000000000000000E+000	-1,4799945E-001	41	5,8427460E-005
2	1	0	1	0	2,205273037912072E+004	2,0257931E+000	2,0262954E+000	2,531837845332130E-002	1,000000000000000E+000	-1,4147078E-001	41	5,1302515E-005
2	1	0	1	0	2,229256077621705E+004	2,0497761E+000	2,0502772E+000	2,221948531993495E-002	1,000000000000000E+000	-1,3577498E-001	41	4,5556106E-005
2	1	0	1	0	2,253239117331337E+004	2,0737591E+000	2,0742354E+000	1,972797911274868E-002	1,000000000000000E+000	-1,3074741E-001	41	4,0920473E-005
2	1	0	1	0	2,277222167040978E+004	2,0977418E+000	2,0982234E+000	1,771382769754934E-002	1,000000000000000E+000	-1,2625696E-001	41	3,7167567E-005
2	1	0	1	0	2,301205246750600E+004	2,1217253E+000	2,1222131E+000	1,609189075124347E-002	1,000000000000000E+000	-1,2220147E-001	41	3,4150420E-005
2	1	0	1	0	2,325188286460235E+004	2,1457081E+000	2,1461771E+000	1,472338446156063E-002	1,000000000000000E+000	-1,1850367E-001	41	3,1598989E-005
2	1	0	1	0	2,349171326169869E+004	2,1696913E+000	2,1701539E+000	1,356359002869197E-002	1,000000000000000E+000	-1,1510734E-001	41	2,9435078E-005
2	1	0	1	0	2,373154245879501E+004	2,1936741E+000	2,1941288E+000	1,256093253207535E-002	1,000000000000000E+000	-1,1196851E-001	41	2,7560303E-005
2	1	0	1	0	2,397137285589134E+004	2,2176571E+000	2,2184570E+000	1,169975758455353E-002	1,000000000000000E+000	-1,0905302E-001	41	2,5955409E-005
2	1	0	1	0	2,421120245298772E+004	2,2416401E+000	2,2424550E+000	1,093472672230081E-002	1,000000000000000E+000	-1,0633236E-001	41	2,4520632E-005
2	1	0	1	0	2,445103285008401E+004	2,2656229E+000	2,2664437E+000	1,022938392658371E-002	1,000000000000000E+000	-1,0378746E-001	41	2,3184322E-005
2	1	0	1	0	2,469086324718034E+004	2,2896059E+000	2,2903891E+000	9,604451578038603E-003	1,000000000000000E+000	-1,0140128E-001	41	2,1997930E-005
2	1	0	1	0	2,493069364427667E+004	2,3135889E+000	2,3143921E+000	9,035573249863663E-003	1,000000000000000E+000	-9,9158257E-002	41	2,0911859E-005
2	1	0	1	0	2,517052404137305E+004	2,3375716E+000	2,3383675E+000	8,517270039870829E-003	1,000000000000000E+000	-9,7045727E-002	41	1,9916508E-005
2	1	0	1	0	2,541035483846936E+004	2,3615549E+000	2,3623621E+000	8,053930573925949E-003	1,000000000000000E+000	-9,5051244E-002	41	1,9026300E-005
2	1	0	1	0	2,565018523556562E+004	2,3855376E+000	2,3863294E+000	7,626940539270134E-003	1,000000000000000E+000	-9,3163401E-002	41	1,8200393E-005
2	1	0	1	0	2,589001563266196E+004	2,4095209E+000	2,4103341E+000	7,244500970486817E-003	1,000000000000000E+000	-9,1372304E-002	41	1,7461667E-005
2	1	0	1	0	2,612984602975831E+004	2,4335036E+000	2,4342849E+000	6,904565002639945E-003	1,000000000000000E+000	-8,9668855E-002	41	1,6807679E-005
2	1	0	1	0	2,636967522685463E+004	2,4574869E+000	2,4582775E+000	6,605581949883879E-003	1,000000000000000E+000	-8,8041857E-002	41	1,6238353E-005
2	1	0	1	0	2,660950602395096E+004	2,4814699E+000	2,4822483E+000	6,367957664754877E-003	1,000000000000000E+000	-8,6479127E-002	41	1,5806852E-005
2	1	0	1	0	2,684933522104734E+004	2,5054524E+000	2,5062323E+000	6,161265820931502E-003	1,000000000000000E+000	-8,4966250E-002	41	1,5441563E-005
2	1	0	1	0	2,708916561814363E+004	2,5294356E+000	2,5302453E+000	5,917694818596872E-003	1,000000000000000E+000	-8,3510153E-002	41	1,4973220E-005
2	1	0	1	0	2,732899611523995E+004	2,5534184E+000	2,5542197E+000	5,726314719291976E-003	1,000000000000000E+000	-8,2105905E-002	41	1,4626266E-005
2	1	0	1	0	2,756882651233629E+004	2,5774016E+000	2,5782027E+000	5,562115849071278E-003	1,000000000000000E+000	-8,0743983E-002	41	1,4340262E-005
2	1	0	1	0	2,780865730943263E+004	2,6013846E+000	2,6021593E+000	5,421832758636239E-003	1,000000000000000E+000	-7,9419054E-002	41	1,4108472E-005
2	1	0	1	0	2,804848770652898E+004	2,6253674E+000	2,6261797E+000	5,305210988562209E-003	1,000000000000000E+000	-7,8125045E-002	41	1,3932437E-005
2	1	0	1	0	2,828831810362526E+004	2,6493506E+000	2,6501315E+000	5,217438407060626E-003	1,000000000000000E+000	-7,6856062E-002	41	1,3826898E-005
2	1	0	1	0	2,852814850072160E+004	2,6733336E+000	2,6740990E+000	5,151552703546919E-003	1,000000000000000E+000	-7,5606100E-002	41	1,3775762E-005
2	1	0	1	0	2,876797769781796E+004	2,6973166E+000	2,6981082E+000	5,143734720929112E-003	1,000000000000000E+000	-7,4365400E-002	41	1,3878353E-005
2	1	0	1	0	2,900780849491425E+004	2,7212994E+000	2,7220984E+000	5,136530305151300E-003	1,000000000000000E+000	-7,3123015E-002	41	1,3982140E-005
2	1	0	1	0	2,924763779201062E+004	2,7452822E+000	2,7460632E+000	5,046710325806988E-003	1,000000000000000E+000	-7,1892962E-002	41	1,3858586E-005
2	1	0	1	0	2,948746818910696E+004	2,7692654E+000	2,7700477E+000	4,992937652115332E-003	1,000000000000000E+000	-7,0682056E-002	41	1,3830675E-005
2	1	0	1	0	2,972729858620324E+004	2,7932482E+000	2,7940383E+000	4,986929324938910E-003	1,000000000000000E+000	-6,9478162E-002	41	1,3933672E-005
2	1	0	1	0	2,996712898329957E+004	2,8172312E+000	2,8180206E+000	5,027960659011024E-003	1,000000000000000E+000	-6,8270355E-002	41	1,4168897E-005
2	1	0	1	0	3,020695978039596E+004	2,8412142E+000	2,8420258E+000	5,131283294187820E-003	1,000000000000000E+000	-6,7046970E-002	41	1,4583239E-005
2	1	0	1	0	3,044679017749225E+004	2,8651974E+000	2,8659861E+000	5,360697076382356E-003	1,000000000000000E+000	-6,5785371E-002	41	1,5363683E-005
2	1	0	1	0	3,068662057458860E+004	2,8891802E+000	2,8899605E+000	5,710465442961658E-003	1,000000000000000E+000	-6,4449355E-002	41	1,6503020E-005
2	1	0	1	0	3,092645097168487E+004	2,9131629E+000	2,9139156E+000	5,954522782150001E-003	1,000000000000000E+000	-6,3039578E-002	41	1,7350976E-005
2	1	0	1	0	3,116628016878129E+004	2,9371464E+000	2,9379468E+000	6,070609486723194E-003	1,000000000000000E+000	-6,1587144E-002	41	1,7835127E-005
2	1	0	1	0	3,140611096587754E+004	2,9611292E+000	2,9619069E+000	6,133130957860736E-003	1,000000000000000E+000	-6,0114942E-002	41	1,8165763E-005
2	1	0	1	0	3,164594016297394E+004	2,9851120E+000	2,9858932E+000	6,199572864589720E-003	1,000000000000000E+000	-5,8628839E-002	41	1,8511262E-005
2	1	0	1	1	3,186978016026388E+004	2,9924068E+000	2,9931862E+000	5,032780674852286E-003	1,000000000000000E+000	-5,7294253E-002	41	1,5064050E-005
2	1	0	1	1	3,210960815736023E+004	2,9684238E+000	2,9692121E+000	3,844104929006981E-003	1,000000000000000E+000	-5,6257408E-002	42	1,1413963E-005
2	1	0	1	1	3,234943625445652E+004	2,9444411E+000	2,9452243E+000	3,198249478144873E-003	1,000000000000000E+000	-5,5427242E-002	42	9,4195620E-006
2	1	0	1	1	3,258926425155287E+004	2,9204581E+000	2,9212475E+000	2,749858947150484E-003	1,000000000000000E+000	-5,4724962E-002	42	8,0330183E-006
2	1	0	1	1	3,282909034950275E+004	2,8964751E+000	2,8972676E+000	2,435613712696478E-003	1,000000000000000E+000	-5,4113850E-002	42	7,0566248E-006
2	1	0	1	1	3,306891714994959E+004	2,8724923E+000	2,8732774E+000	2,201389545738794E-003	1,000000000000000E+000	-5,3567130E-002	42	6,3252028E-006
2	1	0	1	1	3,330874515039631E+004	2,8485093E+000	2,8492694E+000	2,030479761566336E-003	1,000000000000000E+000	-5,3067867E-002	42	5,7853840E-006
2	1	0	1	1	3,354857195084286E+004	2,8245261E+000	2,8252954E+000	1,879251539803589E-003	1,000000000000000E+000	-5,2607108E-002	42	5,3094409E-006
2	1	0	1	1	3,378839995128964E+004	2,8005433E+000	2,8013480E+000	1,736099015248846E-003	1,000000000000000E+000	-5,2181426E-002	42	4,8634174E-006
2	1	0	1	1	3,402822605173639E+004	2,7765601E+000	2,7773552E+000	1,601592860173795E-003	1,000000000000000E+000	-5,1788479E-002	42	4,4481922E-006
2	1	0	1	1	3,426805405218306E+004	2,7525773E+000	2,7533662E+000	1,485555171498636E-003	1,000000000000000E+000	-5,1425952E-002	42	4,0902773E-006
2	1	0	1	1	3,450788215262973E+004	2,7285943E+000	2,7294092E+000	1,361118972915476E-003	1,000000000000000E+000	-5,1092438E-002	42	3,7150508E-006
2	1	0	1	1	3,474771015307651E+004	2,7046113E+000	2,7054017E+000	1,236837832279807E-003	1,000000000000000E+000	-5,0788358E-002	42	3,3461431E-006
2	1	0	1	1	3,498753815352317E+004	2,6806281E+000	2,6814003E+000	1,110520182598065E-003	1,000000000000000E+000	-5,0513979E-002	42	2,9777491E-006
2	1	0	1	1	3,522736415396992E+004	2,6566453E+000	2,6574323E+000	1,004366042451316E-003	1,000000000000000E+000	-5,0269421E-002	42	2,6690348E-006
2	1	0	1	1	3,546719095441670E+004	2,6326623E+000	2,6334660E+000	9,029730446865067E-004	1,000000000000000E+000	-5,0048754E-002	42	2,3779487E-006
2	1	0	1	1	3,570701895486331E+004	2,6086795E+000	2,6094508E+000	8,134503277861813E-004	1,000000000000000E+000	-4,9850889E-002	42	2,1226585E-006
2	1	0	1	1	3,594684585531009E+004	2,5846965E+000	2,5854638E+000	7,041715505828852E-004	1,000000000000000E+000	-4,9677093E-002	42	1,8206100E-006
2	1	0	1	1	3,618667385575676E+004	2,5607135E+000	2,5614817E+000	6,028365980339056E-004	1,000000000000000E+000	-4,9527898E-002	42	1,5441549E-006
2	1	0	1	1	3,642649995620355E+004	2,5367305E+000	2,5375588E+000	4,872747991725105E-004	1,000000000000000E+000	-4,9405374E-002	43	1,2364884E-006
2	1	0	1	1	3,666632795665022E+004	2,5127473E+000	2,5135260E+000	3,724886911293915E-004	1,000000000000000E+000	-4,9310483E-002	43	9,3625999E-007
2	1	0	1	1	3,690615595709687E+004	2,4887645E+000	2,4895623E+000	2,654419526880434E-004	1,000000000000000E+000	-4,9242683E-002	43	6,6083425E-007
2	1	0	1	1	3,714598395754368E+004	2,4647815E+000	2,4655914E+000	1,551613374202333E-004	1,000000000000000E+000	-4,9200255E-002	43	3,8256445E-007
2	1	0	1	1	3,738581195799034E+004	2,4407985E+000	2,4416080E+000	4,664503566147204E-005	1,000000000000000E+000	-4,9184993E-002	44	1,1388889E-007
2	0	0	1	1	3,762563795843709E+004	2,4168153E+000	2,4176240E+000	-8,213788652475847E-005	1,000000000000000E+000	-4,9197402E-002	43	-1,9857852E-007
2	0	0	1	1	3,786546485888370E+004	2,3928323E+000	2,3936253E+000	-1,991058517501130E-004	1,000000000000000E+000	-4,9238551E-002	43	-4,7658480E-007
2	0	0	1	1	3,810529285933048E+004	2,3688495E+000	2,3696589E+000	-3,253727874663374E-004	1,000000000000000E+000	-4,9309004E-002	43	-7,7102254E-007
2	0	0	1	1	3,834511975977721E+004	2,3448670E+000	2,3456521E+000	-4,491893220690954E-004	1,000000000000000E+000	-4,9409669E-002	43	-1,0536419E-006
2	0	0	1	1	3,858494776022399E+004	2,3208838E+000	2,3216741E+000	-5,660565001369480E-004	1,000000000000000E+000	-4,9539577E-002	43	-1,3141987E-006
2	0	0	1	1	3,882477376067059E+004	2,2969007E+000	2,2976975E+000	-6,889340948948511E-004	1,000000000000000E+000	-4,9698934E-002	43	-1,5829622E-006
2	0	0	1	1	3,906460176111737E+004	2,2729177E+000	2,2737031E+000	-8,184821518132050E-004	1,000000000000000E+000	-4,9888439E-002	42	-1,8609854E-006
2	0	0	1	1	3,930442976156404E+004	2,2489350E+000	2,2496762E+000	-9,629463959118650E-004	1,000000000000000E+000	-5,0109230E-002	42	-2,1663177E-006
2	0	0	1	1	3,954425786201078E+004	2,2249517E+000	2,2257633E+000	-1,088233046957029E-003	1,000000000000000E+000	-5,0362121E-002	42	-2,4221492E-006
2	0	0	1	1	3,978408586245750E+004	2,2009687E+000	2,2018101E+000	-1,249435429135644E-003	1,000000000000000E+000	-5,0649680E-002	42	-2,7510196E-006
2	0	0	1	1	4,002391196290427E+004	2,1769857E+000	2,1778302E+000	-1,441033972428826E-003	1,000000000000000E+000	-5,0979298E-002	42	-3,1383274E-006
2	0	0	1	1	4,026373996335082E+004	2,1530027E+000	2,1538584E+000	-1,660184457239251E-003	1,000000000000000E+000	-5,1358864E-002	42	-3,5758023E-006
2	0	0	1	1	4,050356676379777E+004	2,1290202E+000	2,1298845E+000	-1,904399650893666E-003	1,000000000000000E+000	-5,1793549E-002	42	-4,0561513E-006
2	0	0	1	1	4,074339476424432E+004	2,1050370E+000	2,1058908E+000	-2,163378002886431E-003	1,000000000000000E+000	-5,2288122E-002	42	-4,5558377E-006
2	0	0	1	1	4,098322276469099E+004	2,0810540E+000	2,0819063E+000	-2,434361912752273E-003	1,000000000000000E+000	-5,2846938E-002	42	-5,0681133E-006
2	0	0	1	1	4,121205656511732E+004	2,0581698E+000	2,0590069E+000	-2,740361642365179E-003	2,000000000000000E+000	-5,3446315E-002	42	-5,6424237E-006
2	0	0	1	1	4,145188456556387E+004	2,0341873E+000	2,0350091E+000	-3,100629612026607E-003	2,000000000000000E+000	-5,4153532E-002	42	-6,3098096E-006
2	0	0	1	1	4,169171256601065E+004	2,0102038E+000	2,0110180E+000	-3,492912019349667E-003	2,000000000000000E+000	-5,4950118E-002	42	-7,0243091E-006
2	0	0	1	1	4,193154116645746E+004	1,9862216E+000	1,9870397E+000	-3,939772070082628E-003	2,000000000000000E+000	-5,5847529E-002	42	-7,8284838E-006
2	0	0	1	1	4,217137036690413E+004	1,9622386E+000	1,9630511E+000	-4,447807596266794E-003	2,000000000000000E+000	-5,6858890E-002	42	-8,7312737E-006
2	0	0	1	1	4,241119826735085E+004	1,9382555E+000	1,9390714E+000	-5,034397807746898E-003	2,000000000000000E+000	-5,8002148E-002	42	-9,7620568E-006
2	0	0	1	1	4,265102746779760E+004	1,9142725E+000	1,9150952E+000	-5,686708811165175E-003	2,000000000000000E+000	-5,9294127E-002	42	-1,0890589E-005
2	0	0	1	1	4,289085666824423E+004	1,8902895E+000	1,8910950E+000	-6,416390722040595E-003	2,000000000000000E+000	-6,0752057E-002	42	-1,2134004E-005
2	0	0	1	1	4,313068536869111E+004	1,8663065E+000	1,8671319E+000	-7,211007414746479E-003	2,000000000000000E+000	-6,2394489E-002	42	-1,3463902E-005
2	0	0	1	1	4,337051456913783E+004	1,8423235E+000	1,8431214E+000	-8,085941119474874E-003	2,000000000000000E+000	-6,4235866E-002	42	-1,4903371E-005
2	0	0	1	1	4,361034236958448E+004	1,8183408E+000	1,8191789E+000	-9,054187503932359E-003	2,000000000000000E+000	-6,6296905E-002	42	-1,6471187E-005
2	0	0	1	1	4,385017157003112E+004	1,7943577E+000	1,7951715E+000	-1,012888075025600E-002	2,000000000000000E+000	-6,8604559E-002	41	-1,8183078E-005
2	0	0	1	1	4,409000077047793E+004	1,7703745E+000	1,7712128E+000	-1,137017964508288E-002	2,000000000000000E+000	-7,1189314E-002	41	-2,0139008E-005
2	0	0	1	1	4,432982937092450E+004	1,7463917E+000	1,7472104E+000	-1,274142311676686E-002	2,000000000000000E+000	-7,4087396E-002	41	-2,2261947E-005
2	0	0	1	1	4,456965857137134E+004	1,7224088E+000	1,7232324E+000	-1,421707628136595E-002	2,000000000000000E+000	-7,7325873E-002	41	-2,4499326E-005
2	0	0	1	1	4,480948637181800E+004	1,6984259E+000	1,6992491E+000	-1,580383030254728E-002	2,000000000000000E+000	-8,0931172E-002	41	-2,6854645E-005
2	0	0	1	1	4,504931617226478E+004	1,6744428E+000	1,6752561E+000	-1,753981549087824E-002	2,000000000000000E+000	-8,4935933E-002	41	-2,9383684E-005
2	0	0	1	1	4,528914487271148E+004	1,6504598E+000	1,6512744E+000	-1,947513483427732E-002	2,000000000000000E+000	-8,9378864E-002	41	-3,2158794E-005
2	0	0	1	1	4,552897407315811E+004	1,6264768E+000	1,6272916E+000	-2,167063244098183E-002	2,000000000000000E+000	-9,4315015E-002	41	-3,5264438E-005
2	0	0	1	1	4,576880327360483E+004	1,6024940E+000	1,6033107E+000	-2,432970560233796E-002	2,000000000000000E+000	-9,9826470E-002	41	-3,9008079E-005
2	0	0	1	1	4,600863157405169E+004	1,5785110E+000	1,5792993E+000	-2,773732141271899E-002	2,000000000000000E+000	-1,0606295E-001	41	-4,3805532E-005
2	0	0	1	1	4,624846037449833E+004	1,5545279E+000	1,5553043E+000	-3,220418374234557E-002	2,000000000000000E+000	-1,1323746E-001	41	-5,0087307E-005
2	0	0	1	1	4,648828897494500E+004	1,5305450E+000	1,5313414E+000	-3,825896465141132E-002	2,000000000000000E+000	-1,2165570E-001	41	-5,8587539E-005
2	0	0	1	1	4,672811817539181E+004	1,5065620E+000	1,5073645E+000	-4,677056731391294E-002	2,000000000000000E+000	-1,3180861E-001	41	-7,0500297E-005
2	0	0	1	1	4,696794737583853E+004	1,4825790E+000	1,4833800E+000	-5,701384743009225E-002	2,000000000000000E+000	-1,4425607E-001	41	-8,4573199E-005
2	0	0	1	1	4,720777557628520E+004	1,4585961E+000	1,4594026E+000	-6,611531953903194E-002	2,000000000000000E+000	-1,5908077E-001	41	-9,6488868E-005
2	0	0	1	1	4,744760437673191E+004	1,4346130E+000	1,4354081E+000	-7,266758191482436E-002	2,000000000000000E+000	-1,7578650E-001	41	-1,0430763E-004
2	0	0	1	1	4,768743297717866E+004	1,4106302E+000	1,4113985E+000	-7,655890375492014E-002	2,000000000000000E+000	-1,9373843E-001	41	-1,0805512E-004
2	0	0	1	1	4,792726217762535E+004	1,3866471E+000	1,3874342E+000	-7,787386995361772E-002	2,000000000000000E+000	-2,1231684E-001	41	-1,0804487E-004
2	0	0	1	1	4,816709147807211E+004	1,3626642E+000	1,3634328E+000	-7,738545502801567E-002	2,000000000000000E+000	-2,3098059E-001	41	-1,0550986E-004
2	0	0	1	1	4,840691967851878E+004	1,3386812E+000	1,3394369E+000	-7,529987898568624E-002	2,000000000000000E+000	-2,4933761E-001	41	-1,0085943E-004
2	0	0	1	1	4,864674847896560E+004	1,3146982E+000	1,3154894E+000	-7,244000800380235E-002	2,000000000000000E+000	-2,6707777E-001	41	-9,5294061E-005
2	0	0	1	1	4,888657717941218E+004	1,2907153E+000	1,2915015E+000	-6,879264544652441E-002	2,000000000000000E+000	-2,8402978E-001	41	-8,8845809E-005
2	0	0	1	1	4,912640637985888E+004	1,2667323E+000	1,2675234E+000	-6,476641197939093E-002	2,000000000000000E+000	-3,0006006E-001	41	-8,2092942E-005
2	0	0	1	1	4,936623558030569E+004	1,2427493E+000	1,2435439E+000	-6,059061711109742E-002	2,000000000000000E+000	-3,1509134E-001	41	-7,5347089E-005
2	0	0	1	1	4,960606378075248E+004	1,2187663E+000	1,2195401E+000	-5,679864716674010E-002	2,000000000000000E+000	-3,2917291E-001	41	-6,9268230E-005
2	0	0	1	1	4,984589258119918E+004	1,1947833E+000	1,1955938E+000	-5,351024933787923E-002	2,000000000000000E+000	-3,4239507E-001	41	-6,3976528E-005
2	0	0	1	1	5,008572118164576E+004	1,1708003E+000	1,1716106E+000	-5,079595772727671E-002	2,000000000000000E+000	-3,5490265E-001	41	-5,9513080E-005
2	0	0	1	1	5,032555038209254E+004	1,1468173E+000	1,1476209E+000	-4,864505081858661E-002	2,000000000000000E+000	-3,6682105E-001	41	-5,5826076E-005
2	0	0	1	1	5,056537958253920E+004	1,1228344E+000	1,1236417E+000	-4,715533283676776E-002	2,000000000000000E+000	-3,7830827E-001	41	-5,2985699E-005
2	0	0	1	1	5,080520788298594E+004	1,0988516E+000	1,0996773E+000	-4,629120589332619E-002	2,000000000000000E+000	-3,8950768E-001	41	-5,0905390E-005
2	0	0	1	1	5,104503668343276E+004	1,0748684E+000	1,0756807E+000	-4,618755437351502E-002	2,000000000000000E+000	-4,0059027E-001	41	-4,9683062E-005
2	0	0	1	1	5,128486528387934E+004	1,0508856E+000	1,0517188E+000	-4,651263274764272E-002	2,000000000000000E+000	-4,1170651E-001	41	-4,8918213E-005
2	0	0	1	1	5,152469458432606E+004	1,0269026E+000	1,0276906E+000	-4,686358136199037E-002	2,000000000000000E+000	-4,2291689E-001	41	-4,8161266E-005
2	0	0	1	1	5,176452378477281E+004	1,0029196E+000	1,0037096E+000	-4,669970481823360E-002	2,000000000000000E+000	-4,3415338E-001	41	-4,6872941E-005
2	0	0	1	1	5,198936458519171E+004	1,0195078E+000	1,0203103E+000	-3,668485253093998E-002	2,000000000000000E+000	-4,4348547E-001	41	-3,7429931E-005
2	0	0	1	1	5,222919498563829E+004	1,0434908E+000	1,0442861E+000	-2,982420324108043E-002	2,000000000000000E+000	-4,5140848E-001	41	-3,1145002E-005
2	0	0	1	1	5,246902478608501E+004	1,0674738E+000	1,0682726E+000	-2,467688849128247E-002	2,000000000000000E+000	-4,5790464E-001	41	-2,6361644E-005
2	0	0	1	1	5,270885518653170E+004	1,0914568E+000	1,0922668E+000	-2,068351170327928E-002	2,000000000000000E+000	-4,6331736E-001	41	-2,2591914E-005
2	0	0	1	1	5,294868558697845E+004	1,1154398E+000	1,1162587E+000	-1,743147262826689E-002	2,000000000000000E+000	-4,6786594E-001	41	-1,9458033E-005
2	0	0	1	1	5,318851578742522E+004	1,1394227E+000	1,1402276E+000	-1,465700701333469E-002	2,000000000000000E+000	-4,7169694E-001	41	-1,6712323E-005
2	0	0	1	1	5,342834618787200E+004	1,1634057E+000	1,1642023E+000	-1,230076437548715E-002	2,000000000000000E+000	-4,7491354E-001	41	-1,4320579E-005
2	0	0	1	1	5,366817598831866E+004	1,1873887E+000	1,1881762E+000	-1,024147709700191E-002	2,000000000000000E+000	-4,7760203E-001	41	-1,2168679E-005
2	0	0	1	1	5,390800638876541E+004	1,2113717E+000	1,2121578E+000	-8,435291821056956E-003	2,000000000000000E+000	-4,7982696E-001	41	-1,0224905E-005
2	0	0	1	1	5,414783678921207E+004	1,2353545E+000	1,2361271E+000	-6,853780993932510E-003	2,000000000000000E+000	-4,8164791E-001	41	-8,4721451E-006
2	0	0	1	1	5,438766698965884E+004	1,2593374E+000	1,2601334E+000	-5,450979827005379E-003	2,000000000000000E+000	-4,8311108E-001	41	-6,8689615E-006
2	0	0	1	1	5,462749739010562E+004	1,2833204E+000	1,2841083E+000	-4,201673536635614E-003	2,000000000000000E+000	-4,8425838E-001	42	-5,3954036E-006
2	0	0	1	1	5,486732719055220E+004	1,3073034E+000	1,3081123E+000	-3,082300973679319E-003	2,000000000000000E+000	-4,8512122E-001	42	-4,0319956E-006
2	0	0	1	1	5,510715759099892E+004	1,3312865E+000	1,3321011E+000	-2,072481028436112E-003	2,000000000000000E+000	-4,8572913E-001	42	-2,7607543E-006
2	0	0	1	1	5,534698799144561E+004	1,3552694E+000	1,3560524E+000	-1,149356460342791E-003	2,000000000000000E+000	-4,8610494E-001	42	-1,5585875E-006
2	0	0	1	1	5,558681819189247E+004	1,3792524E+000	1,3800532E+000	-1,977657634942944E-004	2,000000000000000E+000	-4,8625806E-001	43	-2,7292728E-007
2	1	0	1	1	5,582764759234100E+004	1,4033352E+000	1,4041654E+000	8,656058797941865E-004	2,000000000000000E+000	-4,8617187E-001	42	1,2154538E-006
2	1	0	1	1	5,606747799278772E+004	1,4273182E+000	1,4281136E+000	2,074904663083500E-003	2,000000000000000E+000	-4,8581418E-001	42	2,9631994E-006
2	1	0	1	1	5,630730779323442E+004	1,4513012E+000	1,4521277E+000	3,460998415068797E-003	2,000000000000000E+000	-4,8514554E-001	42	5,0258118E-006
2	1	0	1	1	5,654713819368114E+004	1,4752842E+000	1,4761015E+000	4,967610484349086E-003	2,000000000000000E+000	-4,8413086E-001	42	7,3326974E-006
2	1	0	1	1	5,678696899412785E+004	1,4992672E+000	1,5000949E+000	6,607931418187524E-003	2,000000000000000E+000	-4,8273760E-001	42	9,9125245E-006
2	1	0	1	1	5,702679889457463E+004	1,5232502E+000	1,5240963E+000	8,361935971730960E-003	2,000000000000000E+000	-4,8093796E-001	42	1,2744395E-005
2	1	0	1	1	5,726662929502124E+004	1,5472331E+000	1,5480298E+000	1,043052964657139E-002	2,000000000000000E+000	-4,7868732E-001	41	1,6146771E-005
2	1	0	1	1	5,750645909546805E+004	1,5712161E+000	1,5720389E+000	1,322190751597280E-002	2,000000000000000E+000	-4,7585893E-001	41	2,0785354E-005
2	1	0	1	1	5,774628949591468E+004	1,5951990E+000	1,5959958E+000	1,965585017331509E-002	2,000000000000000E+000	-4,7205803E-001	41	3,1370655E-005
2	1	0	1	1	5,798612009636138E+004	1,6191821E+000	1,6200100E+000	3,222145571534818E-002	2,000000000000000E+000	-4,6587750E-001	41	5,2199081E-005
2	1	0	1	1	5,822595009680820E+004	1,6431650E+000	1,6439946E+000	4,569508458908306E-002	2,000000000000000E+000	-4,5651880E-001	41	7,5122472E-005
2	1	0	1	1	5,846578049725486E+004	1,6671481E+000	1,6679555E+000	5,875967484086764E-002	2,000000000000000E+000	-4,4396672E-001	41	9,8008524E-005
2	1	0	1	1	5,870561089770170E+004	1,6911310E+000	1,6919628E+000	7,105621590787992E-002	2,000000000000000E+000	-4,2837006E-001	41	1,2022447E-004
2	1	0	1	1	5,894544139814831E+004	1,7151140E+000	1,7159626E+000	8,208826492135879E-002	2,000000000000000E+000	-4,0996328E-001	41	1,4086040E-004
2	1	0	1	1	5,918527139859507E+004	1,7390969E+000	1,7399430E+000	9,116199340378484E-002	2,000000000000000E+000	-3,8913283E-001	41	1,5861668E-004
2	1	0	1	1	5,942510199904177E+004	1,7630799E+000	1,7639208E+000	9,750040186873599E-002	2,000000000000000E+000	-3,6643404E-001	41	1,7198299E-004
2	1	0	1	1	5,966493239948852E+004	1,7870629E+000	1,7879232E+000	1,005554637720001E-001	2,000000000000000E+000	-3,4259856E-001	41	1,7978545E-004
2	1	0	1	1	5,990476219993515E+004	1,8110458E+000	1,8118860E+000	9,968333150837450E-002	2,000000000000000E+000	-3,1850106E-001	41	1,8061482E-004
2	1	0	1	1	6,014459260038193E+004	1,8350289E+000	1,8358868E+000	9,534664522058273E-002	2,000000000000000E+000	-2,9503992E-001	41	1,7504566E-004
2	1	0	1	1	6,038442260082858E+004	1,8590119E+000	1,8598180E+000	8,815276082886903E-002	2,000000000000000E+000	-2,7297887E-001	41	1,6394809E-004
2	1	0	1	1	6,062425320127531E+004	1,8829948E+000	1,8837973E+000	7,915024482471399E-002	2,000000000000000E+000	-2,5288200E-001	41	1,4910301E-004
2	1	0	1	1	6,086408360172203E+004	1,9069777E+000	1,9077992E+000	6,939583505308367E-002	2,000000000000000E+000	-2,3505704E-001	41	1,3239332E-004
2	1	0	1	1	6,110391340216872E+004	1,9309608E+000	1,9317908E+000	5,970984278660674E-002	2,000000000000000E+000	-2,1958005E-001	41	1,1534693E-004
2	1	0	1	1	6,134374380261544E+004	1,9549437E+000	1,9557539E+000	5,066927129079847E-002	2,000000000000000E+000	-2,0635341E-001	41	9,9096629E-005
2	1	0	1	1	6,158357380306226E+004	1,9789267E+000	1,9797676E+000	4,264088677166727E-002	2,000000000000000E+000	-1,9518106E-001	41	8,4419044E-005
2	1	0	1	1	6,182340560350899E+004	2,0029097E+000	2,0037224E+000	3,584706850022801E-002	2,000000000000000E+000	-1,8578942E-001	41	7,1827577E-005
2	1	0	1	1	6,206323600395559E+004	2,0268924E+000	2,0277066E+000	3,036569127676086E-002	2,000000000000000E+000	-1,7786771E-001	41	6,1572711E-005
2	1	0	1	1	6,230306520440243E+004	2,0508754E+000	2,0517037E+000	2,597239829822734E-002	2,000000000000000E+000	-1,7112727E-001	41	5,3287666E-005
2	1	0	1	1	6,254289560484933E+004	2,0748584E+000	2,0756698E+000	2,252234537830640E-002	2,000000000000000E+000	-1,6532154E-001	41	4,6748952E-005
2	1	0	1	1	6,278272620529577E+004	2,0988412E+000	2,0996511E+000	1,978352272211183E-002	2,000000000000000E+000	-1,6025344E-001	41	4,1538497E-005
2	1	0	1	1	6,302255560574250E+004	2,1228244E+000	2,1236420E+000	1,758528492064702E-002	2,000000000000000E+000	-1,5577285E-001	41	3,7344849E-005
2	1	0	1	1	6,326238600618922E+004	2,1468072E+000	2,1476250E+000	1,576540463433976E-002	2,000000000000000E+000	-1,5177414E-001	41	3,3858178E-005
2	1	0	1	1	6,350221640663594E+004	2,1707902E+000	2,1715865E+000	1,425742270178901E-002	2,000000000000000E+000	-1,4817221E-001	41	3,0961226E-005
2	1	0	1	1	6,374204690708264E+004	2,1947734E+000	2,1955578E+000	1,298839035744855E-002	2,000000000000000E+000	-1,4490181E-001	41	2,8516763E-005
2	1	0	1	1	6,398187750752945E+004	2,2187562E+000	2,2195439E+000	1,191599948049890E-002	2,000000000000000E+000	-1,4191127E-001	41	2,6448084E-005
2	1	0	1	1	6,422170810797613E+004	2,2427394E+000	2,2435503E+000	1,098279262336496E-002	2,000000000000000E+000	-1,3916060E-001	41	2,4640447E-005
2	1	0	1	1	6,446153850842285E+004	2,2667222E+000	2,2675436E+000	1,017177288430373E-002	2,000000000000000E+000	-1,3661917E-001	41	2,3064938E-005
2	1	0	1	1	6,470136890886957E+004	2,2907050E+000	2,2914972E+000	9,443186342171533E-003	2,000000000000000E+000	-1,3426171E-001	41	2,1639034E-005
2	1	0	1	1	6,494119930931632E+004	2,3146880E+000	2,3154511E+000	8,800820443790922E-003	2,000000000000000E+000	-1,3206837E-001	41	2,0377869E-005
2	1	0	1	1	6,518102870976296E+004	2,3386710E+000	2,3394475E+000	8,244870552539002E-003	2,000000000000000E+000	-1,3001841E-001	41	1,9288442E-005
2	1	0	1	1	6,542085821020976E+004	2,3626540E+000	2,3634281E+000	7,740688667783630E-003	2,000000000000000E+000	-1,2809595E-001	41	1,8294561E-005
2	1	0	1	1	6,566068858091021E+004	2,3866370E+000	2,3874137E+000	7,294703380919060E-003	2,000000000000000E+000	-1,2628661E-001	41	1,7415476E-005
2	1	0	1	1	6,590051892418927E+004	2,4106200E+000	2,4113805E+000	6,907121208605121E-003	2,000000000000000E+000	-1,2457820E-001	41	1,6655698E-005
2	1	0	1	1	6,614034926744341E+004	2,4346030E+000	2,4353845E+000	6,577839985203178E-003	2,000000000000000E+000	-1,2295602E-001	41	1,6019570E-005
2	1	0	1	1	6,638017981073703E+004	2,4585860E+000	2,4593699E+000	6,303977799894937E-003	2,000000000000000E+000	-1,2140556E-001	41	1,5503812E-005
2	1	0	1	1	6,662001035397686E+004	2,4825687E+000	2,4833255E+000	6,059468216788200E-003	2,000000000000000E+000	-1,1991724E-001	41	1,5047632E-005
2	1	0	1	1	6,685984069727967E+004	2,5065520E+000	2,5072911E+000	5,824864228458446E-003	2,000000000000000E+000	-1,1848357E-001	41	1,4604630E-005
2	1	0	1	1	6,709967104051751E+004	2,5305347E+000	2,5313141E+000	5,530431902572470E-003	2,000000000000000E+000	-1,1711567E-001	41	1,3999261E-005
2	1	0	1	1	6,733950138382008E+004	2,5545180E+000	2,5552647E+000	5,292111265568097E-003	2,000000000000000E+000	-1,1581208E-001	41	1,3522746E-005
2	1	0	1	1	6,757933072705893E+004	2,5785007E+000	2,5792663E+000	5,065179704025521E-003	2,000000000000000E+000	-1,1456458E-001	41	1,3064448E-005
2	1	0	1	1	6,781916127035767E+004	2,6024837E+000	2,6032348E+000	4,869229065836631E-003	2,000000000000000E+000	-1,1336705E-001	41	1,2675747E-005
2	1	0	1	1	6,805999061337253E+004	2,6265669E+000	2,6273372E+000	4,690949172288170E-003	2,000000000000000E+000	-1,1221122E-001	42	1,2324705E-005
2	1	0	1	1	6,829981975665316E+004	2,6505497E+000	2,6513286E+000	4,566335620702626E-003	2,000000000000000E+000	-1,1109526E-001	42	1,2106856E-005
2	1	0	1	1	6,853965009992057E+004	2,6745327E+000	2,6752930E+000	4,472350223662057E-003	2,000000000000000E+000	-1,1000610E-001	42	1,1964848E-005
2	1	0	1	1	6,877948064318579E+004	2,6985157E+000	2,6992586E+000	4,410855168250266E-003	2,000000000000000E+000	-1,0893613E-001	42	1,1906039E-005
2	1	0	1	1	6,901931118646858E+004	2,7224987E+000	2,7232370E+000	4,374592548216663E-003	2,000000000000000E+000	-1,0787596E-001	42	1,1913053E-005
2	1	0	1	1	6,925914152971702E+004	2,7464817E+000	2,7472415E+000	4,360244794736068E-003	2,000000000000000E+000	-1,0682167E-001	42	1,1978645E-005
2	1	0	1	1	6,949897187301517E+004	2,7704647E+000	2,7711978E+000	4,379536089734182E-003	2,000000000000000E+000	-1,0576675E-001	42	1,2136561E-005
2	1	0	1	1	6,973880221625394E+004	2,7944477E+000	2,7951982E+000	4,492634637715695E-003	2,000000000000000E+000	-1,0469868E-001	42	1,2557804E-005
2	1	0	1	1	6,997863275955617E+004	2,8184307E+000	2,8191509E+000	4,903464516170283E-003	2,000000000000000E+000	-1,0357315E-001	42	1,3823606E-005
2	1	0	1	1	7,021846210279409E+004	2,8424137E+000	2,8431523E+000	5,652426107753378E-003	2,000000000000000E+000	-1,0230194E-001	42	1,6070708E-005
2	1	0	1	1	7,045829244609689E+004	2,8663964E+000	2,8671255E+000	6,079586538863410E-003	2,000000000000000E+000	-1,0087579E-001	42	1,7430937E-005
2	1	0	1	1	7,069812158933678E+004	2,8903792E+000	2,8911088E+000	5,942939718840440E-003	2,000000000000000E+000	-9,9419020E-002	42	1,7181685E-005
2	1	0	1	1	7,093795203263266E+004	2,9143622E+000	2,9151068E+000	5,645180778505857E-003	2,000000000000000E+000	-9,8022602E-002	42	1,6456304E-005
2	1	0	1	1	7,117778257588530E+004	2,9383454E+000	2,9390650E+000	5,435157617920898E-003	2,000000000000000E+000	-9,6689127E-002	42	1,5974281E-005
2	1	0	1	1	7,141761311916634E+004	2,9623282E+000	2,9630456E+000	5,363678531172453E-003	2,000000000000000E+000	-9,5390022E-002	42	1,5892823E-005
2	1	0	1	1	7,165744346243364E+004	2,9863112E+000	2,9870369E+000	5,379533235686018E-003	2,000000000000000E+000	-9,4094351E-002	42	1,6068865E-005
2	1	0	1	0	7,187928310997458E+004	2,9914079E+000	2,9921544E+000	4,131398692725614E-003	2,000000000000000E+000	-9,2974186E-002	42	1,2361783E-005
2	1	0	1	0	7,211911105321208E+004	2,9674246E+000	2,9681399E+000	3,031831423892975E-003	2,000000000000000E+000	-9,2137143E-002	42	8,9988998E-006
2	1	0	1	0	7,235893899651570E+004	2,9434419E+000	2,9441824E+000	2,419588833476687E-003	2,000000000000000E+000	-9,1496229E-002	42	7,1237109E-006
2	1	0	1	0	7,259876693975367E+004	2,9194586E+000	2,9201717E+000	1,998030595819484E-003	2,000000000000000E+000	-9,0976544E-002	42	5,8345927E-006
2	1	0	1	0	7,283859288305545E+004	2,8954759E+000	2,8962090E+000	1,672472003211141E-003	2,000000000000000E+000	-9,0544626E-002	42	4,8438283E-006
2	1	0	1	0	7,307842082630133E+004	2,8714929E+000	2,8722329E+000	1,407996638903774E-003	2,000000000000000E+000	-9,0183027E-002	42	4,0440941E-006
2	1	0	1	0	7,331824886958906E+004	2,8475094E+000	2,8482366E+000	1,196539649232428E-003	2,000000000000000E+000	-8,9879006E-002	42	3,4080281E-006
2	1	0	1	0	7,355807681285113E+004	2,8235264E+000	2,8242352E+000	1,036894649410175E-003	2,000000000000000E+000	-8,9618936E-002	42	2,9284345E-006
2	1	0	1	0	7,379790365612414E+004	2,7995441E+000	2,8002992E+000	9,103815647452714E-004	2,000000000000000E+000	-8,9393117E-002	42	2,5493407E-006
2	1	0	1	0	7,403772959940135E+004	2,7755609E+000	2,7762980E+000	8,058962426288068E-004	2,000000000000000E+000	-8,9194216E-002	42	2,2374081E-006
2	1	0	1	0	7,427755634265905E+004	2,7515779E+000	2,7523150E+000	7,256491696090248E-004	2,000000000000000E+000	-8,9017734E-002	42	1,9972151E-006
2	1	0	1	0	7,451738428594964E+004	2,7275951E+000	2,7283323E+000	6,457982164581252E-004	2,000000000000000E+000	-8,8860720E-002	42	1,7619521E-006
2	1	0	1	0	7,475721222919179E+004	2,7036119E+000	2,7043624E+000	5,642918548729994E-004	2,000000000000000E+000	-8,8722639E-002	43	1,5260497E-006
2	1	0	1	0	7,499704017249541E+004	2,6796291E+000	2,6803596E+000	4,851686629706291E-004	2,000000000000000E+000	-8,8604093E-002	43	1,3004264E-006
2	1	0	1	0	7,523686621573381E+004	2,6556461E+000	2,6563659E+000	3,946059706406797E-004	2,000000000000000E+000	-8,8505864E-002	43	1,0482179E-006
2	1	0	1	0	7,547669415903697E+004	2,6316631E+000	2,6324146E+000	3,126621073225788E-004	2,000000000000000E+000	-8,8428013E-002	43	8,2305627E-007
2	1	0	1	0	7,571652220227546E+004	2,6076801E+000	2,6083989E+000	2,424890508677144E-004	2,000000000000000E+000	-8,8369034E-002	43	6,3250820E-007
2	1	0	1	0	7,595635014557710E+004	2,5836971E+000	2,5844188E+000	1,647471251961037E-004	2,000000000000000E+000	-8,8327110E-002	43	4,2577557E-007
2	1	0	1	0	7,619617688882351E+004	2,5597143E+000	2,5604594E+000	9,659719698965389E-005	2,000000000000000E+000	-8,8304043E-002	43	2,4733319E-007
2	1	0	1	0	7,643700303187408E+004	2,5356312E+000	2,5363622E+000	3,571726135455188E-006	2,000000000000000E+000	-8,8300593E-002	44	9,0591907E-009
2	0	0	1	0	7,667682977513876E+004	2,5116484E+000	2,5123739E+000	-8,265928282792960E-005	2,000000000000000E+000	-8,8317491E-002	43	-2,0767102E-007
2	0	0	1	0	7,691665771840769E+004	2,4876654E+000	2,4883888E+000	-1,602573333167476E-004	2,000000000000000E+000	-8,8354580E-002	43	-3,9878256E-007
2	0	0	1	0	7,715648456168745E+004	2,4636824E+000	2,4643905E+000	-2,440999418390436E-004	2,000000000000000E+000	-8,8411190E-002	43	-6,0155759E-007
2	0	0	1	0	7,739631250494171E+004	2,4396992E+000	2,4404452E+000	-3,260320912889794E-004	2,000000000000000E+000	-8,8486932E-002	43	-7,9566342E-007
2	0	0	1	0	7,763613854823704E+004	2,4157166E+000	2,4164262E+000	-4,023493298595422E-004	2,000000000000000E+000	-8,8580787E-002	43	-9,7224745E-007
2	0	0	1	0	7,787596649147733E+004	2,3917334E+000	2,3924510E+000	-4,787788754042589E-004	2,000000000000000E+000	-8,8693202E-002	43	-1,1454550E-006
2	0	0	1	0	7,811579443478049E+004	2,3677504E+000	2,3684821E+000	-5,667362135541127E-004	2,000000000000000E+000	-8,8826045E-002	43	-1,3423046E-006
2	0	0	1	0	7,835562237801915E+004	2,3437676E+000	2,3444924E+000	-6,609086398746156E-004	2,000000000000000E+000	-8,8981636E-002	43	-1,5494953E-006
2	0	0	1	0	7,859545032132301E+004	2,3197844E+000	2,3205175E+000	-7,643503443537526E-004	2,000000000000000E+000	-8,9160524E-002	43	-1,7736884E-006
2	0	0	1	0	7,883527626456181E+004	2,2958016E+000	2,2965336E+000	-8,712171640977411E-004	2,000000000000000E+000	-8,9363664E-002	42	-2,0007794E-006
2	0	0	1	0	7,907510430786153E+004	2,2718184E+000	2,2725513E+000	-9,870638591227812E-004	2,000000000000000E+000	-8,9593433E-002	42	-2,2431532E-006
2	0	0	1	0	7,931493105111085E+004	2,2478356E+000	2,2485600E+000	-1,111709075733056E-003	2,000000000000000E+000	-8,9852877E-002	42	-2,4997446E-006
2	0	0	1	0	7,955475789439492E+004	2,2238526E+000	2,2245870E+000	-1,261728363353749E-003	2,000000000000000E+000	-9,0145268E-002	42	-2,8068246E-006
2	0	0	1	0	7,979458583765943E+004	2,1998696E+000	2,2005632E+000	-1,439756758623900E-003	2,000000000000000E+000	-9,0476580E-002	42	-3,1682757E-006
2	0	0	1	0	8,003441178092989E+004	2,1758869E+000	2,1766138E+000	-1,634004327663481E-003	2,000000000000000E+000	-9,0851948E-002	42	-3,5565963E-006
2	0	0	1	0	8,027423972420907E+004	2,1519039E+000	2,1526353E+000	-1,852444679576175E-003	2,000000000000000E+000	-9,1277160E-002	42	-3,9876377E-006
2	0	0	1	0	8,051406766746333E+004	2,1279206E+000	2,1286542E+000	-2,086071854772630E-003	2,000000000000000E+000	-9,1757037E-002	42	-4,4405256E-006
2	0	0	1	0	8,075389571075817E+004	2,1039376E+000	2,1046834E+000	-2,356109054007516E-003	2,000000000000000E+000	-9,2297658E-002	42	-4,9588634E-006
2	0	0	1	0	8,099372365399892E+004	2,0799549E+000	2,0806785E+000	-2,665393675619632E-003	2,000000000000000E+000	-9,2907116E-002	42	-5,5458272E-006
2	0	0	1	0	8,120456050412660E+004	2,0588205E+000	2,0595410E+000	-3,026999257909137E-003	2,000000000000000E+000	-9,3506992E-002	42	-6,2342292E-006