File: Dati/210416/CV_LTO-CB_04_CV_C05.mpt
EC-Lab ASCII FILE
Nb header lines : 57

Cyclic Voltammetry

Run on channel : 5 (SN 6809)
User : Seelab
Electrode connection : standard
Ewe ctrl range : min = 0,00 V, max = 5,00 V
Ewe,I filtering : 50 kHz
Safety Limits :
	Do not start on E overload
Channel : Grounded
Acquisition started on : 04/16/2021 18:38:45
Saved on :
	File : CV_LTO-CB_04_CV_C05.mpr
	Directory : C:\Users\labsuperfici\Desktop\Biologic\Users\Prisca Viviani\210416\
	Host : 10.78.33.0
Device : VSP-300 (SN 0638)
Address : USB
EC-Lab for windows v11.31 (software)
Internet server v11.30 (firmware)
Command interpretor v11.31 (firmware)
Electrode material :
Initial state :
Electrolyte :
Comments :
Cable : standard
Reference electrode : SCE Saturated Calomel Electrode (0,241 V)
Electrode surface area : 0,001 cm²
Characteristic mass : 0,001 g
Equivalent Weight : 0,000 g/eq.
Density : 0,000 g/cm3
Cycle Definition : Charge/Discharge alternance
Ei (V)              0,000
vs.                 Eoc
dE/dt               0,300
dE/dt unit          mV/s
E1 (V)              1,000
vs.                 Ref
Step percent        50
N                   10
E range min (V)     0,000
E range max (V)     5,000
I Range             Auto
I Range min         Unset
I Range max         Unset
I Range init        Unset
Bandwidth           8
E2 (V)              3,000
vs.                 Ref
nc cycles           1
Reverse Scan        1
Ef (V)              0,000
vs.                 Eoc

mode	ox/red	error	control changes	counter inc.	time/s	control/V	Ewe/V	<I>/mA	cycle number	(Q-Qo)/C	I Range	P/W
2	0	0	0	0	1,212049302423876E+005	2,0588205E+000	2,0595295E+000	-5,709758028388023E-003	1,000000000000000E+000	0,0000000E+000	42	-1,1759415E-005
2	0	0	1	0	1,212833740238530E+005	2,0352867E+000	2,0360217E+000	-7,218971647684022E-003	1,000000000000000E+000	-5,1488611E-004	42	-1,4697983E-005
2	0	0	1	0	1,213633173049230E+005	2,0113034E+000	2,0120506E+000	-8,441201279907745E-003	1,000000000000000E+000	-1,1448935E-003	42	-1,6984124E-005
2	0	0	1	0	1,214432610860351E+005	1,9873208E+000	1,9880500E+000	-9,668213519609697E-003	1,000000000000000E+000	-1,8719030E-003	42	-1,9220892E-005
2	0	0	1	0	1,215232041671022E+005	1,9633377E+000	1,9640737E+000	-1,092499519839424E-002	1,000000000000000E+000	-2,6966045E-003	41	-2,1457496E-005
2	0	0	1	0	1,216031474482177E+005	1,9393548E+000	1,9401096E+000	-1,228143316264851E-002	1,000000000000000E+000	-3,6265678E-003	41	-2,3827326E-005
2	0	0	1	0	1,216830906292784E+005	1,9153715E+000	1,9161042E+000	-1,377736133721411E-002	1,000000000000000E+000	-4,6700775E-003	41	-2,6398860E-005
2	0	0	1	0	1,217630339104019E+005	1,8913889E+000	1,8921088E+000	-1,539462024818816E-002	1,000000000000000E+000	-5,8380896E-003	41	-2,9128296E-005
2	0	0	1	0	1,218429771914559E+005	1,8674057E+000	1,8681901E+000	-1,715683192335014E-002	1,000000000000000E+000	-7,1417596E-003	41	-3,2052223E-005
2	0	0	1	0	1,219229203725833E+005	1,8434229E+000	1,8441834E+000	-1,906796900769107E-002	1,000000000000000E+000	-8,5921977E-003	41	-3,5164834E-005
2	0	0	1	0	1,220028636536344E+005	1,8194399E+000	1,8202072E+000	-2,114159223785871E-002	1,000000000000000E+000	-1,0201677E-002	41	-3,8482078E-005
2	0	0	1	0	1,220828067347659E+005	1,7954568E+000	1,7962021E+000	-2,339545369519641E-002	1,000000000000000E+000	-1,1984426E-002	41	-4,2022963E-005
2	0	0	1	0	1,221627501158133E+005	1,7714739E+000	1,7722262E+000	-2,590560315539481E-002	1,000000000000000E+000	-1,3957036E-002	41	-4,5910590E-005
2	0	0	1	0	1,222426933969469E+005	1,7474909E+000	1,7482648E+000	-2,863510599791996E-002	1,000000000000000E+000	-1,6138937E-002	41	-5,0061746E-005
2	0	0	1	0	1,223226365779932E+005	1,7235079E+000	1,7242672E+000	-3,163521794048185E-002	1,000000000000000E+000	-1,8549347E-002	41	-5,4547570E-005
2	0	0	1	0	1,224025796591279E+005	1,6995250E+000	1,7002834E+000	-3,488067592250632E-002	1,000000000000000E+000	-2,1209896E-002	41	-5,9307036E-005
2	0	0	1	0	1,224825231401740E+005	1,6755420E+000	1,6762835E+000	-3,839873868983426E-002	1,000000000000000E+000	-2,4139499E-002	41	-6,4367174E-005
2	0	0	1	0	1,225624665213048E+005	1,6515590E+000	1,6522715E+000	-4,211812618590072E-002	1,000000000000000E+000	-2,7357424E-002	41	-6,9590576E-005
2	0	0	1	0	1,226424096023585E+005	1,6275760E+000	1,6283383E+000	-4,620351860977023E-002	1,000000000000000E+000	-3,0888995E-002	41	-7,5234959E-005
2	0	0	1	0	1,227223529834828E+005	1,6035930E+000	1,6043603E+000	-5,065649536935224E-002	1,000000000000000E+000	-3,4761671E-002	41	-8,1271275E-005
2	0	0	1	0	1,228022962645394E+005	1,5796102E+000	1,5803282E+000	-5,574005632769619E-002	1,000000000000000E+000	-3,9014485E-002	41	-8,8087581E-005
2	0	0	1	0	1,228822393456616E+005	1,5556272E+000	1,5563790E+000	-6,156117930344912E-002	1,000000000000000E+000	-4,3700665E-002	41	-9,5812524E-005
2	0	0	1	0	1,229621825267226E+005	1,5316442E+000	1,5323842E+000	-6,847645900038457E-002	1,000000000000000E+000	-4,8894092E-002	41	-1,0493224E-004
2	0	0	1	0	1,230421258078389E+005	1,5076612E+000	1,5084205E+000	-7,664190005552762E-002	1,000000000000000E+000	-5,4689012E-002	41	-1,1560821E-004
2	0	0	1	0	1,231220690889054E+005	1,4836781E+000	1,4844240E+000	-8,630049545144414E-002	1,000000000000000E+000	-6,1194725E-002	41	-1,2810652E-004
2	0	0	1	0	1,232020124700158E+005	1,4596952E+000	1,4604572E+000	-9,748781102313830E-002	1,000000000000000E+000	-6,8534985E-002	41	-1,4237678E-004
2	0	0	1	0	1,232819555510888E+005	1,4357123E+000	1,4364650E+000	-1,096462125012034E-001	1,000000000000000E+000	-7,6814219E-002	40	-1,5750295E-004
2	0	0	1	0	1,233618986321939E+005	1,4117293E+000	1,4125013E+000	-1,219280745126169E-001	1,000000000000000E+000	-8,6079195E-002	40	-1,7222356E-004
2	0	0	1	0	1,234418420132698E+005	1,3877463E+000	1,3884927E+000	-1,330101314157630E-001	1,000000000000000E+000	-9,6286260E-002	40	-1,8468359E-004
2	0	0	1	0	1,235217852943728E+005	1,3637635E+000	1,3645161E+000	-1,420682663835100E-001	1,000000000000000E+000	-1,0730164E-001	40	-1,9385444E-004
2	0	0	1	0	1,236017284754532E+005	1,3397806E+000	1,3405342E+000	-1,487135456296226E-001	1,000000000000000E+000	-1,1894569E-001	40	-1,9935559E-004
2	0	0	1	0	1,236816717565491E+005	1,3157976E+000	1,3165443E+000	-1,529914622887694E-001	1,000000000000000E+000	-1,3102587E-001	40	-2,0142004E-004
2	0	0	1	0	1,237616148376367E+005	1,2918147E+000	1,2925473E+000	-1,546212414703887E-001	1,000000000000000E+000	-1,4335243E-001	40	-1,9985528E-004
2	0	0	1	0	1,238415582187269E+005	1,2678314E+000	1,2685934E+000	-1,548294897858340E-001	1,000000000000000E+000	-1,5573986E-001	40	-1,9641567E-004
2	0	0	1	0	1,239215014998186E+005	1,2438484E+000	1,2445914E+000	-1,532646691031965E-001	1,000000000000000E+000	-1,6807027E-001	40	-1,9075189E-004
2	0	0	1	0	1,240014446809048E+005	1,2198656E+000	1,2206119E+000	-1,502422045598220E-001	1,000000000000000E+000	-1,8021542E-001	40	-1,8338743E-004
2	0	0	1	0	1,240813879620007E+005	1,1958827E+000	1,1966519E+000	-1,460886457775252E-001	1,000000000000000E+000	-1,9207062E-001	40	-1,7481727E-004
2	0	0	1	0	1,241613310430828E+005	1,1718996E+000	1,1726384E+000	-1,412542714445060E-001	1,000000000000000E+000	-2,0356295E-001	40	-1,6564019E-004
2	0	0	1	0	1,242412744241843E+005	1,1479167E+000	1,1486776E+000	-1,359353812409211E-001	1,000000000000000E+000	-2,1464792E-001	40	-1,5614592E-004
2	0	0	1	0	1,243212177052592E+005	1,1239337E+000	1,1246886E+000	-1,305099764470228E-001	1,000000000000000E+000	-2,2530229E-001	40	-1,4678309E-004
2	0	0	1	0	1,244011607863677E+005	1,0999507E+000	1,1007407E+000	-1,251004488583337E-001	1,000000000000000E+000	-2,3552306E-001	40	-1,3770316E-004
2	0	0	1	0	1,244811041674381E+005	1,0759678E+000	1,0767385E+000	-1,198654091504069E-001	1,000000000000000E+000	-2,4531673E-001	40	-1,2906370E-004
2	0	0	1	0	1,245610472485495E+005	1,0519848E+000	1,0527546E+000	-1,147999302778832E-001	1,000000000000000E+000	-2,5469911E-001	40	-1,2085616E-004
2	0	0	1	0	1,246409905296165E+005	1,0280018E+000	1,0287669E+000	-1,101515119174536E-001	1,000000000000000E+000	-2,6369044E-001	40	-1,1332022E-004
2	0	0	1	0	1,247209339107326E+005	1,0040188E+000	1,0048161E+000	-1,060050173577152E-001	1,000000000000000E+000	-2,7233246E-001	40	-1,0651554E-004
2	0	0	1	0	1,247962142929058E+005	1,0185086E+000	1,0193086E+000	-8,614957014000968E-002	1,000000000000000E+000	-2,7956969E-001	40	-8,7812994E-005
2	0	0	1	0	1,248761576740091E+005	1,0424914E+000	1,0432473E+000	-7,225175174091869E-002	1,000000000000000E+000	-2,8586236E-001	40	-7,5376447E-005
2	0	0	1	0	1,249561007550824E+005	1,0664746E+000	1,0672479E+000	-6,207738954906694E-002	1,000000000000000E+000	-2,9120931E-001	40	-6,6251960E-005
2	0	0	1	0	1,250360441361927E+005	1,0904576E+000	1,0912251E+000	-5,400508183360986E-002	1,000000000000000E+000	-2,9583344E-001	40	-5,8931702E-005
2	0	0	1	0	1,251159876172594E+005	1,1144403E+000	1,1151825E+000	-4,751092962390437E-002	1,000000000000000E+000	-2,9987526E-001	41	-5,2983360E-005
2	0	0	1	0	1,251959309983753E+005	1,1384234E+000	1,1391973E+000	-4,189089131820967E-002	1,000000000000000E+000	-3,0343834E-001	41	-4,7721991E-005
2	0	0	1	0	1,252758746794382E+005	1,1624064E+000	1,1631812E+000	-3,707702903851218E-002	1,000000000000000E+000	-3,0658612E-001	41	-4,3127304E-005
2	0	0	1	0	1,253558177605562E+005	1,1863894E+000	1,1871494E+000	-3,290509791126633E-002	1,000000000000000E+000	-3,0937597E-001	41	-3,9063267E-005
2	0	0	1	0	1,254357611416159E+005	1,2103723E+000	1,2111570E+000	-2,929187464924049E-002	1,000000000000000E+000	-3,1185532E-001	41	-3,5477056E-005
2	0	0	1	0	1,255157046227402E+005	1,2343553E+000	1,2351152E+000	-2,615051830883386E-002	1,000000000000000E+000	-3,1406486E-001	41	-3,2298904E-005
2	0	0	1	0	1,255956479037926E+005	1,2583382E+000	1,2591100E+000	-2,332151868603358E-002	1,000000000000000E+000	-3,1603646E-001	41	-2,9364357E-005
2	0	0	1	0	1,256755916849230E+005	1,2823212E+000	1,2830933E+000	-2,072315280147647E-002	1,000000000000000E+000	-3,1779277E-001	41	-2,6589740E-005
2	0	0	1	0	1,257555347659709E+005	1,3063043E+000	1,3070583E+000	-1,820939539720906E-002	1,000000000000000E+000	-3,1934562E-001	41	-2,3800741E-005
2	0	0	1	0	1,258354780471046E+005	1,3302872E+000	1,3310457E+000	-1,569288393248010E-002	1,000000000000000E+000	-3,2069764E-001	41	-2,0887946E-005
2	0	0	1	0	1,259154216281518E+005	1,3542701E+000	1,3550261E+000	-1,308928700069500E-002	1,000000000000000E+000	-3,2184467E-001	41	-1,7736325E-005
2	0	0	1	0	1,259953649092838E+005	1,3782532E+000	1,3789988E+000	-1,036899997949026E-002	1,000000000000000E+000	-3,2277942E-001	41	-1,4298838E-005
2	0	0	1	0	1,260753085903311E+005	1,4022361E+000	1,4029678E+000	-7,482417206696762E-003	1,000000000000000E+000	-3,2348990E-001	41	-1,0497591E-005
2	0	0	1	0	1,261552517714654E+005	1,4262190E+000	1,4269279E+000	-4,414086728634792E-003	1,000000000000000E+000	-3,2396242E-001	42	-6,2985837E-006
2	0	0	1	0	1,262351950525125E+005	1,4502021E+000	1,4509521E+000	-1,076184802964400E-003	1,000000000000000E+000	-3,2417986E-001	42	-1,5614926E-006
2	1	0	1	0	1,263151385336416E+005	1,4741850E+000	1,4749634E+000	2,510306723642775E-003	1,000000000000000E+000	-3,2412106E-001	42	3,7026107E-006
2	1	0	1	0	1,263950819146964E+005	1,4981679E+000	1,4989418E+000	6,396343160138693E-003	1,000000000000000E+000	-3,2376406E-001	42	9,5877458E-006
2	1	0	1	0	1,264750255958191E+005	1,5221510E+000	1,5228914E+000	1,061046118563934E-002	1,000000000000000E+000	-3,2308328E-001	41	1,6158579E-005
2	1	0	1	0	1,265549687768788E+005	1,5461340E+000	1,5468798E+000	1,537484717941506E-002	1,000000000000000E+000	-3,2204524E-001	41	2,3783041E-005
2	1	0	1	0	1,266349120579970E+005	1,5701170E+000	1,5708612E+000	2,104659250256841E-002	1,000000000000000E+000	-3,2059154E-001	41	3,3061275E-005
2	1	0	1	0	1,267148555390607E+005	1,5940999E+000	1,5948615E+000	2,835836481082446E-002	1,000000000000000E+000	-3,1863233E-001	41	4,5227665E-005
2	1	0	1	0	1,267947989201758E+005	1,6180828E+000	1,6188209E+000	4,123486524038245E-002	1,000000000000000E+000	-3,1589353E-001	41	6,6751862E-005
2	1	0	1	0	1,268747426012432E+005	1,6420658E+000	1,6428026E+000	5,867307027254365E-002	1,000000000000000E+000	-3,1190866E-001	41	9,6388270E-005
2	1	0	1	0	1,269546856823516E+005	1,6660488E+000	1,6668029E+000	7,738865025901154E-002	1,000000000000000E+000	-3,0646968E-001	41	1,2899163E-004
2	1	0	1	0	1,270346292634266E+005	1,6900316E+000	1,6907948E+000	9,679344882978991E-002	1,000000000000000E+000	-2,9950613E-001	41	1,6365787E-004
2	1	0	1	0	1,271145727445295E+005	1,7140148E+000	1,7147881E+000	1,168265525630900E-001	1,000000000000000E+000	-2,9096189E-001	40	2,0033278E-004
2	1	0	1	0	1,271945161256091E+005	1,7379977E+000	1,7387604E+000	1,368677883365146E-001	1,000000000000000E+000	-2,8081369E-001	40	2,3798029E-004
2	1	0	1	0	1,272744596067077E+005	1,7619808E+000	1,7627426E+000	1,564141054297498E-001	1,000000000000000E+000	-2,6907843E-001	40	2,7571782E-004
2	1	0	1	0	1,273544028877909E+005	1,7859635E+000	1,7867298E+000	1,749125078078904E-001	1,000000000000000E+000	-2,5582024E-001	40	3,1252138E-004
2	1	0	1	0	1,274343462688858E+005	1,8099467E+000	1,8106924E+000	1,915132037336726E-001	1,000000000000000E+000	-2,4115148E-001	40	3,4677150E-004
2	1	0	1	0	1,275142897499746E+005	1,8339298E+000	1,8346581E+000	2,053542039833900E-001	1,000000000000000E+000	-2,2526297E-001	40	3,7675476E-004
2	1	0	1	0	1,275942328310622E+005	1,8579125E+000	1,8586462E+000	2,153733909124114E-001	1,000000000000000E+000	-2,0841260E-001	40	4,0030293E-004
2	1	0	1	0	1,276741766121578E+005	1,8818954E+000	1,8826195E+000	2,208436054294696E-001	1,000000000000000E+000	-1,9093743E-001	40	4,1576449E-004
2	1	0	1	0	1,277541198932403E+005	1,9058785E+000	1,9066193E+000	2,209886478664401E-001	1,000000000000000E+000	-1,7323329E-001	40	4,2134122E-004
2	1	0	1	0	1,278340629743392E+005	1,9298614E+000	1,9306183E+000	2,153313808661625E-001	1,000000000000000E+000	-1,5575029E-001	40	4,1572269E-004
2	1	0	1	0	1,279140067554185E+005	1,9538443E+000	1,9545710E+000	2,042865044582500E-001	1,000000000000000E+000	-1,3894202E-001	40	3,9929248E-004
2	1	0	1	0	1,279939498365219E+005	1,9778275E+000	1,9785367E+000	1,887569938976217E-001	1,000000000000000E+000	-1,2320337E-001	40	3,7346265E-004
2	1	0	1	0	1,280738935175953E+005	2,0018101E+000	2,0025370E+000	1,699595543345387E-001	1,000000000000000E+000	-1,0884313E-001	40	3,4035029E-004
2	1	0	1	0	1,281538368987057E+005	2,0257931E+000	2,0265284E+000	1,493625232877229E-001	1,000000000000000E+000	-9,6070267E-002	40	3,0268737E-004
2	1	0	1	0	1,282337801797726E+005	2,0497763E+000	2,0505166E+000	1,288036960320995E-001	1,000000000000000E+000	-8,4954672E-002	40	2,6411412E-004
2	1	0	1	0	1,283137242608874E+005	2,0737591E+000	2,0744903E+000	1,096357729562891E-001	1,000000000000000E+000	-7,5436860E-002	40	2,2743834E-004
2	1	0	1	0	1,283936676419503E+005	2,0977421E+000	2,0984640E+000	9,290048094261971E-002	1,000000000000000E+000	-6,7357697E-002	40	1,9494831E-004
2	1	0	1	0	1,284736113230692E+005	2,1217251E+000	2,1224465E+000	7,903333892867404E-002	1,000000000000000E+000	-6,0499661E-002	40	1,6774403E-004
2	1	0	1	0	1,285535546041287E+005	2,1457081E+000	2,1464133E+000	6,766370758613116E-002	1,000000000000000E+000	-5,4649003E-002	40	1,4523428E-004
2	1	0	1	0	1,286334979852522E+005	2,1696911E+000	2,1704209E+000	5,852108884503654E-002	1,000000000000000E+000	-4,9615055E-002	40	1,2701539E-004
2	1	0	1	0	1,287134412663048E+005	2,1936741E+000	2,1944010E+000	5,109270552870759E-002	1,000000000000000E+000	-4,5241062E-002	40	1,1211789E-004
2	1	0	1	0	1,287933846474364E+005	2,2176571E+000	2,2183800E+000	4,493134664510001E-002	1,000000000000000E+000	-4,1409444E-002	41	9,9674799E-005
2	1	0	1	0	1,288733279284837E+005	2,2416401E+000	2,2423396E+000	3,997174991584457E-002	1,000000000000000E+000	-3,8019162E-002	41	8,9630237E-005
2	1	0	1	0	1,289532712096164E+005	2,2656229E+000	2,2663319E+000	3,590667172921419E-002	1,000000000000000E+000	-3,4987513E-002	41	8,1376435E-005
2	1	0	1	0	1,290332145906650E+005	2,2896059E+000	2,2903266E+000	3,250804433913401E-002	1,000000000000000E+000	-3,2253768E-002	41	7,4454038E-005
2	1	0	1	0	1,291131582717975E+005	2,3135891E+000	2,3143041E+000	2,963099995051405E-002	1,000000000000000E+000	-2,9770041E-002	41	6,8575144E-005
2	1	0	1	0	1,291931015528438E+005	2,3375716E+000	2,3382916E+000	2,717242567602984E-002	1,000000000000000E+000	-2,7498789E-002	41	6,3537052E-005
2	1	0	1	0	1,292730453339772E+005	2,3615549E+000	2,3622997E+000	2,507871123252925E-002	1,000000000000000E+000	-2,5408849E-002	41	5,9243430E-005
2	1	0	1	0	1,293529886150253E+005	2,3855379E+000	2,3862932E+000	2,327050156894239E-002	1,000000000000000E+000	-2,3474708E-002	41	5,5530239E-005
2	1	0	1	0	1,294329319961553E+005	2,4095209E+000	2,4102545E+000	2,172516209509401E-002	1,000000000000000E+000	-2,1675101E-002	41	5,2363168E-005
2	1	0	1	0	1,295128756772086E+005	2,4335036E+000	2,4342415E+000	2,041733138007135E-002	1,000000000000000E+000	-1,9989315E-002	41	4,9700717E-005
2	1	0	1	0	1,295928185583311E+005	2,4574866E+000	2,4581919E+000	1,930123353686791E-002	1,000000000000000E+000	-1,8399395E-002	41	4,7446134E-005
2	1	0	1	0	1,296727622393917E+005	2,4814699E+000	2,4821784E+000	1,823673786599615E-002	1,000000000000000E+000	-1,6896052E-002	41	4,5266839E-005
2	1	0	1	0	1,297527052205105E+005	2,5054526E+000	2,5061555E+000	1,723606931145022E-002	1,000000000000000E+000	-1,5475735E-002	41	4,3196269E-005
2	1	0	1	0	1,298326485015728E+005	2,5294356E+000	2,5301518E+000	1,632460934476403E-002	1,000000000000000E+000	-1,4131383E-002	41	4,1303741E-005
2	1	0	1	0	1,299125922826877E+005	2,5534184E+000	2,5541174E+000	1,543274094442443E-002	1,000000000000000E+000	-1,2859334E-002	41	3,9417031E-005
2	1	0	1	0	1,299925355637562E+005	2,5774014E+000	2,5781112E+000	1,459764457389001E-002	1,000000000000000E+000	-1,1656308E-002	41	3,7634352E-005
2	1	0	1	0	1,300724792448648E+005	2,6013844E+000	2,6021168E+000	1,387082754008728E-002	1,000000000000000E+000	-1,0516062E-002	41	3,6093512E-005
2	1	0	1	0	1,301524226259397E+005	2,6253676E+000	2,6261203E+000	1,329391220349108E-002	1,000000000000000E+000	-9,4277812E-003	41	3,4911413E-005
2	1	0	1	0	1,302323659070422E+005	2,6493506E+000	2,6500618E+000	1,279518494244704E-002	1,000000000000000E+000	-8,3817272E-003	41	3,3908032E-005
2	1	0	1	0	1,303123095881217E+005	2,6733332E+000	2,6740608E+000	1,222459445303956E-002	1,000000000000000E+000	-7,3783365E-003	41	3,2689310E-005
2	1	0	1	0	1,303922525692212E+005	2,6973164E+000	2,6980426E+000	1,170699057826025E-002	1,000000000000000E+000	-6,4194710E-003	41	3,1585958E-005
2	1	0	1	0	1,304721962503039E+005	2,7212996E+000	2,7220321E+000	1,127975688077462E-002	1,000000000000000E+000	-5,4986090E-003	41	3,0703861E-005
2	1	0	1	0	1,305521391313983E+005	2,7452822E+000	2,7459993E+000	1,095839546148605E-002	1,000000000000000E+000	-4,6073860E-003	41	3,0091747E-005
2	1	0	1	0	1,306320825124874E+005	2,7692654E+000	2,7700081E+000	1,075356640361577E-002	1,000000000000000E+000	-3,7368145E-003	41	2,9787467E-005
2	1	0	1	0	1,307120261935750E+005	2,7932484E+000	2,7940001E+000	1,072392265619129E-002	1,000000000000000E+000	-2,8762026E-003	41	2,9962641E-005
2	1	0	1	0	1,307919694746702E+005	2,8172312E+000	2,8179729E+000	1,097227251087967E-002	1,000000000000000E+000	-2,0077820E-003	41	3,0919568E-005
2	1	0	1	0	1,308719132557529E+005	2,8412139E+000	2,8419571E+000	1,133203281469591E-002	1,000000000000000E+000	-1,1125241E-003	41	3,2205153E-005
2	1	0	1	0	1,309518565368517E+005	2,8651972E+000	2,8659110E+000	1,139244577848869E-002	1,000000000000000E+000	-1,9863887E-004	41	3,2649736E-005
2	1	0	1	0	1,310317999179312E+005	2,8891802E+000	2,8899007E+000	1,108499501742910E-002	1,000000000000000E+000	7,0494454E-004	41	3,2034535E-005
2	1	0	1	0	1,311117436146648E+005	2,9131637E+000	2,9138596E+000	1,064338446660216E-002	1,000000000000000E+000	1,5766659E-003	41	3,1013329E-005
2	1	0	1	0	1,311916865271720E+005	2,9371459E+000	2,9378619E+000	1,029019029008507E-002	1,000000000000000E+000	2,4156934E-003	41	3,0231158E-005
2	1	0	1	0	1,312716303396793E+005	2,9611287E+000	2,9618318E+000	1,010720090070982E-002	1,000000000000000E+000	3,2332628E-003	41	2,9935829E-005
2	1	0	1	0	1,313515732521890E+005	2,9851122E+000	2,9858410E+000	1,005577285564367E-002	1,000000000000000E+000	4,0421565E-003	41	3,0024939E-005
2	1	0	1	1	1,314261865638625E+005	2,9924068E+000	2,9931145E+000	7,466992954358376E-003	1,000000000000000E+000	4,7470578E-003	41	2,2349564E-005
2	1	0	1	1	1,315061298763696E+005	2,9684241E+000	2,9691238E+000	5,321648673405857E-003	1,000000000000000E+000	5,2440097E-003	41	1,5800633E-005
2	1	0	1	1	1,315860732888794E+005	2,9444413E+000	2,9451475E+000	4,097932507125902E-003	1,000000000000000E+000	5,6133033E-003	42	1,2069016E-005
2	1	0	1	1	1,316660166013864E+005	2,9204581E+000	2,9211857E+000	3,292043116600710E-003	1,000000000000000E+000	5,9035509E-003	42	9,6166696E-006
2	1	0	1	1	1,317459595138943E+005	2,8964751E+000	2,8971946E+000	2,680972533564759E-003	1,000000000000000E+000	6,1382372E-003	42	7,7672994E-006
2	1	0	1	1	1,318259025264040E+005	2,8724921E+000	2,8732142E+000	2,185248575694413E-003	1,000000000000000E+000	6,3292272E-003	42	6,2786871E-006
2	1	0	1	1	1,319058458389102E+005	2,8485091E+000	2,8492353E+000	1,785862794508528E-003	1,000000000000000E+000	6,4840885E-003	42	5,0883432E-006
2	1	0	1	1	1,319857883514185E+005	2,8245263E+000	2,8252461E+000	1,471838698246389E-003	1,000000000000000E+000	6,6103819E-003	42	4,1583066E-006
2	1	0	1	1	1,320657317639275E+005	2,8005433E+000	2,8012815E+000	1,226911556545186E-003	1,000000000000000E+000	6,7150961E-003	42	3,4369245E-006
2	1	0	1	1	1,321456746764334E+005	2,7765601E+000	2,7773087E+000	1,030861400551080E-003	1,000000000000000E+000	6,8022767E-003	42	2,8630204E-006
2	1	0	1	1	1,322256180889434E+005	2,7525773E+000	2,7533112E+000	8,522145318366654E-004	1,000000000000000E+000	6,8738689E-003	42	2,3464117E-006
2	1	0	1	1	1,323055614014508E+005	2,7285941E+000	2,7293487E+000	6,781641984163938E-004	1,000000000000000E+000	6,9314302E-003	42	1,8509465E-006
2	1	0	1	1	1,323855043139579E+005	2,7046113E+000	2,7053370E+000	5,059927227422049E-004	1,000000000000000E+000	6,9754585E-003	43	1,3688808E-006
2	1	0	1	1	1,324654477264676E+005	2,6806283E+000	2,6813684E+000	3,269252544198945E-004	1,000000000000000E+000	7,0055611E-003	43	8,7660703E-007
2	1	0	1	1	1,325453906389748E+005	2,6566453E+000	2,6573999E+000	1,192210931228433E-004	1,000000000000000E+000	7,0203785E-003	43	3,1681813E-007
2	0	0	1	1	1,326279987519003E+005	2,6318629E+000	2,6325996E+000	-1,440729396276216E-004	1,000000000000000E+000	7,0159431E-003	43	-3,7928635E-007
2	0	0	1	1	1,327079416644066E+005	2,6078801E+000	2,6086128E+000	-3,242954033167204E-004	1,000000000000000E+000	6,9930991E-003	43	-8,4596115E-007
2	0	0	1	1	1,327878846769170E+005	2,5838969E+000	2,5846214E+000	-4,083143907858819E-004	1,000000000000000E+000	6,9603198E-003	43	-1,0553381E-006
2	0	0	1	1	1,328678275894241E+005	2,5599141E+000	2,5606334E+000	-5,151743002785834E-004	1,000000000000000E+000	6,9204709E-003	43	-1,3191725E-006
2	0	0	1	1	1,329477705019312E+005	2,5359313E+000	2,5366423E+000	-6,839146683309608E-004	1,000000000000000E+000	6,8694819E-003	43	-1,7348469E-006
2	0	0	1	1	1,330277139144409E+005	2,5119483E+000	2,5126626E+000	-8,553177233812260E-004	1,000000000000000E+000	6,8048541E-003	42	-2,1491248E-006
2	0	0	1	1	1,331076572269480E+005	2,4879649E+000	2,4887087E+000	-1,025971492754315E-003	1,000000000000000E+000	6,7264619E-003	42	-2,5533443E-006
2	0	0	1	1	1,331876001394559E+005	2,4639823E+000	2,4646857E+000	-1,194103708999437E-003	1,000000000000000E+000	6,6346703E-003	42	-2,9430903E-006
2	0	0	1	1	1,332675435519654E+005	2,4399989E+000	2,4407215E+000	-1,374717875209625E-003	1,000000000000000E+000	6,5290369E-003	42	-3,3553035E-006
2	0	0	1	1	1,333474864644718E+005	2,4160161E+000	2,4167433E+000	-1,544915776442196E-003	1,000000000000000E+000	6,4094625E-003	42	-3,7336649E-006
2	0	0	1	1	1,334274297769805E+005	2,3920336E+000	2,3927619E+000	-1,708272085526076E-003	1,000000000000000E+000	6,2768133E-003	42	-4,0874884E-006
2	0	0	1	1	1,335073727894889E+005	2,3680503E+000	2,3687615E+000	-1,898681643125120E-003	1,000000000000000E+000	6,1300206E-003	42	-4,4975241E-006
2	0	0	1	1	1,335873157019950E+005	2,3440673E+000	2,3447890E+000	-2,112854075285362E-003	1,000000000000000E+000	5,9668198E-003	42	-4,9541973E-006
2	0	0	1	1	1,336672587145055E+005	2,3200843E+000	2,3208206E+000	-2,345741482963703E-003	1,000000000000000E+000	5,7857749E-003	42	-5,4440452E-006
2	0	0	1	1	1,337472016270125E+005	2,2961016E+000	2,2968383E+000	-2,610010637987596E-003	1,000000000000000E+000	5,5850311E-003	42	-5,9947724E-006
2	0	0	1	1	1,338271450395193E+005	2,2721186E+000	2,2728395E+000	-2,890279615419343E-003	1,000000000000000E+000	5,3623552E-003	42	-6,5691420E-006
2	0	0	1	1	1,339070883520292E+005	2,2481356E+000	2,2488568E+000	-3,208665435832224E-003	1,000000000000000E+000	5,1156403E-003	42	-7,2158291E-006
2	0	0	1	1	1,339870312645364E+005	2,2241523E+000	2,2249026E+000	-3,571715627124862E-003	1,000000000000000E+000	4,8419242E-003	42	-7,9467191E-006
2	0	0	1	1	1,340669746770440E+005	2,2001696E+000	2,2008784E+000	-3,974094114164203E-003	1,000000000000000E+000	4,5376332E-003	42	-8,7464978E-006
2	0	0	1	1	1,341469175895536E+005	2,1761866E+000	2,1768999E+000	-4,427232635123526E-003	1,000000000000000E+000	4,1988729E-003	42	-9,6376425E-006
2	0	0	1	1	1,342268609020601E+005	2,1522036E+000	2,1529152E+000	-4,957965458215557E-003	1,000000000000000E+000	3,8210906E-003	42	-1,0674079E-005
2	0	0	1	1	1,343068043145686E+005	2,1282206E+000	2,1289568E+000	-5,531494756819674E-003	1,000000000000000E+000	3,3990478E-003	42	-1,1776313E-005
2	0	0	1	1	1,343867468270776E+005	2,1042373E+000	2,1049204E+000	-6,183157445789789E-003	1,000000000000000E+000	2,9281199E-003	42	-1,3015054E-005
2	0	0	1	1	1,344666901395840E+005	2,0802548E+000	2,0809689E+000	-6,879653153343004E-003	1,000000000000000E+000	2,4038621E-003	42	-1,4316344E-005
2	0	0	1	1	1,345466327520926E+005	2,0562716E+000	2,0569847E+000	-7,657775308876166E-003	2,000000000000000E+000	1,8203977E-003	42	-1,5751926E-005
2	0	0	1	1	1,346265760646015E+005	2,0322888E+000	2,0330307E+000	-8,539447519624800E-003	2,000000000000000E+000	1,1702497E-003	42	-1,7360959E-005
2	0	0	1	1	1,347065194771080E+005	2,0083055E+000	2,0090277E+000	-9,525221111367055E-003	2,000000000000000E+000	4,4583736E-004	42	-1,9136432E-005
2	0	0	1	1	1,347864629896181E+005	1,9843229E+000	1,9850848E+000	-1,055494468291301E-002	2,000000000000000E+000	-3,5906112E-004	41	-2,0952461E-005
2	0	0	1	1	1,348664063021250E+005	1,9603398E+000	1,9610931E+000	-1,173112638055110E-002	2,000000000000000E+000	-1,2527548E-003	41	-2,3005830E-005
2	0	0	1	1	1,349463495146325E+005	1,9363568E+000	1,9371060E+000	-1,303592339430806E-002	2,000000000000000E+000	-2,2452888E-003	41	-2,5251966E-005
2	0	0	1	1	1,350262928271419E+005	1,9123738E+000	1,9131490E+000	-1,449609577775338E-002	2,000000000000000E+000	-3,3477456E-003	41	-2,7733191E-005
2	0	0	1	1	1,351062362396488E+005	1,8883910E+000	1,8891202E+000	-1,610495871184822E-002	2,000000000000000E+000	-4,5733019E-003	41	-3,0424204E-005
2	0	0	1	1	1,351861793521568E+005	1,8644080E+000	1,8651807E+000	-1,787418521699312E-002	2,000000000000000E+000	-5,9338296E-003	41	-3,3338587E-005
2	0	0	1	1	1,352661226646660E+005	1,8404249E+000	1,8411463E+000	-1,980819709787796E-002	2,000000000000000E+000	-7,4425293E-003	41	-3,6469788E-005
2	0	0	1	1	1,353460658771726E+005	1,8164420E+000	1,8171887E+000	-2,193709276537264E-002	2,000000000000000E+000	-9,1128368E-003	41	-3,9863837E-005
2	0	0	1	1	1,354260091896821E+005	1,7924588E+000	1,7931992E+000	-2,426351228274030E-002	2,000000000000000E+000	-1,0961459E-002	41	-4,3509310E-005
2	0	0	1	1	1,355059525021897E+005	1,7684760E+000	1,7692181E+000	-2,684307012720311E-002	2,000000000000000E+000	-1,3006666E-002	41	-4,7491245E-005
2	0	0	1	1	1,355858957146965E+005	1,7444930E+000	1,7452521E+000	-2,966619363139739E-002	2,000000000000000E+000	-1,5267377E-002	41	-5,1774987E-005
2	0	0	1	1	1,356658390272069E+005	1,7205101E+000	1,7212365E+000	-3,274247866482055E-002	2,000000000000000E+000	-1,7763976E-002	41	-5,6357549E-005
2	0	0	1	1	1,357457821397132E+005	1,6965270E+000	1,6972698E+000	-3,609753662873449E-002	2,000000000000000E+000	-2,0517986E-002	41	-6,1267259E-005
2	0	0	1	1	1,358257257522214E+005	1,6725441E+000	1,6732754E+000	-3,974494374832041E-002	2,000000000000000E+000	-2,3551529E-002	41	-6,6504232E-005
2	0	0	1	1	1,359056688647305E+005	1,6485611E+000	1,6492753E+000	-4,365200207855421E-002	2,000000000000000E+000	-2,6886091E-002	41	-7,1994167E-005
2	0	0	1	1	1,359856121772369E+005	1,6245782E+000	1,6253259E+000	-4,788317543800399E-002	2,000000000000000E+000	-3,0545549E-002	41	-7,7825767E-005
2	0	0	1	1	1,360655555897462E+005	1,6005952E+000	1,6013461E+000	-5,258260812030646E-002	2,000000000000000E+000	-3,4562014E-002	41	-8,4202955E-005
2	0	0	1	1	1,361454987022543E+005	1,5766124E+000	1,5773665E+000	-5,796546471771528E-002	2,000000000000000E+000	-3,8979799E-002	41	-9,1432783E-005
2	0	0	1	1	1,362254421147606E+005	1,5526292E+000	1,5533752E+000	-6,426244208051486E-002	2,000000000000000E+000	-4,3862339E-002	41	-9,9823686E-005
2	0	0	1	1	1,363053852272714E+005	1,5286465E+000	1,5293912E+000	-7,174688034226295E-002	2,000000000000000E+000	-4,9294680E-002	41	-1,0972904E-004
2	0	0	1	1	1,363853285397780E+005	1,5046633E+000	1,5054188E+000	-8,069499079659392E-002	2,000000000000000E+000	-5,5383019E-002	41	-1,2147975E-004
2	0	0	1	1	1,364652719522859E+005	1,4806805E+000	1,4814087E+000	-9,119979899434105E-002	2,000000000000000E+000	-6,2248569E-002	41	-1,3510417E-004
2	0	0	1	1	1,365452150647952E+005	1,4566975E+000	1,4574288E+000	-1,030347855572131E-001	2,000000000000000E+000	-7,0013866E-002	40	-1,5016587E-004
2	0	0	1	1	1,366251584773019E+005	1,4327146E+000	1,4334595E+000	-1,157941843843058E-001	2,000000000000000E+000	-7,8763150E-002	40	-1,6598628E-004
2	0	0	1	1	1,367051015898110E+005	1,4087316E+000	1,4094784E+000	-1,281108841616824E-001	2,000000000000000E+000	-8,8525258E-002	40	-1,8056952E-004
2	0	0	1	1	1,367850449023191E+005	1,3847485E+000	1,3854737E+000	-1,386580949750162E-001	2,000000000000000E+000	-9,9207439E-002	40	-1,9210715E-004
2	0	0	1	1	1,368649883148256E+005	1,3607657E+000	1,3614978E+000	-1,469772429856020E-001	2,000000000000000E+000	-1,1064617E-001	40	-2,0010919E-004
2	0	0	1	1	1,369449314273354E+005	1,3367826E+000	1,3375247E+000	-1,529449053060796E-001	2,000000000000000E+000	-1,2265478E-001	40	-2,0456758E-004
2	0	0	1	1	1,370248747398426E+005	1,3127996E+000	1,3135442E+000	-1,562524916835899E-001	2,000000000000000E+000	-1,3503343E-001	40	-2,0524455E-004
2	0	0	1	1	1,371048179523502E+005	1,2888167E+000	1,2895488E+000	-1,573676481638671E-001	2,000000000000000E+000	-1,4758605E-001	40	-2,0293325E-004
2	0	0	1	1	1,371847612648597E+005	1,2648337E+000	1,2655616E+000	-1,565375478340320E-001	2,000000000000000E+000	-1,6014966E-001	40	-1,9810791E-004
2	0	0	1	1	1,372647045773667E+005	1,2408507E+000	1,2415853E+000	-1,540411162851894E-001	2,000000000000000E+000	-1,7257722E-001	40	-1,9125518E-004
2	0	0	1	1	1,373446477898750E+005	1,2168678E+000	1,2176003E+000	-1,501402422296675E-001	2,000000000000000E+000	-1,8474978E-001	40	-1,8281081E-004
2	0	0	1	1	1,374245911023840E+005	1,1928849E+000	1,1936508E+000	-1,453213976120618E-001	2,000000000000000E+000	-1,9656909E-001	40	-1,7346301E-004
2	0	0	1	1	1,375045343148902E+005	1,1689018E+000	1,1696634E+000	-1,399497692851429E-001	2,000000000000000E+000	-2,0797852E-001	40	-1,6369413E-004
2	0	0	1	1	1,375844776273998E+005	1,1449188E+000	1,1456664E+000	-1,342568405053053E-001	2,000000000000000E+000	-2,1894386E-001	40	-1,5381354E-004
2	0	0	1	1	1,376644209399074E+005	1,1209359E+000	1,1216953E+000	-1,286033695943994E-001	2,000000000000000E+000	-2,2945493E-001	40	-1,4425379E-004
2	0	0	1	1	1,377443641524143E+005	1,0969529E+000	1,0977173E+000	-1,230112527489281E-001	2,000000000000000E+000	-2,3951550E-001	40	-1,3503157E-004
2	0	0	1	1	1,378243074649246E+005	1,0729699E+000	1,0737293E+000	-1,176214699858467E-001	2,000000000000000E+000	-2,4913536E-001	40	-1,2629361E-004
2	0	0	1	1	1,379042506774315E+005	1,0489869E+000	1,0497584E+000	-1,124963051451995E-001	2,000000000000000E+000	-2,5833407E-001	40	-1,1809394E-004
2	0	0	1	1	1,379841939899391E+005	1,0250039E+000	1,0257572E+000	-1,078748106447462E-001	2,000000000000000E+000	-2,6714277E-001	40	-1,1065336E-004
2	0	0	1	1	1,380641373024487E+005	1,0010210E+000	1,0017837E+000	-1,038515365724164E-001	2,000000000000000E+000	-2,7560619E-001	40	-1,0403678E-004
2	0	0	1	1	1,381394177142270E+005	1,0215065E+000	1,0222706E+000	-8,216777464883304E-002	2,000000000000000E+000	-2,8249267E-001	40	-8,3997700E-005
2	0	0	1	1	1,382193611267337E+005	1,0454895E+000	1,0462483E+000	-6,897863786786046E-002	2,000000000000000E+000	-2,8849843E-001	40	-7,2168783E-005
2	0	0	1	1	1,382993042392423E+005	1,0694724E+000	1,0702231E+000	-5,919578622181160E-002	2,000000000000000E+000	-2,9359990E-001	40	-6,3352694E-005
2	0	0	1	1	1,383792476517509E+005	1,0934553E+000	1,0942345E+000	-5,140500133124694E-002	2,000000000000000E+000	-2,9800579E-001	40	-5,6249126E-005
2	0	0	1	1	1,384591911642575E+005	1,1174383E+000	1,1181883E+000	-4,515591797038376E-002	2,000000000000000E+000	-3,0185440E-001	41	-5,0492818E-005
2	0	0	1	1	1,385391345767672E+005	1,1414213E+000	1,1421736E+000	-3,972710296109899E-002	2,000000000000000E+000	-3,0523708E-001	41	-4,5375251E-005
2	0	0	1	1	1,386190782892747E+005	1,1654043E+000	1,1661587E+000	-3,508687059673998E-002	2,000000000000000E+000	-3,0821931E-001	41	-4,0916857E-005
2	0	0	1	1	1,386990214017821E+005	1,1893873E+000	1,1901417E+000	-3,105335926299535E-002	2,000000000000000E+000	-3,1085527E-001	41	-3,6957896E-005
2	0	0	1	1	1,387789646142917E+005	1,2133703E+000	1,2141087E+000	-2,754107434748876E-002	2,000000000000000E+000	-3,1319016E-001	41	-3,3437856E-005
2	0	0	1	1	1,388589083267984E+005	1,2373532E+000	1,2380961E+000	-2,445297085764891E-002	2,000000000000000E+000	-3,1526202E-001	41	-3,0275129E-005
2	0	0	1	1	1,389388516393071E+005	1,2613362E+000	1,2620872E+000	-2,170845945271710E-002	2,000000000000000E+000	-3,1710133E-001	41	-2,7397969E-005
2	0	0	1	1	1,390187954518155E+005	1,2853192E+000	1,2860376E+000	-1,918680977606836E-002	2,000000000000000E+000	-3,1873119E-001	41	-2,4674959E-005
2	0	0	1	1	1,390987385643218E+005	1,3093021E+000	1,3100806E+000	-1,673555366830043E-002	2,000000000000000E+000	-3,2016248E-001	41	-2,1924925E-005
2	0	0	1	1	1,391786816768320E+005	1,3332852E+000	1,3340222E+000	-1,427590262343925E-002	2,000000000000000E+000	-3,2139879E-001	41	-1,9044370E-005
2	0	0	1	1	1,392586254893389E+005	1,3572679E+000	1,3579957E+000	-1,172259115995716E-002	2,000000000000000E+000	-3,2243508E-001	41	-1,5919230E-005
2	0	0	1	1	1,393385688018468E+005	1,3812511E+000	1,3819736E+000	-9,060192755665997E-003	2,000000000000000E+000	-3,2326254E-001	41	-1,2520947E-005
2	0	0	1	1	1,394185123143562E+005	1,4052339E+000	1,4059659E+000	-6,184191362370355E-003	2,000000000000000E+000	-3,2386872E-001	41	-8,6947621E-006
2	0	0	1	1	1,394984557268627E+005	1,4292170E+000	1,4299425E+000	-3,126894919350663E-003	2,000000000000000E+000	-3,2423905E-001	42	-4,4712797E-006
2	1	0	1	1	1,395783988393722E+005	1,4532000E+000	1,4539371E+000	2,129875908752740E-004	2,000000000000000E+000	-3,2435304E-001	43	3,0967055E-007
2	1	0	1	1	1,396583425518798E+005	1,4771827E+000	1,4779340E+000	3,806075481441316E-003	2,000000000000000E+000	-3,2419017E-001	42	5,6251283E-006
2	1	0	1	1	1,397382859643865E+005	1,5011660E+000	1,5019116E+000	7,742028690110220E-003	2,000000000000000E+000	-3,2372656E-001	42	1,1627843E-005
2	1	0	1	1	1,398182294768970E+005	1,5251490E+000	1,5258771E+000	1,205295099714337E-002	2,000000000000000E+000	-3,2293466E-001	41	1,8391322E-005
2	1	0	1	1	1,398981727894036E+005	1,5491319E+000	1,5498776E+000	1,698745019737877E-002	2,000000000000000E+000	-3,2177579E-001	41	2,6328469E-005
2	1	0	1	1	1,399781160019119E+005	1,5731149E+000	1,5738405E+000	2,293436046415383E-002	2,000000000000000E+000	-3,2018283E-001	41	3,6095025E-005
2	1	0	1	1	1,400580597144209E+005	1,5970978E+000	1,5978358E+000	3,109600150032787E-002	2,000000000000000E+000	-3,1804612E-001	41	4,9686303E-005
2	1	0	1	1	1,401380031269274E+005	1,6210808E+000	1,6218367E+000	4,608231125496465E-002	2,000000000000000E+000	-3,1500590E-001	41	7,4737982E-005
2	1	0	1	1	1,402179466394368E+005	1,6450635E+000	1,6457918E+000	6,542881684006963E-002	2,000000000000000E+000	-3,1055599E-001	41	1,0768221E-004
2	1	0	1	1	1,402978899519445E+005	1,6690468E+000	1,6697836E+000	8,624634924241875E-002	2,000000000000000E+000	-3,0449530E-001	41	1,4401274E-004
2	1	0	1	1	1,403778333644513E+005	1,6930296E+000	1,6937683E+000	1,084196485151278E-001	2,000000000000000E+000	-2,9671729E-001	40	1,8363776E-004
2	1	0	1	1	1,404577770769619E+005	1,7170125E+000	1,7177414E+000	1,315969807653998E-001	2,000000000000000E+000	-2,8712428E-001	40	2,2604958E-004
2	1	0	1	1	1,405377201894680E+005	1,7409955E+000	1,7417191E+000	1,555137336451993E-001	2,000000000000000E+000	-2,7564427E-001	40	2,7086123E-004
2	1	0	1	1	1,406176640019771E+005	1,7649786E+000	1,7657205E+000	1,795162040134719E-001	2,000000000000000E+000	-2,6224428E-001	40	3,1697543E-004
2	1	0	1	1	1,406976073144854E+005	1,7889615E+000	1,7896825E+000	2,022559023204582E-001	2,000000000000000E+000	-2,4696326E-001	40	3,6197386E-004
2	1	0	1	1	1,407775505269920E+005	1,8129444E+000	1,8136649E+000	2,219358899355415E-001	2,000000000000000E+000	-2,2997373E-001	40	4,0251733E-004
2	1	0	1	1	1,408574942395017E+005	1,8369278E+000	1,8376402E+000	2,366110993770206E-001	2,000000000000000E+000	-2,1159704E-001	40	4,3480605E-004
2	1	0	1	1	1,409374373520091E+005	1,8609103E+000	1,8616225E+000	2,445183637664528E-001	2,000000000000000E+000	-1,9230720E-001	40	4,5520088E-004
2	1	0	1	1	1,410173811645168E+005	1,8848934E+000	1,8856041E+000	2,442586052309998E-001	2,000000000000000E+000	-1,7270944E-001	40	4,6057504E-004
2	1	0	1	1	1,410973244770262E+005	1,9088763E+000	1,9096321E+000	2,356506129496936E-001	2,000000000000000E+000	-1,5346840E-001	40	4,5000596E-004
2	1	0	1	1	1,411772675895328E+005	1,9328594E+000	1,9335862E+000	2,194495155325109E-001	2,000000000000000E+000	-1,3523296E-001	40	4,2432456E-004
2	1	0	1	1	1,412572114020418E+005	1,9568422E+000	1,9575530E+000	1,980526110130465E-001	2,000000000000000E+000	-1,1851275E-001	40	3,8769850E-004
2	1	0	1	1	1,413371545145500E+005	1,9808253E+000	1,9815643E+000	1,740137752218709E-001	2,000000000000000E+000	-1,0362632E-001	40	3,4481948E-004
2	1	0	1	1	1,414170982270567E+005	2,0048082E+000	2,0055263E+000	1,495781943381522E-001	2,000000000000000E+000	-9,0692095E-002	40	2,9998302E-004
2	1	0	1	1	1,414970416395669E+005	2,0287912E+000	2,0295274E+000	1,267260322487783E-001	2,000000000000000E+000	-7,9658873E-002	40	2,5719395E-004
2	1	0	1	1	1,415769849520738E+005	2,0527740E+000	2,0534689E+000	1,065740526020699E-001	2,000000000000000E+000	-7,0350818E-002	40	2,1884650E-004
2	1	0	1	1	1,416569290645821E+005	2,0767572E+000	2,0774746E+000	8,969238434559532E-002	2,000000000000000E+000	-6,2522918E-002	40	1,8633365E-004
2	1	0	1	1	1,417368724770909E+005	2,1007402E+000	2,1014400E+000	7,596532453624016E-002	2,000000000000000E+000	-5,5919021E-002	40	1,5963656E-004
2	1	0	1	1	1,418168161895974E+005	2,1247230E+000	2,1254244E+000	6,508161952622166E-002	2,000000000000000E+000	-5,0294418E-002	40	1,3832607E-004
2	1	0	1	1	1,418967595021073E+005	2,1487060E+000	2,1493871E+000	5,625344350027583E-002	2,000000000000000E+000	-4,5455113E-002	40	1,2091043E-004
2	1	0	1	1	1,419767029146145E+005	2,1726890E+000	2,1733975E+000	4,919836673212440E-002	2,000000000000000E+000	-4,1246578E-002	40	1,0692761E-004
2	1	0	1	1	1,420569796271757E+005	2,1967719E+000	2,1974885E+000	4,336393152034923E-002	2,000000000000000E+000	-3,7538137E-002	41	9,5291740E-005
2	1	0	1	1	1,421369229396825E+005	2,2207549E+000	2,2215033E+000	3,875869784909358E-002	2,000000000000000E+000	-3,4257129E-002	41	8,6102576E-005
2	1	0	1	1	1,422168663521907E+005	2,2447376E+000	2,2454638E+000	3,492933607054582E-002	2,000000000000000E+000	-3,1312265E-002	41	7,8432560E-005
2	1	0	1	1	1,422968096646997E+005	2,2687209E+000	2,2694442E+000	3,170393044037773E-002	2,000000000000000E+000	-2,8648527E-002	41	7,1950300E-005
2	1	0	1	1	1,423767525772061E+005	2,2927036E+000	2,2934463E+000	2,898877596464983E-002	2,000000000000000E+000	-2,6220774E-002	41	6,6484201E-005
2	1	0	1	1	1,424566963897157E+005	2,3166866E+000	2,3174138E+000	2,665611310701707E-002	2,000000000000000E+000	-2,3994712E-002	41	6,1773244E-005
2	1	0	1	1	1,425366397022232E+005	2,3406696E+000	2,3413730E+000	2,462080270081976E-002	2,000000000000000E+000	-2,1942509E-002	41	5,7646481E-005
2	1	0	1	1	1,426165834147302E+005	2,3646529E+000	2,3653722E+000	2,287263548596108E-002	2,000000000000000E+000	-2,0041240E-002	41	5,4102296E-005
2	1	0	1	1	1,426965268272404E+005	2,3886356E+000	2,3893516E+000	2,133953071676459E-002	2,000000000000000E+000	-1,8271368E-002	41	5,0987641E-005
2	1	0	1	1	1,427764701397466E+005	2,4126186E+000	2,4133422E+000	2,003527794992713E-002	2,000000000000000E+000	-1,6614605E-002	41	4,8351983E-005
2	1	0	1	1	1,428564138522558E+005	2,4366019E+000	2,4373150E+000	1,894819889246430E-002	2,000000000000000E+000	-1,5052955E-002	41	4,6182729E-005
2	1	0	1	1	1,429363572647639E+005	2,4605844E+000	2,4612851E+000	1,794078744152054E-002	2,000000000000000E+000	-1,3573935E-002	41	4,4157394E-005
2	1	0	1	1	1,430163009772706E+005	2,4845679E+000	2,4852908E+000	1,697410213591116E-002	2,000000000000000E+000	-1,2174167E-002	41	4,2185580E-005
2	1	0	1	1	1,430962439897801E+005	2,5085504E+000	2,5092773E+000	1,608448864713583E-002	2,000000000000000E+000	-1,0849043E-002	41	4,0360443E-005
2	1	0	1	1	1,431761873022877E+005	2,5325336E+000	2,5332501E+000	1,524746731358645E-002	2,000000000000000E+000	-9,5924372E-003	41	3,8625647E-005
2	1	0	1	1	1,432561306147948E+005	2,5565162E+000	2,5572124E+000	1,444019526337303E-002	2,000000000000000E+000	-8,4016351E-003	41	3,6926645E-005
2	1	0	1	1	1,433360740273050E+005	2,5804994E+000	2,5811856E+000	1,369765188121999E-002	2,000000000000000E+000	-7,2732833E-003	41	3,5356181E-005
2	1	0	1	1	1,434160177398112E+005	2,6044824E+000	2,6051719E+000	1,307840774705513E-002	2,000000000000000E+000	-6,1998595E-003	41	3,4071501E-005
2	1	0	1	1	1,434959611523203E+005	2,6284654E+000	2,6291645E+000	1,260677047179262E-002	2,000000000000000E+000	-5,1696552E-003	41	3,3145272E-005
2	1	0	1	1	1,435759044648285E+005	2,6524484E+000	2,6531348E+000	1,210199537026790E-002	2,000000000000000E+000	-4,1772760E-003	41	3,2108226E-005
2	1	0	1	1	1,436558481773352E+005	2,6764314E+000	2,6771460E+000	1,155331871106718E-002	2,000000000000000E+000	-3,2277135E-003	41	3,0929921E-005
2	1	0	1	1	1,437357915898454E+005	2,7004144E+000	2,7011378E+000	1,107673553564340E-002	2,000000000000000E+000	-2,3199329E-003	41	2,9919789E-005
2	1	0	1	1	1,438157353023524E+005	2,7243972E+000	2,7250996E+000	1,070713484384256E-002	2,000000000000000E+000	-1,4456678E-003	41	2,9178009E-005
2	1	0	1	1	1,438956782148601E+005	2,7483804E+000	2,7491028E+000	1,044932717903843E-002	2,000000000000000E+000	-5,9646094E-004	41	2,8726276E-005
2	1	0	1	1	1,439756212273696E+005	2,7723629E+000	2,7730746E+000	1,029410098995162E-002	2,000000000000000E+000	2,3555986E-004	41	2,8546310E-005
2	1	0	1	1	1,440555649398756E+005	2,7963462E+000	2,7970617E+000	1,033346617530265E-002	2,000000000000000E+000	1,0628764E-003	41	2,8903341E-005
2	1	0	1	1	1,441355082523855E+005	2,8203294E+000	2,8210201E+000	1,059679450977785E-002	2,000000000000000E+000	1,9027494E-003	41	2,9893770E-005
2	1	0	1	1	1,442154520648930E+005	2,8443122E+000	2,8450379E+000	1,080799204286813E-002	2,000000000000000E+000	2,7637144E-003	41	3,0749146E-005
2	1	0	1	1	1,442953953774003E+005	2,8682952E+000	2,8690107E+000	1,073305341110775E-002	2,000000000000000E+000	3,6304861E-003	41	3,0793246E-005
2	1	0	1	1	1,443753386899102E+005	2,8922784E+000	2,8929732E+000	1,042684694139301E-002	2,000000000000000E+000	4,4816588E-003	41	3,0164589E-005
2	1	0	1	1	1,444552825024170E+005	2,9162612E+000	2,9169884E+000	1,006883940052035E-002	2,000000000000000E+000	5,3052669E-003	41	2,9370687E-005
2	1	0	1	1	1,445352258149246E+005	2,9402442E+000	2,9409397E+000	9,788902713244979E-003	2,000000000000000E+000	6,1024916E-003	41	2,8788572E-005
2	1	0	1	1	1,446151691274343E+005	2,9642270E+000	2,9649229E+000	9,658997155509719E-003	2,000000000000000E+000	6,8833441E-003	41	2,8638182E-005
2	1	0	1	1	1,446951125399405E+005	2,9882100E+000	2,9889047E+000	9,640172893005033E-003	2,000000000000000E+000	7,6590287E-003	41	2,8813558E-005
2	1	0	1	0	1,447693926515626E+005	2,9894092E+000	2,9901009E+000	6,699545603765233E-003	2,000000000000000E+000	8,3001787E-003	41	2,0032317E-005
2	1	0	1	0	1,448493360640719E+005	2,9654262E+000	2,9661191E+000	4,837728501525293E-003	2,000000000000000E+000	8,7494962E-003	42	1,4349279E-005
2	1	0	1	0	1,449292793765799E+005	2,9414432E+000	2,9421518E+000	3,765115167567945E-003	2,000000000000000E+000	9,0859430E-003	42	1,1077540E-005
2	1	0	1	0	1,450092227890869E+005	2,9174602E+000	2,9181352E+000	3,025560455801657E-003	2,000000000000000E+000	9,3516232E-003	42	8,8289944E-006
2	1	0	1	0	1,450891657015961E+005	2,8934772E+000	2,8941786E+000	2,491168628744041E-003	2,000000000000000E+000	9,5671285E-003	42	7,2098869E-006
2	1	0	1	0	1,451691086141038E+005	2,8694944E+000	2,8702185E+000	2,032540513605898E-003	2,000000000000000E+000	9,7432351E-003	42	5,8338355E-006
2	1	0	1	0	1,452490520266108E+005	2,8455112E+000	2,8462222E+000	1,662589558016285E-003	2,000000000000000E+000	9,8863132E-003	42	4,7320991E-006
2	1	0	1	0	1,453289945391207E+005	2,8215282E+000	2,8222120E+000	1,361251087655098E-003	2,000000000000000E+000	1,0002312E-002	42	3,8417393E-006
2	1	0	1	0	1,454089378516277E+005	2,7975454E+000	2,7982271E+000	1,127458777458424E-003	2,000000000000000E+000	1,0097404E-002	42	3,1548857E-006
2	1	0	1	0	1,454888808641355E+005	2,7735624E+000	2,7742481E+000	9,340825253808319E-004	2,000000000000000E+000	1,0175452E-002	42	2,5913766E-006
2	1	0	1	0	1,455688241766449E+005	2,7495794E+000	2,7502735E+000	7,573045287384526E-004	2,000000000000000E+000	1,0238825E-002	42	2,0827945E-006
2	1	0	1	0	1,456487674891514E+005	2,7255964E+000	2,7263148E+000	5,963787546974164E-004	2,000000000000000E+000	1,0288891E-002	42	1,6259162E-006
2	1	0	1	0	1,457287105016597E+005	2,7016134E+000	2,7023120E+000	4,378092512721541E-004	2,000000000000000E+000	1,0325833E-002	43	1,1830972E-006
2	1	0	1	0	1,458086538141689E+005	2,6776304E+000	2,6783264E+000	2,662280365012476E-004	2,000000000000000E+000	1,0349664E-002	43	7,1304555E-007
2	1	0	1	0	1,458885967266751E+005	2,6536474E+000	2,6543398E+000	5,025999961827832E-005	2,000000000000000E+000	1,0358091E-002	43	1,3340711E-007
2	0	0	1	0	1,459692061392874E+005	2,6294646E+000	2,6301479E+000	-2,126581027784612E-004	2,000000000000000E+000	1,0347197E-002	43	-5,5932225E-007
2	0	0	1	0	1,460491494517969E+005	2,6054816E+000	2,6061740E+000	-3,995569037222495E-004	2,000000000000000E+000	1,0317503E-002	43	-1,0413148E-006
2	0	0	1	0	1,461290923643047E+005	2,5814986E+000	2,5821967E+000	-4,708482943439393E-004	2,000000000000000E+000	1,0277838E-002	43	-1,2158229E-006
2	0	0	1	0	1,462090353768109E+005	2,5575156E+000	2,5582013E+000	-5,703482153603320E-004	2,000000000000000E+000	1,0232115E-002	43	-1,4590655E-006
2	0	0	1	0	1,462889778893208E+005	2,5335329E+000	2,5342236E+000	-7,263373111871235E-004	2,000000000000000E+000	1,0175722E-002	43	-1,8407011E-006
2	0	0	1	0	1,463689213018283E+005	2,5095499E+000	2,5102289E+000	-9,007811318431583E-004	2,000000000000000E+000	1,0106396E-002	42	-2,2611669E-006
2	0	0	1	0	1,464488646143358E+005	2,4855673E+000	2,4862421E+000	-1,073787308841678E-003	2,000000000000000E+000	1,0023413E-002	42	-2,6696953E-006
2	0	0	1	0	1,465288076268453E+005	2,4615841E+000	2,4622700E+000	-1,239618252405646E-003	2,000000000000000E+000	9,9266339E-003	42	-3,0522749E-006
2	0	0	1	0	1,466087509393525E+005	2,4376009E+000	2,4383063E+000	-1,423473282748194E-003	2,000000000000000E+000	9,8161576E-003	42	-3,4708639E-006
2	0	0	1	0	1,466886938518602E+005	2,4136183E+000	2,4143116E+000	-1,587913468333053E-003	2,000000000000000E+000	9,6919462E-003	42	-3,8337180E-006
2	0	0	1	0	1,467686372643698E+005	2,3896348E+000	2,3903193E+000	-1,749690561207620E-003	2,000000000000000E+000	9,5546162E-003	42	-4,1823191E-006
2	0	0	1	0	1,468485805768759E+005	2,3656521E+000	2,3663239E+000	-1,949307918444953E-003	2,000000000000000E+000	9,4029568E-003	42	-4,6126938E-006
2	0	0	1	0	1,469285234893854E+005	2,3416691E+000	2,3423653E+000	-2,163004548850093E-003	2,000000000000000E+000	9,2349509E-003	42	-5,0665467E-006
2	0	0	1	0	1,470084665018932E+005	2,3176861E+000	2,3184237E+000	-2,402507699046091E-003	2,000000000000000E+000	9,0488158E-003	42	-5,5700307E-006
2	0	0	1	0	1,470884094143999E+005	2,2937031E+000	2,2943964E+000	-2,660828303991614E-003	2,000000000000000E+000	8,8425092E-003	42	-6,1049950E-006
2	0	0	1	0	1,471683523269091E+005	2,2697203E+000	2,2704113E+000	-2,956470760259164E-003	2,000000000000000E+000	8,6139133E-003	42	-6,7124047E-006
2	0	0	1	0	1,472482957394172E+005	2,2457373E+000	2,2464342E+000	-3,281544520855342E-003	2,000000000000000E+000	8,3600618E-003	42	-7,3717738E-006
2	0	0	1	0	1,473282386519238E+005	2,2217541E+000	2,2224734E+000	-3,660117548179978E-003	2,000000000000000E+000	8,0782194E-003	42	-8,1345142E-006
2	0	0	1	0	1,474081820644340E+005	2,1977713E+000	2,1984758E+000	-4,087906726288434E-003	2,000000000000000E+000	7,7646351E-003	42	-8,9871637E-006
2	0	0	1	0	1,474881249769410E+005	2,1737883E+000	2,1744740E+000	-4,570819083611073E-003	2,000000000000000E+000	7,4148662E-003	42	-9,9391273E-006
2	0	0	1	0	1,475680682894480E+005	2,1498051E+000	2,1504905E+000	-5,109052600370013E-003	2,000000000000000E+000	7,0242654E-003	42	-1,0986969E-005
2	0	0	1	0	1,476480117019583E+005	2,1258221E+000	2,1265235E+000	-5,719406211543224E-003	2,000000000000000E+000	6,5875193E-003	42	-1,2162452E-005
2	0	0	1	0	1,477279546144644E+005	2,1018393E+000	2,1025281E+000	-6,404438955530157E-003	2,000000000000000E+000	6,0995664E-003	42	-1,3465513E-005
2	0	0	1	0	1,478078980269730E+005	2,0778563E+000	2,0785780E+000	-7,134421387930856E-003	2,000000000000000E+000	5,5544623E-003	42	-1,4829451E-005
2	0	0	1	0	1,478711827368760E+005	2,0588205E+000	2,0594761E+000	-7,910443610093382E-003	2,000000000000000E+000	5,0786505E-003	42	-1,6291369E-005