File: Dati/210416/CV_LTO-CB_07_CV_C05.mpt
EC-Lab ASCII FILE
Nb header lines : 57

Cyclic Voltammetry

Run on channel : 5 (SN 6809)
User : Seelab
Electrode connection : standard
Ewe ctrl range : min = 0,00 V, max = 5,00 V
Ewe,I filtering : 50 kHz
Safety Limits :
	Do not start on E overload
Channel : Grounded
Acquisition started on : 04/16/2021 18:38:45
Saved on :
	File : CV_LTO-CB_07_CV_C05.mpr
	Directory : C:\Users\labsuperfici\Desktop\Biologic\Users\Prisca Viviani\210416\
	Host : 10.78.33.0
Device : VSP-300 (SN 0638)
Address : USB
EC-Lab for windows v11.31 (software)
Internet server v11.30 (firmware)
Command interpretor v11.31 (firmware)
Electrode material :
Initial state :
Electrolyte :
Comments :
Cable : standard
Reference electrode : SCE Saturated Calomel Electrode (0,241 V)
Electrode surface area : 0,001 cm²
Characteristic mass : 0,001 g
Equivalent Weight : 0,000 g/eq.
Density : 0,000 g/cm3
Cycle Definition : Charge/Discharge alternance
Ei (V)              0,000
vs.                 Eoc
dE/dt               0,600
dE/dt unit          mV/s
E1 (V)              1,000
vs.                 Ref
Step percent        50
N                   10
E range min (V)     0,000
E range max (V)     5,000
I Range             Auto
I Range min         Unset
I Range max         Unset
I Range init        Unset
Bandwidth           8
E2 (V)              3,000
vs.                 Ref
nc cycles           1
Reverse Scan        1
Ef (V)              0,000
vs.                 Eoc

mode	ox/red	error	control changes	counter inc.	time/s	control/V	Ewe/V	<I>/mA	cycle number	(Q-Qo)/C	I Range	P/W
2	0	0	0	0	1,838715361695513E+005	2,0588205E+000	2,0595143E+000	-1,338431984186172E-002	1,000000000000000E+000	0,0000000E+000	41	-2,7565198E-005
2	0	0	1	0	1,839107579756891E+005	2,0352867E+000	2,0359807E+000	-1,476181443013766E-002	1,000000000000000E+000	-5,4163818E-004	41	-3,0054769E-005
2	0	0	1	0	1,839507296819445E+005	2,0113037E+000	2,0120537E+000	-1,678002854104677E-002	1,000000000000000E+000	-1,1758474E-003	41	-3,3762321E-005
2	0	0	1	0	1,839907015881975E+005	1,9873208E+000	1,9880368E+000	-1,890779288141076E-002	1,000000000000000E+000	-1,8932670E-003	41	-3,7589387E-005
2	0	0	1	0	1,840306730944511E+005	1,9633378E+000	1,9640318E+000	-2,117916294745809E-002	1,000000000000000E+000	-2,6982252E-003	41	-4,1596551E-005
2	0	0	1	0	1,840706448007040E+005	1,9393545E+000	1,9400425E+000	-2,361211175757631E-002	1,000000000000000E+000	-3,5968586E-003	41	-4,5808501E-005
2	0	0	1	0	1,841106164069590E+005	1,9153719E+000	1,9160767E+000	-2,627792348892033E-002	1,000000000000000E+000	-4,5971544E-003	41	-5,0350514E-005
2	0	0	1	0	1,841505880132141E+005	1,8913888E+000	1,8920857E+000	-2,929666524750918E-002	1,000000000000000E+000	-5,7113059E-003	41	-5,5431799E-005
2	0	0	1	0	1,841905597194682E+005	1,8674059E+000	1,8680855E+000	-3,256665625495081E-002	1,000000000000000E+000	-6,9508385E-003	41	-6,0837297E-005
2	0	0	1	0	1,842305313257216E+005	1,8434229E+000	1,8441129E+000	-3,620914862259983E-002	1,000000000000000E+000	-8,3282935E-003	41	-6,6773755E-005
2	0	0	1	0	1,842705029319744E+005	1,8194400E+000	1,8201432E+000	-4,026294450252893E-002	1,000000000000000E+000	-9,8594744E-003	41	-7,3284325E-005
2	0	0	1	0	1,843104745382289E+005	1,7954569E+000	1,7961588E+000	-4,478823580782687E-002	1,000000000000000E+000	-1,1561520E-002	41	-8,0446785E-005
2	0	0	1	0	1,843504462444838E+005	1,7714740E+000	1,7721992E+000	-4,980527459804240E-002	1,000000000000000E+000	-1,3454234E-002	41	-8,8264867E-005
2	0	0	1	0	1,843904178507389E+005	1,7474910E+000	1,7482055E+000	-5,540822595302897E-002	1,000000000000000E+000	-1,5559514E-002	41	-9,6864969E-005
2	0	0	1	0	1,844303895569916E+005	1,7235080E+000	1,7241924E+000	-6,158281192023929E-002	1,000000000000000E+000	-1,7899398E-002	41	-1,0618062E-004
2	0	0	1	0	1,844703610632455E+005	1,6995250E+000	1,7002374E+000	-6,837694187011634E-002	1,000000000000000E+000	-2,0498130E-002	41	-1,1625703E-004
2	0	0	1	0	1,845103327694987E+005	1,6755421E+000	1,6762298E+000	-7,580142984273341E-002	1,000000000000000E+000	-2,3380371E-002	41	-1,2706062E-004
2	0	0	1	0	1,845503045757534E+005	1,6515590E+000	1,6522478E+000	-8,387211009356130E-002	1,000000000000000E+000	-2,6573911E-002	41	-1,3857751E-004
2	0	0	1	0	1,845902760820086E+005	1,6275762E+000	1,6282567E+000	-9,280358966492772E-002	1,000000000000000E+000	-3,0106753E-002	41	-1,5110806E-004
2	0	0	1	0	1,846302477882623E+005	1,6035931E+000	1,6042769E+000	-1,026934309399733E-001	1,000000000000000E+000	-3,4016434E-002	40	-1,6474869E-004
2	0	0	1	0	1,846702194945157E+005	1,5796100E+000	1,5803027E+000	-1,142024481516138E-001	1,000000000000000E+000	-3,8352214E-002	40	-1,8047444E-004
2	0	0	1	0	1,847101910007682E+005	1,5556272E+000	1,5563244E+000	-1,278169314570947E-001	1,000000000000000E+000	-4,3188993E-002	40	-1,9892461E-004
2	0	0	1	0	1,847501626070235E+005	1,5316441E+000	1,5323350E+000	-1,434304735101626E-001	1,000000000000000E+000	-4,8607077E-002	40	-2,1978354E-004
2	0	0	1	0	1,847901343132784E+005	1,5076612E+000	1,5083548E+000	-1,619491144431008E-001	1,000000000000000E+000	-5,4705139E-002	40	-2,4427671E-004
2	0	0	1	0	1,848301059195332E+005	1,4836783E+000	1,4843643E+000	-1,823379842424885E-001	1,000000000000000E+000	-6,1589241E-002	40	-2,7065599E-004
2	0	0	1	0	1,848700776257858E+005	1,4596953E+000	1,4603806E+000	-2,013113852233026E-001	1,000000000000000E+000	-6,9273338E-002	40	-2,9399124E-004
2	0	0	1	0	1,849100492320394E+005	1,4357122E+000	1,4364127E+000	-2,161813907256382E-001	1,000000000000000E+000	-7,7638060E-002	40	-3,1052571E-004
2	0	0	1	0	1,849500207382930E+005	1,4117295E+000	1,4123991E+000	-2,256664267807760E-001	1,000000000000000E+000	-8,6489931E-002	40	-3,1873104E-004
2	0	0	1	0	1,849899924445483E+005	1,3877466E+000	1,3884363E+000	-2,316378224596333E-001	1,000000000000000E+000	-9,5635638E-002	40	-3,2161435E-004
2	0	0	1	0	1,850299641508032E+005	1,3637632E+000	1,3644595E+000	-2,363018108119096E-001	1,000000000000000E+000	-1,0499793E-001	40	-3,2242425E-004
2	0	0	1	0	1,850699356570564E+005	1,3397806E+000	1,3404571E+000	-2,389535770404451E-001	1,000000000000000E+000	-1,1450707E-001	40	-3,2030701E-004
2	0	0	1	0	1,851099073633099E+005	1,3157976E+000	1,3165109E+000	-2,397453790573684E-001	1,000000000000000E+000	-1,2408213E-001	40	-3,1562740E-004
2	0	0	1	0	1,851498789695632E+005	1,2918146E+000	1,2924837E+000	-2,388059300163499E-001	1,000000000000000E+000	-1,3365445E-001	40	-3,0865276E-004
2	0	0	1	0	1,851898505758177E+005	1,2678316E+000	1,2685190E+000	-2,361429538264543E-001	1,000000000000000E+000	-1,4315560E-001	40	-2,9955184E-004
2	0	0	1	0	1,852298222820731E+005	1,2438487E+000	1,2445484E+000	-2,324809499574645E-001	1,000000000000000E+000	-1,5252970E-001	40	-2,8933381E-004
2	0	0	1	0	1,852697938883272E+005	1,2198657E+000	1,2205684E+000	-2,277410862774181E-001	1,000000000000000E+000	-1,6173390E-001	40	-2,7797357E-004
2	0	0	1	0	1,853097654945804E+005	1,1958828E+000	1,1966040E+000	-2,221944276570236E-001	1,000000000000000E+000	-1,7073125E-001	40	-2,6587874E-004
2	0	0	1	0	1,853497371008333E+005	1,1718998E+000	1,1726291E+000	-2,162964839987964E-001	1,000000000000000E+000	-1,7950015E-001	40	-2,5363555E-004
2	0	0	1	0	1,853897088070875E+005	1,1479167E+000	1,1486219E+000	-2,100521193034816E-001	1,000000000000000E+000	-1,8802428E-001	40	-2,4127046E-004
2	0	0	1	0	1,854296804133425E+005	1,1239337E+000	1,1246560E+000	-2,037945612990510E-001	1,000000000000000E+000	-1,9629902E-001	40	-2,2919876E-004
2	0	0	1	0	1,854696520195981E+005	1,0999508E+000	1,1006547E+000	-1,977167823587274E-001	1,000000000000000E+000	-2,0432614E-001	40	-2,1761791E-004
2	0	0	1	0	1,855096237258505E+005	1,0759678E+000	1,0766972E+000	-1,918307467011693E-001	1,000000000000000E+000	-2,1211372E-001	40	-2,0654363E-004
2	0	0	1	0	1,855495952321043E+005	1,0519848E+000	1,0527172E+000	-1,863381388716825E-001	1,000000000000000E+000	-2,1967311E-001	40	-1,9616136E-004
2	0	0	1	0	1,855895669383574E+005	1,0280018E+000	1,0287213E+000	-1,812707446812010E-001	1,000000000000000E+000	-2,2702166E-001	40	-1,8647707E-004
2	0	0	1	0	1,856295386446128E+005	1,0040188E+000	1,0047652E+000	-1,766725220444947E-001	1,000000000000000E+000	-2,3417662E-001	40	-1,7751439E-004
2	0	0	1	0	1,856671791505022E+005	1,0185086E+000	1,0192443E+000	-1,455512757475184E-001	1,000000000000000E+000	-2,4023813E-001	40	-1,4835231E-004
2	0	0	1	0	1,857071508567566E+005	1,0424916E+000	1,0432150E+000	-1,246071704187626E-001	1,000000000000000E+000	-2,4560715E-001	40	-1,2999207E-004
2	0	0	1	0	1,857471223630107E+005	1,0664744E+000	1,0672065E+000	-1,092741560395379E-001	1,000000000000000E+000	-2,5026485E-001	40	-1,1661809E-004
2	0	0	1	0	1,857870941692639E+005	1,0904576E+000	1,0912237E+000	-9,702344389578121E-002	1,000000000000000E+000	-2,5437686E-001	40	-1,0587429E-004
2	0	0	1	0	1,858270656755168E+005	1,1144404E+000	1,1151720E+000	-8,676799087709464E-002	1,000000000000000E+000	-2,5804114E-001	40	-9,6761236E-005
2	0	0	1	0	1,858670373817715E+005	1,1384233E+000	1,1391546E+000	-7,799015056288527E-002	1,000000000000000E+000	-2,6132700E-001	40	-8,8842833E-005
2	0	0	1	0	1,859070090880264E+005	1,1624064E+000	1,1631317E+000	-7,032444421165240E-002	1,000000000000000E+000	-2,6428524E-001	40	-8,1796592E-005
2	0	0	1	0	1,859469805942813E+005	1,1863894E+000	1,1871026E+000	-6,358868577385146E-002	1,000000000000000E+000	-2,6695600E-001	40	-7,5486292E-005
2	0	0	1	0	1,859869523005344E+005	1,2103722E+000	1,2111017E+000	-5,755579248567733E-002	1,000000000000000E+000	-2,6937160E-001	40	-6,9705915E-005
2	0	0	1	0	1,860269241067874E+005	1,2343552E+000	1,2350680E+000	-5,211691723421086E-002	1,000000000000000E+000	-2,7155879E-001	40	-6,4367938E-005
2	0	0	1	0	1,860668957130411E+005	1,2583383E+000	1,2590361E+000	-4,722199003444638E-002	1,000000000000000E+000	-2,7353877E-001	41	-5,9454189E-005
2	0	0	1	0	1,861068674192964E+005	1,2823212E+000	1,2830181E+000	-4,244859452500682E-002	1,000000000000000E+000	-2,7532735E-001	41	-5,4462314E-005
2	0	0	1	0	1,861468390255519E+005	1,3063042E+000	1,3070265E+000	-3,779337248188075E-002	1,000000000000000E+000	-2,7692756E-001	41	-4,9396938E-005
2	0	0	1	0	1,861868106318045E+005	1,3302872E+000	1,3309904E+000	-3,312113881527475E-002	1,000000000000000E+000	-2,7834210E-001	41	-4,4083918E-005
2	0	0	1	0	1,862267824380583E+005	1,3542701E+000	1,3549777E+000	-2,837311849749696E-002	1,000000000000000E+000	-2,7956834E-001	41	-3,8444945E-005
2	0	0	1	0	1,862667541443114E+005	1,3782532E+000	1,3789513E+000	-2,343024586345910E-002	1,000000000000000E+000	-2,8060114E-001	41	-3,2309170E-005
2	0	0	1	0	1,863067257505660E+005	1,4022361E+000	1,4029371E+000	-1,822796468957821E-002	1,000000000000000E+000	-2,8143179E-001	41	-2,5572686E-005
2	0	0	1	0	1,863466973568210E+005	1,4262191E+000	1,4269146E+000	-1,270730327808386E-002	1,000000000000000E+000	-2,8204843E-001	41	-1,8132236E-005
2	0	0	1	0	1,863866690630754E+005	1,4502022E+000	1,4508904E+000	-6,809058854402153E-003	1,000000000000000E+000	-2,8243691E-001	41	-9,8791979E-006
2	0	0	1	0	1,864266407693285E+005	1,4741851E+000	1,4748894E+000	-4,073880662894547E-004	1,000000000000000E+000	-2,8257978E-001	42	-6,0085233E-007
2	1	0	1	0	1,864666124755812E+005	1,4981681E+000	1,4988768E+000	6,578509694543465E-003	1,000000000000000E+000	-2,8245577E-001	42	9,8603759E-006
2	1	0	1	0	1,865065841818359E+005	1,5221511E+000	1,5228685E+000	1,427702746120579E-002	1,000000000000000E+000	-2,8203923E-001	41	2,1742035E-005
2	1	0	1	0	1,865465556880911E+005	1,5461341E+000	1,5468428E+000	2,297843371549629E-002	1,000000000000000E+000	-2,8129643E-001	41	3,5544024E-005
2	1	0	1	0	1,865865273943462E+005	1,5701169E+000	1,5708295E+000	3,310647677326461E-002	1,000000000000000E+000	-2,8017724E-001	41	5,2004631E-005
2	1	0	1	0	1,866264992005986E+005	1,5940999E+000	1,5948077E+000	4,561026281575364E-002	1,000000000000000E+000	-2,7861363E-001	41	7,2739604E-005
2	1	0	1	0	1,866664708068522E+005	1,6180829E+000	1,6187954E+000	6,603723857652022E-002	1,000000000000000E+000	-2,7641571E-001	41	1,0690078E-004
2	1	0	1	0	1,867064425131059E+005	1,6420658E+000	1,6427733E+000	9,492189342561175E-002	1,000000000000000E+000	-2,7321208E-001	41	1,5593515E-004
2	1	0	1	0	1,867464141193614E+005	1,6660489E+000	1,6667564E+000	1,277670585541415E-001	1,000000000000000E+000	-2,6876894E-001	40	2,1295655E-004
2	1	0	1	0	1,867863858256158E+005	1,6900318E+000	1,6907353E+000	1,647705732871375E-001	1,000000000000000E+000	-2,6293352E-001	40	2,7858344E-004
2	1	0	1	0	1,868263576318691E+005	1,7140146E+000	1,7147403E+000	2,066144114884878E-001	1,000000000000000E+000	-2,5552079E-001	40	3,5429007E-004
2	1	0	1	0	1,868663293381227E+005	1,7379979E+000	1,7387099E+000	2,520728700367438E-001	1,000000000000000E+000	-2,4635643E-001	40	4,3828160E-004
2	1	0	1	0	1,869063008443760E+005	1,7619805E+000	1,7627168E+000	2,990629433897514E-001	1,000000000000000E+000	-2,3533437E-001	40	5,2716327E-004
2	1	0	1	0	1,869462725506308E+005	1,7859638E+000	1,7866935E+000	3,442422116557478E-001	1,000000000000000E+000	-2,2245781E-001	40	6,1505532E-004
2	1	0	1	0	1,869862442568857E+005	1,8099467E+000	1,8106630E+000	3,826861448767063E-001	1,000000000000000E+000	-2,0789403E-001	40	6,9291564E-004
2	1	0	1	0	1,870262159631399E+005	1,8339294E+000	1,8346593E+000	4,095015971805900E-001	1,000000000000000E+000	-1,9200909E-001	40	7,5129594E-004
2	1	0	1	0	1,870661875693932E+005	1,8579125E+000	1,8586398E+000	4,208011930372101E-001	1,000000000000000E+000	-1,7536002E-001	40	7,8211789E-004
2	1	0	1	0	1,871061592756459E+005	1,8818955E+000	1,8826401E+000	4,167824237210978E-001	1,000000000000000E+000	-1,5856512E-001	40	7,8465132E-004
2	1	0	1	0	1,871461308819004E+005	1,9058784E+000	1,9065922E+000	3,982941684632610E-001	1,000000000000000E+000	-1,4222942E-001	40	7,5938459E-004
2	1	0	1	0	1,871861025881558E+005	1,9298617E+000	1,9305841E+000	3,690176430835184E-001	1,000000000000000E+000	-1,2685868E-001	40	7,1241957E-004
2	1	0	1	0	1,872260743944107E+005	1,9538443E+000	1,9545616E+000	3,334529662899386E-001	1,000000000000000E+000	-1,1280122E-001	40	6,5175438E-004
2	1	0	1	0	1,872660459006632E+005	1,9778273E+000	1,9785640E+000	2,960182432130343E-001	1,000000000000000E+000	-1,0021611E-001	40	5,8569107E-004
2	1	0	1	0	1,873060177069169E+005	2,0018103E+000	2,0025353E+000	2,594172441875457E-001	1,000000000000000E+000	-8,9120768E-002	40	5,1949220E-004
2	1	0	1	0	1,873459893131703E+005	2,0257931E+000	2,0265143E+000	2,257932373777898E-001	1,000000000000000E+000	-7,9431944E-002	40	4,5757322E-004
2	1	0	1	0	1,873859610194257E+005	2,0497763E+000	2,0504963E+000	1,956782047040099E-001	1,000000000000000E+000	-7,1017347E-002	40	4,0123746E-004
2	1	0	1	0	1,874259329256807E+005	2,0737593E+000	2,0744705E+000	1,693356160925654E-001	1,000000000000000E+000	-6,3730270E-002	40	3,5128175E-004
2	1	0	1	0	1,874659045319339E+005	2,0977421E+000	2,0984342E+000	1,464124172302875E-001	1,000000000000000E+000	-5,7427052E-002	40	3,0723683E-004
2	1	0	1	0	1,875058762381874E+005	2,1217253E+000	2,1224272E+000	1,268911323874589E-001	1,000000000000000E+000	-5,1971406E-002	40	2,6931718E-004
2	1	0	1	0	1,875458479444399E+005	2,1457083E+000	2,1463943E+000	1,104968001622137E-001	1,000000000000000E+000	-4,7232389E-002	40	2,3716969E-004
2	1	0	1	0	1,875858195506954E+005	2,1696911E+000	2,1703629E+000	9,689796751531241E-002	1,000000000000000E+000	-4,3092713E-002	40	2,1030376E-004
2	1	0	1	0	1,876257913569505E+005	2,1936741E+000	2,1943450E+000	8,564623392544235E-002	1,000000000000000E+000	-3,9448127E-002	40	1,8793739E-004
2	1	0	1	0	1,876657631632043E+005	2,2176571E+000	2,2183559E+000	7,640031105596723E-002	1,000000000000000E+000	-3,6211289E-002	40	1,6948309E-004
2	1	0	1	0	1,877057345694574E+005	2,2416399E+000	2,2423048E+000	6,870304031541702E-002	1,000000000000000E+000	-3,3311933E-002	40	1,5405315E-004
2	1	0	1	0	1,877457062757108E+005	2,2656231E+000	2,2663248E+000	6,225178827355493E-002	1,000000000000000E+000	-3,0694235E-002	40	1,4108277E-004
2	1	0	1	0	1,877856779819652E+005	2,2896059E+000	2,2903001E+000	5,680300416304351E-002	1,000000000000000E+000	-2,8313514E-002	40	1,3009593E-004
2	1	0	1	0	1,878256499882205E+005	2,3135889E+000	2,3142655E+000	5,215005414026441E-002	1,000000000000000E+000	-2,6134718E-002	40	1,2068907E-004
2	1	0	1	0	1,878657881944999E+005	2,3376720E+000	2,3383679E+000	4,803405983163822E-002	1,000000000000000E+000	-2,4119668E-002	41	1,1232131E-004
2	1	0	1	0	1,879057598007550E+005	2,3616548E+000	2,3623471E+000	4,458190630692305E-002	1,000000000000000E+000	-2,2265954E-002	41	1,0531794E-004
2	1	0	1	0	1,879457315070089E+005	2,3856380E+000	2,3863358E+000	4,159156871333958E-002	1,000000000000000E+000	-2,0540511E-002	41	9,9251454E-005
2	1	0	1	0	1,879857032132622E+005	2,4096208E+000	2,4103251E+000	3,905940834350558E-002	1,000000000000000E+000	-1,8925317E-002	41	9,4145871E-005
2	1	0	1	0	1,880256752195151E+005	2,4336035E+000	2,4342964E+000	3,691389690961189E-002	1,000000000000000E+000	-1,7403640E-002	41	8,9859364E-005
2	1	0	1	0	1,880656469257697E+005	2,4575868E+000	2,4582806E+000	3,497437812509213E-002	1,000000000000000E+000	-1,5963105E-002	41	8,5976833E-005
2	1	0	1	0	1,881056186320246E+005	2,4815695E+000	2,4822538E+000	3,312374965733711E-002	1,000000000000000E+000	-1,4598173E-002	41	8,2221552E-005
2	1	0	1	0	1,881455900382798E+005	2,5055525E+000	2,5062444E+000	3,135845156915074E-002	1,000000000000000E+000	-1,3305804E-002	41	7,8591947E-005
2	1	0	1	0	1,881855618445325E+005	2,5295355E+000	2,5302505E+000	2,973914835508690E-002	1,000000000000000E+000	-1,2080857E-002	41	7,5247495E-005
2	1	0	1	0	1,882255336507855E+005	2,5535185E+000	2,5542190E+000	2,823897382198209E-002	1,000000000000000E+000	-1,0917957E-002	41	7,2128525E-005
2	1	0	1	0	1,882655052570393E+005	2,5775013E+000	2,5782015E+000	2,686887542287575E-002	1,000000000000000E+000	-9,8126894E-003	41	6,9273374E-005
2	1	0	1	0	1,883054769632951E+005	2,6014848E+000	2,6021750E+000	2,568173779391564E-002	1,000000000000000E+000	-8,7589817E-003	41	6,6828376E-005
2	1	0	1	0	1,883454486695500E+005	2,6254675E+000	2,6261809E+000	2,478719472097873E-002	1,000000000000000E+000	-7,7468152E-003	41	6,5095657E-005
2	1	0	1	0	1,883854202758026E+005	2,6494505E+000	2,6501236E+000	2,381705209757301E-002	1,000000000000000E+000	-6,7706495E-003	41	6,3118132E-005
2	1	0	1	0	1,884253923820563E+005	2,6734338E+000	2,6741240E+000	2,271994738655828E-002	1,000000000000000E+000	-5,8361422E-003	41	6,0755956E-005
2	1	0	1	0	1,884653640883095E+005	2,6974161E+000	2,6980779E+000	2,168917037829476E-002	1,000000000000000E+000	-4,9450211E-003	41	5,8519072E-005
2	1	0	1	0	1,885053356945654E+005	2,7213993E+000	2,7220814E+000	2,086927852734555E-002	1,000000000000000E+000	-4,0908456E-003	41	5,6807876E-005
2	1	0	1	0	1,885453073008196E+005	2,7453823E+000	2,7460680E+000	2,022345589695101E-002	1,000000000000000E+000	-3,2660649E-003	41	5,5534983E-005
2	1	0	1	0	1,885852789070732E+005	2,7693651E+000	2,7700162E+000	1,974126895101601E-002	1,000000000000000E+000	-2,4640078E-003	41	5,4683635E-005
2	1	0	1	0	1,886252507133267E+005	2,7933483E+000	2,7940416E+000	1,946123358853166E-002	1,000000000000000E+000	-1,6768556E-003	41	5,4375498E-005
2	1	0	1	0	1,886652225195798E+005	2,8173311E+000	2,8180084E+000	1,946460109558829E-002	1,000000000000000E+000	-8,9525094E-004	41	5,4851411E-005
2	1	0	1	0	1,887051941258344E+005	2,8413143E+000	2,8420081E+000	1,946256486227849E-002	1,000000000000000E+000	-1,1256910E-004	41	5,5312768E-005
2	1	0	1	0	1,887451658320897E+005	2,8652976E+000	2,8659897E+000	1,915716919384283E-002	1,000000000000000E+000	6,6417328E-004	41	5,4904249E-005
2	1	0	1	0	1,887851375383439E+005	2,8892801E+000	2,8899724E+000	1,874213638626890E-002	1,000000000000000E+000	1,4259301E-003	41	5,4164258E-005
2	1	0	1	0	1,888251095445972E+005	2,9132633E+000	2,9139330E+000	1,829912945933349E-002	1,000000000000000E+000	2,1703835E-003	41	5,3322437E-005
2	1	0	1	0	1,888650812508499E+005	2,9372466E+000	2,9379597E+000	1,779437576957965E-002	1,000000000000000E+000	2,8963257E-003	41	5,2279160E-005
2	1	0	1	0	1,889050529571045E+005	2,9612291E+000	2,9619298E+000	1,735683016593437E-002	1,000000000000000E+000	3,6026493E-003	41	5,1409712E-005
2	1	0	1	0	1,889450243633594E+005	2,9852121E+000	2,9859188E+000	1,705207719808158E-002	1,000000000000000E+000	4,2942571E-003	41	5,0916118E-005
2	1	0	1	1	1,889821645691702E+005	2,9924068E+000	2,9931061E+000	1,232259674413705E-002	1,000000000000000E+000	4,8835720E-003	41	3,6882841E-005
2	1	0	1	1	1,890221362754256E+005	2,9684241E+000	2,9691248E+000	8,868541715857992E-003	1,000000000000000E+000	5,2943090E-003	41	2,6331807E-005
2	1	0	1	1	1,890621079816782E+005	2,9444408E+000	2,9451282E+000	6,898558490013459E-003	1,000000000000000E+000	5,6023523E-003	41	2,0317138E-005
2	1	0	1	1	1,891020795879321E+005	2,9204578E+000	2,9211271E+000	5,533924160490644E-003	1,000000000000000E+000	5,8451449E-003	41	1,6165295E-005
2	1	0	1	1	1,891420512941852E+005	2,8964751E+000	2,8971953E+000	4,515010902973370E-003	1,000000000000000E+000	6,0408879E-003	42	1,3080868E-005
2	1	0	1	1	1,891820228004404E+005	2,8724918E+000	2,8731887E+000	3,672211787330341E-003	1,000000000000000E+000	6,1997077E-003	42	1,0550957E-005
2	1	0	1	1	1,892219944066950E+005	2,8485088E+000	2,8491764E+000	2,998791942192700E-003	1,000000000000000E+000	6,3284626E-003	42	8,5440870E-006
2	1	0	1	1	1,892619659129493E+005	2,8245265E+000	2,8252037E+000	2,451241492980774E-003	1,000000000000000E+000	6,4328262E-003	42	6,9252565E-006
2	1	0	1	1	1,893019376192024E+005	2,8005431E+000	2,8012404E+000	2,008864384238158E-003	1,000000000000000E+000	6,5178717E-003	42	5,6273120E-006
2	1	0	1	1	1,893419092254555E+005	2,7765603E+000	2,7772734E+000	1,654451287863186E-003	1,000000000000000E+000	6,5871351E-003	42	4,5948636E-006
2	1	0	1	1	1,893818809317099E+005	2,7525773E+000	2,7532532E+000	1,331729000257426E-003	1,000000000000000E+000	6,6426382E-003	42	3,6665872E-006
2	1	0	1	1	1,894218526379648E+005	2,7285941E+000	2,7292800E+000	1,026937471657909E-003	1,000000000000000E+000	6,6856593E-003	42	2,8027998E-006
2	1	0	1	1	1,894618242442198E+005	2,7046113E+000	2,7053034E+000	7,377925885280624E-004	1,000000000000000E+000	6,7165922E-003	42	1,9959527E-006
2	1	0	1	1	1,895017959504729E+005	2,6806283E+000	2,6813347E+000	4,325533491420753E-004	1,000000000000000E+000	6,7358045E-003	43	1,1598203E-006
2	1	0	1	1	1,895421006567786E+005	2,6564455E+000	2,6571069E+000	4,857576832465729E-005	1,000000000000000E+000	6,7414441E-003	43	1,2907101E-007
2	0	0	1	1	1,895820722630336E+005	2,6324625E+000	2,6331232E+000	-4,275955634123075E-004	1,000000000000000E+000	6,7299828E-003	43	-1,1259118E-006
2	0	0	1	1	1,896220439692875E+005	2,6084795E+000	2,6091487E+000	-8,585189727810805E-004	1,000000000000000E+000	6,6997213E-003	42	-2,2400036E-006
2	0	0	1	1	1,896620156755409E+005	2,5844967E+000	2,5851660E+000	-1,018577170881552E-003	1,000000000000000E+000	6,6578253E-003	42	-2,6331911E-006
2	0	0	1	1	1,897019870817941E+005	2,5605135E+000	2,5611987E+000	-1,131278309749136E-003	1,000000000000000E+000	6,6110217E-003	42	-2,8974287E-006
2	0	0	1	1	1,897419587880485E+005	2,5365305E+000	2,5372026E+000	-1,381651186067607E-003	1,000000000000000E+000	6,5569323E-003	42	-3,5055289E-006
2	0	0	1	1	1,897819302943028E+005	2,5125477E+000	2,5132325E+000	-1,682836264237802E-003	1,000000000000000E+000	6,4917672E-003	42	-4,2293586E-006
2	0	0	1	1	1,898219019005583E+005	2,4885650E+000	2,4892511E+000	-1,985571127445286E-003	1,000000000000000E+000	6,4143995E-003	42	-4,9425853E-006
2	0	0	1	1	1,898618737068111E+005	2,4645815E+000	2,4652495E+000	-2,299328111751523E-003	1,000000000000000E+000	6,3249040E-003	42	-5,6684175E-006
2	0	0	1	1	1,899018453130648E+005	2,4405990E+000	2,4412682E+000	-2,611780349506813E-003	1,000000000000000E+000	6,2227007E-003	42	-6,3760563E-006
2	0	0	1	1	1,899418169193175E+005	2,4166157E+000	2,4172974E+000	-2,909030127112688E-003	1,000000000000000E+000	6,1079245E-003	42	-7,0319907E-006
2	0	0	1	1	1,899817887255726E+005	2,3926325E+000	2,3933156E+000	-3,206516410286162E-003	1,000000000000000E+000	5,9812958E-003	42	-7,6742053E-006
2	0	0	1	1	1,900217603318281E+005	2,3686500E+000	2,3693457E+000	-3,531434696687402E-003	1,000000000000000E+000	5,8424985E-003	42	-8,3671894E-006
2	0	0	1	1	1,900617320380819E+005	2,3446670E+000	2,3453171E+000	-3,930856952923112E-003	1,000000000000000E+000	5,6892168E-003	42	-9,2191058E-006
2	0	0	1	1	1,901017035443349E+005	2,3206840E+000	2,3213859E+000	-4,377181255908143E-003	1,000000000000000E+000	5,5192756E-003	42	-1,0161127E-005
2	0	0	1	1	1,901416751505882E+005	2,2967010E+000	2,2974083E+000	-4,866401675770455E-003	1,000000000000000E+000	5,3304946E-003	42	-1,1180112E-005
2	0	0	1	1	1,901816468568430E+005	2,2727177E+000	2,2734137E+000	-5,416938480734101E-003	1,000000000000000E+000	5,1209866E-003	42	-1,2314942E-005
2	0	0	1	1	1,902216183630978E+005	2,2487350E+000	2,2494199E+000	-6,024653299562768E-003	1,000000000000000E+000	4,8884694E-003	42	-1,3551975E-005
2	0	0	1	1	1,902615899693524E+005	2,2247519E+000	2,2254419E+000	-6,694024131113474E-003	1,000000000000000E+000	4,6300455E-003	42	-1,4897162E-005
2	0	0	1	1	1,903015616756055E+005	2,2007689E+000	2,2014480E+000	-7,451998756292100E-003	1,000000000000000E+000	4,3428941E-003	42	-1,6405187E-005
2	0	0	1	1	1,903415333818588E+005	2,1767859E+000	2,1775019E+000	-8,305381683479413E-003	1,000000000000000E+000	4,0237447E-003	42	-1,8084984E-005
2	0	0	1	1	1,903815049881120E+005	2,1528029E+000	2,1535060E+000	-9,265640536627734E-003	1,000000000000000E+000	3,6683246E-003	42	-1,9953613E-005
2	0	0	1	1	1,904214766943674E+005	2,1288202E+000	2,1295412E+000	-1,031364039636770E-002	1,000000000000000E+000	3,2727318E-003	41	-2,1963322E-005
2	0	0	1	1	1,904614484006227E+005	2,1048369E+000	2,1055136E+000	-1,152555993175441E-002	1,000000000000000E+000	2,8319999E-003	41	-2,4267223E-005
2	0	0	1	1	1,905014200068759E+005	2,0808539E+000	2,0815785E+000	-1,284974746424269E-002	1,000000000000000E+000	2,3408886E-003	41	-2,6747757E-005
2	0	0	1	1	1,905392264127908E+005	2,0581701E+000	2,0588789E+000	-1,425087788945967E-002	2,000000000000000E+000	1,8251603E-003	41	-2,9340832E-005
2	0	0	1	1	1,905791981190462E+005	2,0341873E+000	2,0348957E+000	-1,586121467151289E-002	2,000000000000000E+000	1,2198958E-003	41	-3,2275915E-005
2	0	0	1	1	1,906191698252994E+005	2,0102041E+000	2,0109291E+000	-1,766250703931049E-002	2,000000000000000E+000	5,4628414E-004	41	-3,5518049E-005
2	0	0	1	1	1,906591413315525E+005	1,9862217E+000	1,9869184E+000	-1,961971603249116E-002	2,000000000000000E+000	-2,0263690E-004	41	-3,8982776E-005
2	0	0	1	1	1,906991131378056E+005	1,9622386E+000	1,9629523E+000	-2,178328674186251E-002	2,000000000000000E+000	-1,0343214E-003	41	-4,2759551E-005
2	0	0	1	1	1,907390846440606E+005	1,9382553E+000	1,9389715E+000	-2,418576307799769E-002	2,000000000000000E+000	-1,9567139E-003	41	-4,6895504E-005
2	0	0	1	1	1,907790562503156E+005	1,9142725E+000	1,9150085E+000	-2,681496430535046E-002	2,000000000000000E+000	-2,9788297E-003	41	-5,1350886E-005
2	0	0	1	1	1,908190280565699E+005	1,8902894E+000	1,8909838E+000	-2,979530141788667E-002	2,000000000000000E+000	-4,1131340E-003	41	-5,6342433E-005
2	0	0	1	1	1,908589995628232E+005	1,8663067E+000	1,8669980E+000	-3,306899523461843E-002	2,000000000000000E+000	-5,3727031E-003	41	-6,1739745E-005
2	0	0	1	1	1,908989712690765E+005	1,8423235E+000	1,8430058E+000	-3,674247221393745E-002	2,000000000000000E+000	-6,7712464E-003	41	-6,7716588E-005
2	0	0	1	1	1,909389428753303E+005	1,8183404E+000	1,8190509E+000	-4,080636765750653E-002	2,000000000000000E+000	-8,3239237E-003	41	-7,4228861E-005
2	0	0	1	1	1,909789144815849E+005	1,7943577E+000	1,7950799E+000	-4,537312138332705E-002	2,000000000000000E+000	-1,0049295E-002	41	-8,1448379E-005
2	0	0	1	1	1,910188861878407E+005	1,7703747E+000	1,7710975E+000	-5,046174601454645E-002	2,000000000000000E+000	-1,1967707E-002	41	-8,9372676E-005
2	0	0	1	1	1,910588577940934E+005	1,7463917E+000	1,7471097E+000	-5,611615413870541E-002	2,000000000000000E+000	-1,4099823E-002	41	-9,8041077E-005
2	0	0	1	1	1,910988294003472E+005	1,7224089E+000	1,7231326E+000	-6,232707475657517E-002	2,000000000000000E+000	-1,6469650E-002	41	-1,0739781E-004
2	0	0	1	1	1,911388010065998E+005	1,6984258E+000	1,6991519E+000	-6,924485355606913E-002	2,000000000000000E+000	-1,9102121E-002	41	-1,1765752E-004
2	0	0	1	1	1,911787728128554E+005	1,6744428E+000	1,6751138E+000	-7,682102308986849E-002	2,000000000000000E+000	-2,2024283E-002	41	-1,2868395E-004
2	0	0	1	1	1,912187443191102E+005	1,6504599E+000	1,6511470E+000	-8,506261812146021E-002	2,000000000000000E+000	-2,5261668E-002	41	-1,4045088E-004
2	0	0	1	1	1,912587160253644E+005	1,6264769E+000	1,6271561E+000	-9,420671339579770E-002	2,000000000000000E+000	-2,8845927E-002	41	-1,5328903E-004
2	0	0	1	1	1,912986877316172E+005	1,6024938E+000	1,6032008E+000	-1,043106298978561E-001	2,000000000000000E+000	-3,2815423E-002	40	-1,6723089E-004
2	0	0	1	1	1,913386592378707E+005	1,5785111E+000	1,5792315E+000	-1,162980686258832E-001	2,000000000000000E+000	-3,7223488E-002	40	-1,8366157E-004
2	0	0	1	1	1,913786309441249E+005	1,5545279E+000	1,5552291E+000	-1,302395163186514E-001	2,000000000000000E+000	-4,2148855E-002	40	-2,0255228E-004
2	0	0	1	1	1,914186025503799E+005	1,5305450E+000	1,5312258E+000	-1,466075292163147E-001	2,000000000000000E+000	-4,7678471E-002	40	-2,2448924E-004
2	0	0	1	1	1,914585741566345E+005	1,5065621E+000	1,5072762E+000	-1,659752530542913E-001	2,000000000000000E+000	-5,3919077E-002	40	-2,5017053E-004
2	0	0	1	1	1,914985458628879E+005	1,4825791E+000	1,4832977E+000	-1,871074531598698E-001	2,000000000000000E+000	-6,0979754E-002	40	-2,7753605E-004
2	0	0	1	1	1,915385174691413E+005	1,4585961E+000	1,4593140E+000	-2,061646657624636E-001	2,000000000000000E+000	-6,8857424E-002	40	-3,0085898E-004
2	0	0	1	1	1,915784890753943E+005	1,4346132E+000	1,4353120E+000	-2,205167597562705E-001	2,000000000000000E+000	-7,7406064E-002	40	-3,1651036E-004
2	0	0	1	1	1,916184606816499E+005	1,4106302E+000	1,4113572E+000	-2,295303280772050E-001	2,000000000000000E+000	-8,6426988E-002	40	-3,2394927E-004
2	0	0	1	1	1,916584323879047E+005	1,3866471E+000	1,3873454E+000	-2,349938112071257E-001	2,000000000000000E+000	-9,5723532E-002	40	-3,2601759E-004
2	0	0	1	1	1,916984039941584E+005	1,3626642E+000	1,3633590E+000	-2,387054142391665E-001	2,000000000000000E+000	-1,0519938E-001	40	-3,2544116E-004
2	0	0	1	1	1,917383756004114E+005	1,3386812E+000	1,3393795E+000	-2,404722490641387E-001	2,000000000000000E+000	-1,1478737E-001	40	-3,2208362E-004
2	0	0	1	1	1,917783473066646E+005	1,3146983E+000	1,3153979E+000	-2,404886407856601E-001	2,000000000000000E+000	-1,2440954E-001	40	-3,1633824E-004
2	0	0	1	1	1,918183188129193E+005	1,2907153E+000	1,2914045E+000	-2,388288382232326E-001	2,000000000000000E+000	-1,3399927E-001	40	-3,0842464E-004
2	0	0	1	1	1,918582905191747E+005	1,2667323E+000	1,2674445E+000	-2,356507561465824E-001	2,000000000000000E+000	-1,4349078E-001	40	-2,9867425E-004
2	0	0	1	1	1,918982622254288E+005	1,2427493E+000	1,2434858E+000	-2,312412477797912E-001	2,000000000000000E+000	-1,5282935E-001	40	-2,8754520E-004
2	0	0	1	1	1,919382337316820E+005	1,2187666E+000	1,2194736E+000	-2,261395397248047E-001	2,000000000000000E+000	-1,6197599E-001	40	-2,7577119E-004
2	0	0	1	1	1,919782054379354E+005	1,1947834E+000	1,1955231E+000	-2,203534629069734E-001	2,000000000000000E+000	-1,7090452E-001	40	-2,6343766E-004
2	0	0	1	1	1,920181770441891E+005	1,1708004E+000	1,1715583E+000	-2,142343598816456E-001	2,000000000000000E+000	-1,7959481E-001	40	-2,5098803E-004
2	0	0	1	1	1,920581486504441E+005	1,1468176E+000	1,1475700E+000	-2,079224597865298E-001	2,000000000000000E+000	-1,8803562E-001	40	-2,3860559E-004
2	0	0	1	1	1,920981203566995E+005	1,1228346E+000	1,1235745E+000	-2,016297390630837E-001	2,000000000000000E+000	-1,9622429E-001	40	-2,2654604E-004
2	0	0	1	1	1,921380919629523E+005	1,0988517E+000	1,0995843E+000	-1,955720233095315E-001	2,000000000000000E+000	-2,0416515E-001	40	-2,1504794E-004
2	0	0	1	1	1,921780635692060E+005	1,0748687E+000	1,0755796E+000	-1,898086636094427E-001	2,000000000000000E+000	-2,1186966E-001	40	-2,0415433E-004
2	0	0	1	1	1,922180351754585E+005	1,0508856E+000	1,0516105E+000	-1,843435945114194E-001	2,000000000000000E+000	-2,1934883E-001	40	-1,9385766E-004
2	0	0	1	1	1,922580068817139E+005	1,0269026E+000	1,0276134E+000	-1,794272344395969E-001	2,000000000000000E+000	-2,2662061E-001	40	-1,8438183E-004
2	0	0	1	1	1,922979784879689E+005	1,0029197E+000	1,0036500E+000	-1,749707299901614E-001	2,000000000000000E+000	-2,3370524E-001	40	-1,7560937E-004
2	0	0	1	1	1,923354523938316E+005	1,0195078E+000	1,0202230E+000	-1,428914265695487E-001	2,000000000000000E+000	-2,3962402E-001	40	-1,4578112E-004
2	0	0	1	1	1,923754241000847E+005	1,0434908E+000	1,0442047E+000	-1,224472463762474E-001	2,000000000000000E+000	-2,4489699E-001	40	-1,2786000E-004
2	0	0	1	1	1,924153957063383E+005	1,0674738E+000	1,0681928E+000	-1,074304491083643E-001	2,000000000000000E+000	-2,4947482E-001	40	-1,1475644E-004
2	0	0	1	1	1,924553673125939E+005	1,0914568E+000	1,0921859E+000	-9,536731538379239E-002	2,000000000000000E+000	-2,5351629E-001	40	-1,0415883E-004
2	0	0	1	1	1,924953391188490E+005	1,1154398E+000	1,1161665E+000	-8,530519562320737E-002	2,000000000000000E+000	-2,5711814E-001	40	-9,5214797E-005
2	0	0	1	1	1,925353106251018E+005	1,1394228E+000	1,1401354E+000	-7,666482550096165E-002	2,000000000000000E+000	-2,6034811E-001	40	-8,7408283E-005
2	0	0	1	1	1,925752823313555E+005	1,1634057E+000	1,1641225E+000	-6,912877552283114E-002	2,000000000000000E+000	-2,6325536E-001	40	-8,0474361E-005
2	0	0	1	1	1,926152539376086E+005	1,1873887E+000	1,1881062E+000	-6,244534318582223E-002	2,000000000000000E+000	-2,6587880E-001	40	-7,4191696E-005
2	0	0	1	1	1,926552255438631E+005	1,2113717E+000	1,2120820E+000	-5,648919900759161E-002	2,000000000000000E+000	-2,6825058E-001	40	-6,8469541E-005
2	0	0	1	1	1,926951973501183E+005	1,2353547E+000	1,2360500E+000	-5,109302842405605E-002	2,000000000000000E+000	-2,7039561E-001	40	-6,3153537E-005
2	0	0	1	1	1,927351690563727E+005	1,2593377E+000	1,2600428E+000	-4,623452434269759E-002	2,000000000000000E+000	-2,7233618E-001	41	-5,8257479E-005
2	0	0	1	1	1,927751406626258E+005	1,2833207E+000	1,2840163E+000	-4,151121491131188E-002	2,000000000000000E+000	-2,7408648E-001	41	-5,3301075E-005
2	0	0	1	1	1,928151122688786E+005	1,3073035E+000	1,3080382E+000	-3,690095908646812E-002	2,000000000000000E+000	-2,7565032E-001	41	-4,8267866E-005
2	0	0	1	1	1,928550839751330E+005	1,3312865E+000	1,3319851E+000	-3,227625768848105E-002	2,000000000000000E+000	-2,7703035E-001	41	-4,2991494E-005
2	0	0	1	1	1,928950557813882E+005	1,3552696E+000	1,3559898E+000	-2,755773929667710E-002	2,000000000000000E+000	-2,7822411E-001	41	-3,7368012E-005
2	0	0	1	1	1,929350273876435E+005	1,3792524E+000	1,3799607E+000	-2,265219244200220E-002	2,000000000000000E+000	-2,7922595E-001	41	-3,1259133E-005
2	0	0	1	1	1,929749990938958E+005	1,4032354E+000	1,4039543E+000	-1,750927956041090E-002	2,000000000000000E+000	-2,8002691E-001	41	-2,4582228E-005
2	0	0	1	1	1,930149706001496E+005	1,4272182E+000	1,4279356E+000	-1,202584259146958E-002	2,000000000000000E+000	-2,8061551E-001	41	-1,7172129E-005
2	0	0	1	1	1,930549423064031E+005	1,4512013E+000	1,4519317E+000	-6,104925975606454E-003	2,000000000000000E+000	-2,8097603E-001	41	-8,8639354E-006
2	1	0	1	1	1,930949142126581E+005	1,4751843E+000	1,4759054E+000	3,046048757658986E-004	2,000000000000000E+000	-2,8109139E-001	43	4,4956798E-007
2	1	0	1	1	1,931348857189133E+005	1,4991673E+000	1,4999133E+000	7,334973270161353E-003	2,000000000000000E+000	-2,8093857E-001	42	1,1001825E-005
2	1	0	1	1	1,931748574251665E+005	1,5231502E+000	1,5238479E+000	1,505958209131704E-002	2,000000000000000E+000	-2,8049120E-001	41	2,2948514E-005
2	1	0	1	1	1,932148290314200E+005	1,5471332E+000	1,5478159E+000	2,388606698613771E-002	2,000000000000000E+000	-2,7971345E-001	41	3,6971236E-005
2	1	0	1	1	1,932548006376731E+005	1,5711161E+000	1,5718213E+000	3,426408134776893E-002	2,000000000000000E+000	-2,7855262E-001	41	5,3857013E-005
2	1	0	1	1	1,932947725439281E+005	1,5950993E+000	1,5958210E+000	4,730682382255841E-002	2,000000000000000E+000	-2,7693415E-001	41	7,5493226E-005
2	1	0	1	1	1,933347441501832E+005	1,6190821E+000	1,6198094E+000	6,908851093752483E-002	2,000000000000000E+000	-2,7464405E-001	41	1,1191022E-004
2	1	0	1	1	1,933747157564373E+005	1,6430651E+000	1,6437804E+000	9,937996212671174E-002	2,000000000000000E+000	-2,7128932E-001	41	1,6335883E-004
2	1	0	1	1	1,934146873626905E+005	1,6670481E+000	1,6677449E+000	1,335737387195086E-001	2,000000000000000E+000	-2,6664031E-001	40	2,2276692E-004
2	1	0	1	1	1,934546591689433E+005	1,6910312E+000	1,6917337E+000	1,718661674946271E-001	2,000000000000000E+000	-2,6054782E-001	40	2,9075178E-004
2	1	0	1	1	1,934946308751977E+005	1,7150139E+000	1,7157234E+000	2,148893698731795E-001	2,000000000000000E+000	-2,5282827E-001	40	3,6869073E-004
2	1	0	1	1	1,935346025814530E+005	1,7389970E+000	1,7397113E+000	2,615525997159782E-001	2,000000000000000E+000	-2,4330930E-001	40	4,5502602E-004
2	1	0	1	1	1,935745742877079E+005	1,7629799E+000	1,7637137E+000	3,096327567034400E-001	2,000000000000000E+000	-2,3188700E-001	40	5,4610352E-004
2	1	0	1	1	1,936145457939606E+005	1,7869627E+000	1,7876784E+000	3,548505103947601E-001	2,000000000000000E+000	-2,1858369E-001	40	6,3435856E-004
2	1	0	1	1	1,936545175002144E+005	1,8109459E+000	1,8116866E+000	3,920546825521494E-001	2,000000000000000E+000	-2,0361558E-001	40	7,1028020E-004
2	1	0	1	1	1,936944893064676E+005	1,8349289E+000	1,8356463E+000	4,162254961339003E-001	2,000000000000000E+000	-1,8740660E-001	40	7,6404278E-004
2	1	0	1	1	1,937344609127231E+005	1,8589116E+000	1,8596342E+000	4,247380466964727E-001	2,000000000000000E+000	-1,7054120E-001	40	7,8985735E-004
2	1	0	1	1	1,937744326189780E+005	1,8828950E+000	1,8836000E+000	4,172650441676202E-001	2,000000000000000E+000	-1,5365845E-001	40	7,8596041E-004
2	1	0	1	1	1,938144042252311E+005	1,9068779E+000	1,9075675E+000	3,959890039010170E-001	2,000000000000000E+000	-1,3735852E-001	40	7,5537578E-004
2	1	0	1	1	1,938543758314847E+005	1,9308609E+000	1,9315621E+000	3,645473903607712E-001	2,000000000000000E+000	-1,2212770E-001	40	7,0414593E-004
2	1	0	1	1	1,938943476377372E+005	1,9548439E+000	1,9555489E+000	3,276846027368618E-001	2,000000000000000E+000	-1,0827851E-001	40	6,4080325E-004
2	1	0	1	1	1,939343193439925E+005	1,9788268E+000	1,9795107E+000	2,896420133873350E-001	2,000000000000000E+000	-9,5938399E-002	40	5,7334948E-004
2	1	0	1	1	1,939742911502477E+005	2,0028098E+000	2,0035043E+000	2,533181584513198E-001	2,000000000000000E+000	-8,5090488E-002	40	5,0752400E-004
2	1	0	1	1	1,940142627565018E+005	2,0267925E+000	2,0275013E+000	2,201320770189761E-001	2,000000000000000E+000	-7,5636387E-002	40	4,4631810E-004
2	1	0	1	1	1,940542343627547E+005	2,0507755E+000	2,0514870E+000	1,906813082546838E-001	2,000000000000000E+000	-6,7435198E-002	40	3,9118022E-004
2	1	0	1	1	1,940942059690079E+005	2,0747583E+000	2,0754693E+000	1,649664917180766E-001	2,000000000000000E+000	-6,0335375E-002	40	3,4238287E-004
2	1	0	1	1	1,941341776752626E+005	2,0987415E+000	2,0994458E+000	1,427663517103710E-001	2,000000000000000E+000	-5,4192193E-002	40	2,9973022E-004
2	1	0	1	1	1,941741493815174E+005	2,1227245E+000	2,1234183E+000	1,239429458683512E-001	2,000000000000000E+000	-4,8868269E-002	40	2,6318274E-004
2	1	0	1	1	1,942141209877720E+005	2,1467073E+000	2,1474211E+000	1,080978738191986E-001	2,000000000000000E+000	-4,4236310E-002	40	2,3213166E-004
2	1	0	1	1	1,942540927940252E+005	2,1706903E+000	2,1713760E+000	9,489256550395764E-002	2,000000000000000E+000	-4,0183686E-002	40	2,0604744E-004
2	1	0	1	1	1,942940648002787E+005	2,1946735E+000	2,1953652E+000	8,399713419112897E-002	2,000000000000000E+000	-3,6610436E-002	40	1,8440439E-004
2	1	0	1	1	1,943340364065324E+005	2,2186563E+000	2,2193227E+000	7,498955076541436E-002	2,000000000000000E+000	-3,3433743E-002	40	1,6642601E-004
2	1	0	1	1	1,943740082127871E+005	2,2426393E+000	2,2433007E+000	6,753102930803090E-002	2,000000000000000E+000	-3,0585410E-002	40	1,5149241E-004
2	1	0	1	1	1,944139798190426E+005	2,2666223E+000	2,2672744E+000	6,122728766191757E-002	2,000000000000000E+000	-2,8011216E-002	40	1,3881906E-004
2	1	0	1	1	1,944539513252956E+005	2,2906051E+000	2,2912722E+000	5,591978665619357E-002	2,000000000000000E+000	-2,5668478E-002	40	1,2812745E-004
2	1	0	1	1	1,944939234315493E+005	2,3145883E+000	2,3152585E+000	5,137696371071221E-002	2,000000000000000E+000	-2,3522435E-002	40	1,1895095E-004
2	1	0	1	1	1,945340615378298E+005	2,3386712E+000	2,3393483E+000	4,732393458729268E-002	2,000000000000000E+000	-2,1538055E-002	41	1,1070717E-004
2	1	0	1	1	1,945740330440829E+005	2,3626540E+000	2,3633380E+000	4,397562014024081E-002	2,000000000000000E+000	-1,9710509E-002	41	1,0392925E-004
2	1	0	1	1	1,946140046503362E+005	2,3866372E+000	2,3873260E+000	4,107414543175704E-002	2,000000000000000E+000	-1,8007832E-002	41	9,8057375E-005
2	1	0	1	1	1,946539763565911E+005	2,4106200E+000	2,4113345E+000	3,859180116091132E-002	2,000000000000000E+000	-1,6412837E-002	41	9,3057744E-005
2	1	0	1	1	1,946939484628472E+005	2,4346027E+000	2,4353132E+000	3,648357209856246E-002	2,000000000000000E+000	-1,4909177E-002	41	8,8848923E-005
2	1	0	1	1	1,947339200690999E+005	2,4585860E+000	2,4592633E+000	3,454798914555257E-002	2,000000000000000E+000	-1,3485008E-002	41	8,4962601E-005
2	1	0	1	1	1,947738917753537E+005	2,4825692E+000	2,4832604E+000	3,272920081993717E-002	2,000000000000000E+000	-1,2136145E-002	41	8,1275131E-005
2	1	0	1	1	1,948138634816068E+005	2,5065520E+000	2,5072315E+000	3,098440281902176E-002	2,000000000000000E+000	-1,0858837E-002	41	7,7685072E-005
2	1	0	1	1	1,948538350878619E+005	2,5305347E+000	2,5312164E+000	2,937642010141439E-002	2,000000000000000E+000	-9,6486146E-003	41	7,4358075E-005
2	1	0	1	1	1,948938071941170E+005	2,5545180E+000	2,5552094E+000	2,790371341196130E-002	2,000000000000000E+000	-8,4996447E-003	41	7,1299830E-005
2	1	0	1	1	1,949337787003706E+005	2,5785005E+000	2,5791955E+000	2,654322520186525E-002	2,000000000000000E+000	-7,4074925E-003	41	6,8460169E-005
2	1	0	1	1	1,949737503066240E+005	2,6024835E+000	2,6031787E+000	2,538117127168782E-002	2,000000000000000E+000	-6,3659949E-003	41	6,6071727E-005
2	1	0	1	1	1,950137218128771E+005	2,6264670E+000	2,6271596E+000	2,449304222319676E-002	2,000000000000000E+000	-5,3651822E-003	41	6,4347129E-005
2	1	0	1	1	1,950536935191313E+005	2,6504495E+000	2,6511354E+000	2,354641960957984E-002	2,000000000000000E+000	-4,3998193E-003	41	6,2424748E-005
2	1	0	1	1	1,950936655253866E+005	2,6744328E+000	2,6751168E+000	2,250169802337515E-002	2,000000000000000E+000	-3,4759266E-003	41	6,0194670E-005
2	1	0	1	1	1,951336372316414E+005	2,6984160E+000	2,6990907E+000	2,142617595467838E-002	2,000000000000000E+000	-2,5952065E-003	41	5,7831192E-005
2	1	0	1	1	1,951736089378944E+005	2,7223985E+000	2,7231073E+000	2,060961484650875E-002	2,000000000000000E+000	-1,7509924E-003	41	5,6122193E-005
2	1	0	1	1	1,952135805441474E+005	2,7463818E+000	2,7470489E+000	1,996269624058092E-002	2,000000000000000E+000	-9,3656196E-004	41	5,4838503E-005
2	1	0	1	1	1,952535523504014E+005	2,7703648E+000	2,7710488E+000	1,948441131700362E-002	2,000000000000000E+000	-1,4436782E-004	41	5,3992255E-005
2	1	0	1	1	1,952935243566567E+005	2,7943475E+000	2,7950237E+000	1,922442402323484E-002	2,000000000000000E+000	6,3310401E-004	41	5,3732721E-005
2	1	0	1	1	1,953334957629121E+005	2,8183305E+000	2,8190179E+000	1,919201200640566E-002	2,000000000000000E+000	1,4049883E-003	41	5,4102624E-005
2	1	0	1	1	1,953734675691645E+005	2,8423135E+000	2,8430147E+000	1,916913112047924E-002	2,000000000000000E+000	2,1768294E-003	41	5,4498123E-005
2	1	0	1	1	1,954134389754183E+005	2,8662963E+000	2,8669653E+000	1,887653432857056E-002	2,000000000000000E+000	2,9418620E-003	41	5,4118369E-005
2	1	0	1	1	1,954534106816715E+005	2,8902795E+000	2,8909574E+000	1,850082158100735E-002	2,000000000000000E+000	3,6930612E-003	41	5,3485088E-005
2	1	0	1	1	1,954933826879272E+005	2,9142625E+000	2,9149399E+000	1,805512605907043E-002	2,000000000000000E+000	4,4282428E-003	41	5,2629606E-005
2	1	0	1	1	1,955333543941816E+005	2,9382453E+000	2,9389417E+000	1,758986318288411E-002	2,000000000000000E+000	5,1450683E-003	41	5,1695584E-005
2	1	0	1	1	1,955733260004353E+005	2,9622285E+000	2,9629061E+000	1,715917155410883E-002	2,000000000000000E+000	5,8436547E-003	41	5,0841016E-005
2	1	0	1	1	1,956132978066886E+005	2,9862115E+000	2,9868886E+000	1,689261804977354E-002	2,000000000000000E+000	6,5281014E-003	41	5,0456369E-005
2	1	0	1	0	1,956504376124997E+005	2,9914079E+000	2,9920671E+000	1,195365759173841E-002	2,000000000000000E+000	7,1029793E-003	41	3,5766145E-005
2	1	0	1	0	1,956904092187528E+005	2,9674246E+000	2,9680796E+000	8,657209409615632E-003	2,000000000000000E+000	7,5027826E-003	41	2,5695286E-005
2	1	0	1	0	1,957303810250070E+005	2,9434419E+000	2,9441302E+000	6,754492888710393E-003	2,000000000000000E+000	7,8037740E-003	41	1,9886107E-005
2	1	0	1	0	1,957703526312620E+005	2,9194584E+000	2,9201314E+000	5,423188498642997E-003	2,000000000000000E+000	8,0413036E-003	41	1,5836424E-005
2	1	0	1	0	1,958103243375171E+005	2,8954761E+000	2,8961551E+000	4,422703877264428E-003	2,000000000000000E+000	8,2328282E-003	42	1,2808837E-005
2	1	0	1	0	1,958502960437702E+005	2,8714926E+000	2,8721747E+000	3,617304630848587E-003	2,000000000000000E+000	8,3887726E-003	42	1,0389531E-005
2	1	0	1	0	1,958902676500233E+005	2,8475099E+000	2,8481789E+000	2,947311963804697E-003	2,000000000000000E+000	8,5152257E-003	42	8,3944715E-006
2	1	0	1	0	1,959302393562770E+005	2,8235271E+000	2,8241951E+000	2,401765155417949E-003	2,000000000000000E+000	8,6176163E-003	42	6,7830533E-006
2	1	0	1	0	1,959702108625323E+005	2,7995436E+000	2,8002350E+000	1,987636367891694E-003	2,000000000000000E+000	8,7008765E-003	42	5,5658488E-006
2	1	0	1	0	1,960101824687873E+005	2,7755609E+000	2,7762599E+000	1,623678693217808E-003	2,000000000000000E+000	8,7687243E-003	42	4,5077541E-006
2	1	0	1	0	1,960501539750404E+005	2,7515781E+000	2,7522690E+000	1,327223539253755E-003	2,000000000000000E+000	8,8230986E-003	42	3,6528763E-006
2	1	0	1	0	1,960901256812941E+005	2,7275949E+000	2,7282925E+000	1,004507800387744E-003	2,000000000000000E+000	8,8651897E-003	42	2,7405911E-006
2	1	0	1	0	1,961300972875471E+005	2,7036121E+000	2,7043297E+000	6,966700523466339E-004	2,000000000000000E+000	8,8950573E-003	42	1,8840256E-006
2	1	0	1	0	1,961704019938554E+005	2,6794291E+000	2,6801326E+000	4,009648585883629E-004	2,000000000000000E+000	8,9129368E-003	43	1,0746390E-006
2	1	0	1	0	1,962108735001866E+005	2,6551464E+000	2,6558220E+000	1,545002253007646E-005	2,000000000000000E+000	8,9172618E-003	43	4,1032511E-008
2	0	0	1	0	1,962511782064922E+005	2,6309638E+000	2,6316471E+000	-4,534650868995857E-004	2,000000000000000E+000	8,9041023E-003	43	-1,1933600E-006
2	0	0	1	0	1,962911499127471E+005	2,6069806E+000	2,6076574E+000	-8,596942527642273E-004	2,000000000000000E+000	8,8723078E-003	42	-2,2417880E-006
2	0	0	1	0	1,963311215190019E+005	2,5829976E+000	2,5836861E+000	-1,040223859601267E-003	2,000000000000000E+000	8,8293571E-003	42	-2,6876119E-006
2	0	0	1	0	1,963710930252550E+005	2,5590146E+000	2,5597034E+000	-1,154940263835037E-003	2,000000000000000E+000	8,7815216E-003	42	-2,9563046E-006
2	0	0	1	0	1,964110647315080E+005	2,5350313E+000	2,5357158E+000	-1,412527556288030E-003	2,000000000000000E+000	8,7260921E-003	42	-3,5817684E-006
2	0	0	1	0	1,964510361377615E+005	2,5110488E+000	2,5117440E+000	-1,708681994701235E-003	2,000000000000000E+000	8,6595789E-003	42	-4,2917718E-006
2	0	0	1	0	1,964910078440169E+005	2,4870658E+000	2,4877446E+000	-2,014777893706389E-003	2,000000000000000E+000	8,5808141E-003	42	-5,0122526E-006
2	0	0	1	0	1,965309795502722E+005	2,4630826E+000	2,4637699E+000	-2,328219779015029E-003	2,000000000000000E+000	8,4899059E-003	42	-5,7361976E-006
2	0	0	1	0	1,965709511565252E+005	2,4391000E+000	2,4397848E+000	-2,645477785581642E-003	2,000000000000000E+000	8,3863037E-003	42	-6,4543965E-006
2	0	0	1	0	1,966109228627789E+005	2,4151170E+000	2,4157875E+000	-2,949221668021293E-003	2,000000000000000E+000	8,2701417E-003	42	-7,1246927E-006
2	0	0	1	0	1,966508945690319E+005	2,3911338E+000	2,3918045E+000	-3,241665078455663E-003	2,000000000000000E+000	8,1421426E-003	42	-7,7534287E-006
2	0	0	1	0	1,966908661752865E+005	2,3671510E+000	2,3678548E+000	-3,568807887660702E-003	2,000000000000000E+000	8,0019571E-003	42	-8,4504190E-006
2	0	0	1	0	1,967308379815416E+005	2,3431678E+000	2,3438613E+000	-3,967926280717016E-003	2,000000000000000E+000	7,8470288E-003	42	-9,3002691E-006
2	0	0	1	0	1,967708093877961E+005	2,3191848E+000	2,3198714E+000	-4,409438049104163E-003	2,000000000000000E+000	7,6751355E-003	42	-1,0229330E-005
2	0	0	1	0	1,968107809940492E+005	2,2952020E+000	2,2959018E+000	-4,917270518226941E-003	2,000000000000000E+000	7,4842665E-003	42	-1,1289570E-005
2	0	0	1	0	1,968507526003020E+005	2,2712193E+000	2,2719014E+000	-5,476893838761541E-003	2,000000000000000E+000	7,2722891E-003	42	-1,2442963E-005
2	0	0	1	0	1,968907242065561E+005	2,2472360E+000	2,2479103E+000	-6,099577430965022E-003	2,000000000000000E+000	7,0367963E-003	42	-1,3711303E-005
2	0	0	1	0	1,969306959128114E+005	2,2232533E+000	2,2239466E+000	-6,774482440333185E-003	2,000000000000000E+000	6,7754239E-003	42	-1,5066087E-005
2	0	0	1	0	1,969706676190668E+005	2,1992700E+000	2,1999359E+000	-7,551592609455898E-003	2,000000000000000E+000	6,4850901E-003	42	-1,6613019E-005
2	0	0	1	0	1,970106392253191E+005	2,1752872E+000	2,1759849E+000	-8,408276362803165E-003	2,000000000000000E+000	6,1622765E-003	42	-1,8296281E-005
2	0	0	1	0	1,970506109315731E+005	2,1513042E+000	2,1519995E+000	-9,382196554172967E-003	2,000000000000000E+000	5,8024880E-003	42	-2,0190482E-005
2	0	0	1	0	1,970905826378260E+005	2,1273210E+000	2,1280463E+000	-1,044332796813113E-002	2,000000000000000E+000	5,4022530E-003	41	-2,2223885E-005
2	0	0	1	0	1,971305542440815E+005	2,1033382E+000	2,1040318E+000	-1,168102967232997E-002	2,000000000000000E+000	4,9556904E-003	41	-2,4577257E-005
2	0	0	1	0	1,971705259503364E+005	2,0793552E+000	2,0800583E+000	-1,301404776961487E-002	2,000000000000000E+000	4,4579748E-003	41	-2,7069978E-005
2	0	0	1	0	1,972046668556784E+005	2,0588205E+000	2,0594990E+000	-1,453284498803864E-002	2,000000000000000E+000	3,9882963E-003	41	-2,9930379E-005