File: Dati/201027/CV_LTO-C_Al_slurrymia_01_1mVs_10_CV_C03.mpt
EC-Lab ASCII FILE
Nb header lines : 63

Cyclic Voltammetry

Run on channel : 3 (SN 6807)
User :
Electrode connection : standard
Ewe ctrl range : min = 0,00 V, max = 5,00 V
Ewe,I filtering : 50 kHz
Safety Limits :
	Do not start on E overload
Channel : Grounded
Acquisition started on : 10/27/2020 18:19:16
Saved on :
	File : CV_LTO-C_Al_slurrymia_01_1mVs_10_CV_C03.mpr
	Directory : C:\Users\labsuperfici\Desktop\Biologic\Users\Prisca Viviani\201027\
	Host : 10.78.33.0
Device : VSP-300 (SN 0638)
Address : USB
EC-Lab for windows v11.31 (software)
Internet server v11.30 (firmware)
Command interpretor v11.31 (firmware)
Electrode material :
Initial state :
Electrolyte :
Comments :
Cable : standard
Reference electrode : SCE Saturated Calomel Electrode (0,241 V)
Electrode surface area : 0,001 cm²
Characteristic mass : 0,001 g
Equivalent Weight : 0,000 g/eq.
Density : 0,000 g/cm3
Cycle Definition : Charge/Discharge alternance
Ei (V)              0,000
vs.                 Eoc
dE/dt               1,000
dE/dt unit          mV/s
E1 (V)              1,000
vs.                 Ref
Step percent        50
N                   10
E range min (V)     0,000
E range max (V)     5,000
I Range             Auto
I Range min         Unset
I Range max         Unset
I Range init        Unset
Bandwidth           8
E2 (V)              3,000
vs.                 Ref
nc cycles           2
Reverse Scan        1
Ef (V)              0,000
vs.                 Eoc

Modify on : 10/28/2020 10:35
nc cycles           1

Modify on : 10/28/2020 10:37
E2 (V)              2,700

mode	ox/red	error	control changes	counter inc.	time/s	control/V	Ewe/V	<I>/mA	cycle number	(Q-Qo)/C	I Range	P/W
2	0	0	1	0	1,983723504383746E+005	1,8815254E+000	1,8809662E+000	-1,737566664814949E-002	1,000000000000000E+000	0,0000000E+000	41	-3,2683041E-005
2	0	0	1	0	1,983918925414322E+005	1,8619828E+000	1,8613826E+000	-1,664514250643542E-002	1,000000000000000E+000	-3,1808738E-004	41	-3,0982977E-005
2	0	0	1	0	1,984118844445604E+005	1,8419907E+000	1,8414190E+000	-1,827219708077980E-002	1,000000000000000E+000	-6,7581708E-004	41	-3,3646771E-005
2	0	0	1	0	1,984318762476880E+005	1,8219991E+000	1,8214062E+000	-1,992274306086433E-002	1,000000000000000E+000	-1,0665902E-003	41	-3,6287409E-005
2	0	0	1	0	1,984518680508165E+005	1,8020071E+000	1,8014346E+000	-2,158145372323506E-002	1,000000000000000E+000	-1,4905636E-003	41	-3,8877577E-005
2	0	0	1	0	1,984718599539438E+005	1,7820154E+000	1,7814436E+000	-2,324890697889169E-002	1,000000000000000E+000	-1,9475498E-003	41	-4,1416617E-005
2	0	0	1	0	1,984918518570727E+005	1,7620232E+000	1,7614532E+000	-2,497293634548131E-002	1,000000000000000E+000	-2,4386342E-003	41	-4,3988657E-005
2	0	0	1	0	1,985118436602002E+005	1,7420317E+000	1,7414439E+000	-2,673061719936543E-002	1,000000000000000E+000	-2,9644631E-003	41	-4,6549871E-005
2	0	0	1	0	1,985318354633283E+005	1,7220397E+000	1,7214935E+000	-2,855233427436016E-002	1,000000000000000E+000	-3,5259363E-003	41	-4,9152659E-005
2	0	0	1	0	1,985518273664566E+005	1,7020481E+000	1,7014805E+000	-3,062289508984778E-002	1,000000000000000E+000	-4,1259662E-003	41	-5,2104260E-005
2	0	0	1	0	1,985718192695836E+005	1,6820561E+000	1,6814958E+000	-3,347219970698212E-002	1,000000000000000E+000	-4,7741132E-003	41	-5,6283363E-005
2	0	0	1	0	1,985918110727125E+005	1,6620642E+000	1,6615069E+000	-3,756251434816738E-002	1,000000000000000E+000	-5,4906840E-003	41	-6,2410378E-005
2	0	0	1	0	1,986118028758401E+005	1,6420724E+000	1,6415417E+000	-4,370776461038772E-002	1,000000000000000E+000	-6,3086874E-003	41	-7,1748116E-005
2	0	0	1	0	1,986317946789684E+005	1,6220807E+000	1,6215490E+000	-5,254814542638686E-002	1,000000000000000E+000	-7,2759679E-003	41	-8,5209394E-005
2	0	0	1	0	1,986517865820965E+005	1,6020888E+000	1,6015625E+000	-6,455524965160686E-002	1,000000000000000E+000	-8,4496280E-003	41	-1,0338927E-004
2	0	0	1	0	1,986717783852243E+005	1,5820973E+000	1,5815945E+000	-8,042964007168507E-002	1,000000000000000E+000	-9,9002663E-003	41	-1,2720708E-004
2	0	0	1	0	1,986917702883519E+005	1,5621049E+000	1,5615387E+000	-1,029199625039317E-001	1,000000000000000E+000	-1,1721697E-002	40	-1,6071351E-004
2	0	0	1	0	1,987117621914800E+005	1,5421134E+000	1,5415648E+000	-1,385869657456780E-001	1,000000000000000E+000	-1,4101692E-002	40	-2,1364079E-004
2	0	0	1	0	1,987317539946078E+005	1,5221215E+000	1,5215738E+000	-2,254609953368516E-001	1,000000000000000E+000	-1,7638696E-002	40	-3,4305555E-004
2	0	0	1	0	1,987517457977356E+005	1,5021297E+000	1,5015944E+000	-3,330157473298523E-001	1,000000000000000E+000	-2,3277158E-002	40	-5,0005456E-004
2	0	0	1	0	1,987717377008633E+005	1,4821378E+000	1,4816238E+000	-4,060389860942166E-001	1,000000000000000E+000	-3,0737478E-002	40	-6,0159701E-004
2	0	0	1	0	1,987917295039915E+005	1,4621457E+000	1,4616070E+000	-4,447417861430481E-001	1,000000000000000E+000	-3,9305482E-002	40	-6,5003772E-004
2	0	0	1	0	1,988117213071194E+005	1,4421540E+000	1,4416417E+000	-4,563143659820463E-001	1,000000000000000E+000	-4,8359353E-002	40	-6,5784180E-004
2	0	0	1	0	1,988317131102476E+005	1,4221622E+000	1,4216397E+000	-4,500398097819915E-001	1,000000000000000E+000	-5,7451490E-002	40	-6,3979445E-004
2	0	0	1	0	1,988517050133751E+005	1,4021703E+000	1,4016165E+000	-4,336429786784080E-001	1,000000000000000E+000	-6,6305339E-002	40	-6,0780114E-004
2	0	0	1	0	1,988716969165034E+005	1,3821783E+000	1,3816620E+000	-4,123848446539435E-001	1,000000000000000E+000	-7,4775681E-002	40	-5,6977646E-004
2	0	0	1	0	1,988916887196309E+005	1,3621868E+000	1,3616638E+000	-3,896112738684450E-001	1,000000000000000E+000	-8,2802452E-002	40	-5,3051958E-004
2	0	0	1	0	1,989116805227594E+005	1,3421948E+000	1,3416444E+000	-3,670748054914821E-001	1,000000000000000E+000	-9,0373889E-002	40	-4,9248384E-004
2	0	0	1	0	1,989316724258871E+005	1,3222029E+000	1,3216245E+000	-3,456886133134742E-001	1,000000000000000E+000	-9,7504944E-002	40	-4,5687053E-004
2	0	0	1	0	1,989516642290158E+005	1,3022110E+000	1,3016391E+000	-3,257940434609914E-001	1,000000000000000E+000	-1,0422304E-001	40	-4,2406627E-004
2	0	0	1	0	1,989716561321432E+005	1,2822192E+000	1,2816404E+000	-3,075747871864589E-001	1,000000000000000E+000	-1,1055950E-001	40	-3,9420027E-004
2	0	0	1	0	1,989916479352713E+005	1,2622274E+000	1,2616512E+000	-2,909091062046745E-001	1,000000000000000E+000	-1,1654796E-001	40	-3,6702582E-004
2	0	0	1	0	1,990116397383994E+005	1,2422357E+000	1,2416517E+000	-2,758018114519221E-001	1,000000000000000E+000	-1,2221901E-001	40	-3,4244978E-004
2	0	0	1	0	1,990316315415269E+005	1,2222438E+000	1,2216709E+000	-2,620691411370006E-001	1,000000000000000E+000	-1,2760127E-001	40	-3,2016225E-004
2	0	0	1	0	1,990516234446556E+005	1,2022519E+000	1,2016701E+000	-2,496117657476246E-001	1,000000000000000E+000	-1,3272178E-001	40	-2,9995097E-004
2	0	0	1	0	1,990716153477831E+005	1,1822600E+000	1,1816946E+000	-2,383452873540639E-001	1,000000000000000E+000	-1,3760485E-001	40	-2,8165136E-004
2	0	0	1	0	1,990916071509114E+005	1,1622682E+000	1,1616768E+000	-2,280837127735553E-001	1,000000000000000E+000	-1,4227265E-001	40	-2,6495956E-004
2	0	0	1	0	1,991115989540387E+005	1,1422763E+000	1,1416668E+000	-2,188715863049540E-001	1,000000000000000E+000	-1,4674573E-001	40	-2,4987842E-004
2	0	0	1	0	1,991315908571673E+005	1,1222847E+000	1,1216855E+000	-2,106014456363987E-001	1,000000000000000E+000	-1,5104356E-001	40	-2,3622859E-004
2	0	0	1	0	1,991515827602949E+005	1,1022927E+000	1,1017215E+000	-2,032203815376708E-001	1,000000000000000E+000	-1,5518472E-001	40	-2,2389228E-004
2	0	0	1	0	1,991715745634232E+005	1,0823009E+000	1,0817094E+000	-1,967240490541649E-001	1,000000000000000E+000	-1,5918709E-001	40	-2,1279824E-004
2	0	0	1	0	1,991915663665507E+005	1,0623090E+000	1,0617435E+000	-1,910879936251546E-001	1,000000000000000E+000	-1,6306765E-001	40	-2,0288644E-004
2	0	0	1	0	1,992115581696788E+005	1,0423172E+000	1,0417295E+000	-1,863300362677266E-001	1,000000000000000E+000	-1,6684401E-001	40	-1,9410548E-004
2	0	0	1	0	1,992315499728066E+005	1,0223253E+000	1,0217228E+000	-1,824487710674281E-001	1,000000000000000E+000	-1,7053422E-001	40	-1,8641207E-004
2	0	0	1	0	1,992515418759347E+005	1,0023335E+000	1,0017304E+000	-1,795267508288636E-001	1,000000000000000E+000	-1,7415610E-001	40	-1,7983741E-004
2	0	0	1	0	1,992704347788910E+005	1,0165277E+000	1,0159236E+000	-1,475915703781316E-001	1,000000000000000E+000	-1,7721103E-001	40	-1,4994176E-004
2	0	0	1	0	1,992904266820187E+005	1,0365195E+000	1,0359164E+000	-1,287919838076630E-001	1,000000000000000E+000	-1,7995757E-001	40	-1,3341774E-004
2	0	0	1	0	1,993104185851468E+005	1,0565114E+000	1,0559232E+000	-1,149446589637592E-001	1,000000000000000E+000	-1,8238330E-001	40	-1,2137274E-004
2	0	0	1	0	1,993304103882746E+005	1,0765032E+000	1,0759169E+000	-1,038278231897887E-001	1,000000000000000E+000	-1,8456140E-001	40	-1,1171011E-004
2	0	0	1	0	1,993504021914024E+005	1,0964949E+000	1,0959004E+000	-9,458968949033697E-002	1,000000000000000E+000	-1,8653747E-001	40	-1,0366088E-004
2	0	0	1	0	1,993703940945303E+005	1,1164870E+000	1,1158692E+000	-8,670733982195955E-002	1,000000000000000E+000	-1,8834305E-001	40	-9,6754047E-005
2	0	0	1	0	1,993903859976586E+005	1,1364788E+000	1,1358738E+000	-7,977888937226596E-002	1,000000000000000E+000	-1,9000147E-001	40	-9,0618749E-005
2	0	0	1	0	1,994103778007864E+005	1,1564705E+000	1,1558460E+000	-7,363531068051921E-002	1,000000000000000E+000	-1,9152963E-001	40	-8,5111082E-005
2	0	0	1	0	1,994303696039147E+005	1,1764623E+000	1,1758395E+000	-6,813366907861473E-002	1,000000000000000E+000	-1,9294137E-001	40	-8,0114260E-005
2	0	0	1	0	1,994503615070421E+005	1,1964543E+000	1,1958376E+000	-6,305665495527674E-002	1,000000000000000E+000	-1,9424748E-001	40	-7,5405522E-005
2	0	0	1	0	1,994703534101709E+005	1,2164460E+000	1,2158380E+000	-5,838800401433530E-002	1,000000000000000E+000	-1,9545650E-001	40	-7,0990354E-005
2	0	0	1	0	1,994903452132978E+005	1,2364379E+000	1,2358127E+000	-5,403570407035452E-002	1,000000000000000E+000	-1,9657558E-001	40	-6,6778004E-005
2	0	0	1	0	1,995103371164268E+005	1,2564299E+000	1,2558324E+000	-4,991909654622706E-002	1,000000000000000E+000	-1,9761041E-001	40	-6,2690022E-005
2	0	0	1	0	1,995303289195538E+005	1,2764217E+000	1,2758542E+000	-4,597156238235156E-002	1,000000000000000E+000	-1,9856371E-001	41	-5,8653011E-005
2	0	0	1	0	1,995503208226827E+005	1,2964134E+000	1,2958788E+000	-4,223918045797748E-002	1,000000000000000E+000	-1,9944093E-001	41	-5,4736858E-005
2	0	0	1	0	1,995703126258099E+005	1,3164052E+000	1,3158282E+000	-3,864508505439902E-002	1,000000000000000E+000	-2,0024531E-001	41	-5,0850293E-005
2	0	0	1	0	1,995903045289377E+005	1,3363973E+000	1,3358160E+000	-3,514973250582232E-002	1,000000000000000E+000	-2,0097867E-001	41	-4,6953577E-005
2	0	0	1	0	1,996102963320664E+005	1,3563892E+000	1,3557768E+000	-3,167530951785374E-002	1,000000000000000E+000	-2,0164253E-001	41	-4,2944648E-005
2	0	0	1	0	1,996302882351941E+005	1,3763808E+000	1,3757840E+000	-2,816375130413398E-002	1,000000000000000E+000	-2,0223668E-001	41	-3,8747239E-005
2	0	0	1	0	1,996502800383224E+005	1,3963727E+000	1,3957413E+000	-2,462274364793862E-002	1,000000000000000E+000	-2,0276038E-001	41	-3,4366982E-005
2	0	0	1	0	1,996702719414504E+005	1,4163647E+000	1,4157615E+000	-2,083662672828068E-002	1,000000000000000E+000	-2,0321085E-001	41	-2,9499693E-005
2	0	0	1	0	1,996902638445784E+005	1,4363565E+000	1,4357507E+000	-1,679678801962793E-002	1,000000000000000E+000	-2,0358342E-001	41	-2,4116001E-005
2	0	0	1	0	1,997102556477059E+005	1,4563482E+000	1,4557662E+000	-1,235130830612746E-002	1,000000000000000E+000	-2,0387149E-001	41	-1,7980617E-005
2	0	0	1	0	1,997302474508341E+005	1,4763401E+000	1,4757131E+000	-7,340019454470999E-003	1,000000000000000E+000	-2,0406535E-001	41	-1,0831763E-005
2	0	0	1	0	1,997503392539774E+005	1,4964317E+000	1,4958410E+000	-1,367417162150621E-003	1,000000000000000E+000	-2,0415026E-001	42	-2,0454386E-006
2	1	0	1	0	1,997703312571051E+005	1,5164238E+000	1,5157387E+000	6,062743891934008E-003	1,000000000000000E+000	-2,0410238E-001	42	9,1895354E-006
2	1	0	1	0	1,997903230602331E+005	1,5364155E+000	1,5357816E+000	1,612732530483413E-002	1,000000000000000E+000	-2,0388150E-001	41	2,4768049E-005
2	1	0	1	0	1,998103148633610E+005	1,5564075E+000	1,5557402E+000	3,036467051819258E-002	1,000000000000000E+000	-2,0342124E-001	41	4,7239540E-005
2	1	0	1	0	1,998303067664895E+005	1,5763993E+000	1,5757189E+000	5,159652809865489E-002	1,000000000000000E+000	-2,0261537E-001	41	8,1301623E-005
2	1	0	1	0	1,998502985696169E+005	1,5963911E+000	1,5957879E+000	1,099286415907348E-001	1,000000000000000E+000	-2,0110244E-001	40	1,7542280E-004
2	1	0	1	0	1,998702903727456E+005	1,6163830E+000	1,6157398E+000	2,030552980832310E-001	1,000000000000000E+000	-1,9798167E-001	40	3,2808454E-004
2	1	0	1	0	1,998902822758727E+005	1,6363746E+000	1,6357235E+000	3,036473114924956E-001	1,000000000000000E+000	-1,9292572E-001	40	4,9668306E-004
2	1	0	1	0	1,999102741790013E+005	1,6563667E+000	1,6556933E+000	4,179184329185848E-001	1,000000000000000E+000	-1,8573530E-001	40	6,9194473E-004
2	1	0	1	0	1,999302660821287E+005	1,6763585E+000	1,6756730E+000	5,545230610127527E-001	1,000000000000000E+000	-1,7605086E-001	40	9,2919933E-004
2	1	0	1	0	1,999502578852572E+005	1,6963502E+000	1,6956787E+000	7,221684765718699E-001	1,000000000000000E+000	-1,6333704E-001	40	1,2245657E-003
2	1	0	1	0	1,999702496883851E+005	1,7163421E+000	1,7156863E+000	9,225187913731558E-001	1,000000000000000E+000	-1,4693463E-001	40	1,5827529E-003
2	1	0	1	0	1,999902416915130E+005	1,7363341E+000	1,7357615E+000	1,140722375092674E+000	1,000000000000000E+000	-1,2629549E-001	39	1,9800221E-003
2	1	0	1	0	2,000102334946411E+005	1,7563260E+000	1,7557558E+000	1,323679282833542E+000	1,000000000000000E+000	-1,0151508E-001	39	2,3240575E-003
2	1	0	1	0	2,000302252977686E+005	1,7763175E+000	1,7757174E+000	1,346326637700550E+000	1,000000000000000E+000	-7,4400216E-002	39	2,3906955E-003
2	1	0	1	0	2,000502172008973E+005	1,7963095E+000	1,7957678E+000	1,068164104220332E+000	1,000000000000000E+000	-4,9755763E-002	39	1,9181747E-003
2	1	0	1	0	2,000702091040248E+005	1,8163015E+000	1,8157299E+000	6,162214738977729E-001	1,000000000000000E+000	-3,2885358E-002	39	1,1188918E-003
2	1	0	1	0	2,000902009071531E+005	1,8362932E+000	1,8356688E+000	2,838013633458107E-001	1,000000000000000E+000	-2,4255730E-002	40	5,2096532E-004
2	1	0	1	0	2,001101927102804E+005	1,8562850E+000	1,8556758E+000	1,529475012755163E-001	1,000000000000000E+000	-2,0125974E-002	40	2,8382099E-004
2	1	0	1	0	2,001301846134090E+005	1,8762771E+000	1,8756728E+000	1,066384214633767E-001	1,000000000000000E+000	-1,7585240E-002	40	2,0001878E-004
2	1	0	1	0	2,001501765165366E+005	1,8962687E+000	1,8956991E+000	8,317479312303699E-002	1,000000000000000E+000	-1,5698833E-002	40	1,5767438E-004
2	1	0	1	0	2,001701683196649E+005	1,9162608E+000	1,9156755E+000	6,881919441710771E-002	1,000000000000000E+000	-1,4180037E-002	40	1,3183524E-004
2	1	0	1	0	2,001901601227925E+005	1,9362525E+000	1,9356445E+000	5,978728047671666E-002	1,000000000000000E+000	-1,2890603E-002	40	1,1572692E-004
2	1	0	1	0	2,002101520259203E+005	1,9562443E+000	1,9556706E+000	5,316295511645625E-002	1,000000000000000E+000	-1,1752859E-002	40	1,0396923E-004
2	1	0	1	0	2,002301439290482E+005	1,9762362E+000	1,9755670E+000	4,755311322095324E-002	1,000000000000000E+000	-1,0738110E-002	41	9,3944363E-005
2	1	0	1	0	2,002501357321762E+005	1,9962280E+000	1,9956161E+000	4,293428937629651E-002	1,000000000000000E+000	-9,8251011E-003	41	8,5680360E-005
2	1	0	1	0	2,002701277353039E+005	2,0162199E+000	2,0155880E+000	3,911703489495014E-002	1,000000000000000E+000	-8,9954101E-003	41	7,8843826E-005
2	1	0	1	0	2,002901194384322E+005	2,0362117E+000	2,0355947E+000	3,541060036535992E-002	1,000000000000000E+000	-8,2397815E-003	41	7,2081632E-005
2	1	0	1	0	2,003101114415599E+005	2,0562036E+000	2,0555723E+000	3,175365877770847E-002	1,000000000000000E+000	-7,5594126E-003	41	6,5271939E-005
2	1	0	1	0	2,003301032446884E+005	2,0761955E+000	2,0755732E+000	2,893975476755417E-002	1,000000000000000E+000	-6,9441674E-003	41	6,0066581E-005
2	1	0	1	0	2,003500952478158E+005	2,0961871E+000	2,0955589E+000	2,652936541961176E-002	1,000000000000000E+000	-6,3799950E-003	41	5,5593846E-005
2	1	0	1	0	2,003700869509443E+005	2,1161788E+000	2,1155632E+000	2,408616713160089E-002	1,000000000000000E+000	-5,8642142E-003	41	5,0955809E-005
2	1	0	1	0	2,003900789540717E+005	2,1361709E+000	2,1355448E+000	2,235229210546397E-002	1,000000000000000E+000	-5,3907493E-003	41	4,7734320E-005
2	1	0	1	0	2,004100707572009E+005	2,1561625E+000	2,1555679E+000	2,119671506970094E-002	1,000000000000000E+000	-4,9456828E-003	41	4,5690958E-005
2	1	0	1	0	2,004300626603280E+005	2,1761546E+000	2,1755464E+000	2,019770956296194E-002	1,000000000000000E+000	-4,5221192E-003	41	4,3941054E-005
2	1	0	1	0	2,004500545634562E+005	2,1961465E+000	2,1955423E+000	1,915060182400463E-002	1,000000000000000E+000	-4,1187564E-003	41	4,2045958E-005
2	1	0	1	0	2,004700463665843E+005	2,2161384E+000	2,2155273E+000	1,802707932937919E-002	1,000000000000000E+000	-3,7368808E-003	41	3,9939485E-005
2	1	0	1	0	2,004900381697118E+005	2,2361298E+000	2,2355185E+000	1,714611601976473E-002	1,000000000000000E+000	-3,3759144E-003	41	3,8330458E-005
2	1	0	1	0	2,005100300728404E+005	2,2561219E+000	2,2555106E+000	1,643717242644957E-002	1,000000000000000E+000	-3,0299991E-003	41	3,7074216E-005
2	1	0	1	0	2,005300218759673E+005	2,2761140E+000	2,2755108E+000	1,562301949794490E-002	1,000000000000000E+000	-2,7001956E-003	41	3,5550351E-005
2	1	0	1	0	2,005500138790964E+005	2,2961056E+000	2,2954676E+000	1,519059979357826E-002	1,000000000000000E+000	-2,3827336E-003	41	3,4869528E-005
2	1	0	1	0	2,005700057822242E+005	2,3160973E+000	2,3155007E+000	1,484861071740945E-002	1,000000000000000E+000	-2,0727669E-003	41	3,4381970E-005
2	1	0	1	0	2,005899975853520E+005	2,3360894E+000	2,3354807E+000	1,457618452508466E-002	1,000000000000000E+000	-1,7690177E-003	41	3,4042398E-005
2	1	0	1	0	2,006099894884797E+005	2,3560810E+000	2,3554785E+000	1,434060577879637E-002	1,000000000000000E+000	-1,4705374E-003	41	3,3778990E-005
2	1	0	1	0	2,006299813916080E+005	2,3760726E+000	2,3754621E+000	1,410714743503656E-002	1,000000000000000E+000	-1,1765034E-003	41	3,3510994E-005
2	1	0	1	0	2,006499731947356E+005	2,3960648E+000	2,3954914E+000	1,394121701450726E-002	1,000000000000000E+000	-8,8613265E-004	41	3,3396063E-005
2	1	0	1	0	2,006699650978639E+005	2,4160569E+000	2,4154501E+000	1,380992133894846E-002	1,000000000000000E+000	-5,9883250E-004	41	3,3357177E-005
2	1	0	1	0	2,006899569009915E+005	2,4360487E+000	2,4354777E+000	1,370178024015548E-002	1,000000000000000E+000	-3,1411916E-004	41	3,3370379E-005
2	1	0	1	0	2,007099487041198E+005	2,4560404E+000	2,4554539E+000	1,358935045822204E-002	1,000000000000000E+000	-3,1632400E-005	41	3,3368022E-005
2	1	0	1	0	2,007299407072472E+005	2,4760325E+000	2,4754355E+000	1,354093433374731E-002	1,000000000000000E+000	2,4920134E-004	41	3,3519711E-005
2	1	0	1	0	2,007499325103755E+005	2,4960241E+000	2,4954536E+000	1,350484339201859E-002	1,000000000000000E+000	5,2881282E-004	41	3,3700711E-005
2	1	0	1	0	2,007699244135031E+005	2,5160153E+000	2,5154498E+000	1,345530485176846E-002	1,000000000000000E+000	8,0784847E-004	41	3,3846143E-005
2	1	0	1	0	2,007899162166319E+005	2,5360076E+000	2,5354314E+000	1,349045735996476E-002	1,000000000000000E+000	1,0868338E-003	41	3,4204128E-005
2	1	0	1	0	2,008099082197589E+005	2,5559995E+000	2,5554011E+000	1,351440419287080E-002	1,000000000000000E+000	1,3663287E-003	41	3,4534722E-005
2	1	0	1	0	2,008299000228876E+005	2,5759912E+000	2,5754378E+000	1,360878478870151E-002	1,000000000000000E+000	1,6470794E-003	41	3,5048579E-005
2	1	0	1	0	2,008498919260149E+005	2,5959833E+000	2,5953979E+000	1,373958479464954E-002	1,000000000000000E+000	1,9298355E-003	41	3,5659690E-005
2	1	0	1	0	2,008698838291438E+005	2,6159749E+000	2,6154191E+000	1,390738158603147E-002	1,000000000000000E+000	2,2153798E-003	41	3,6373633E-005
2	1	0	1	0	2,008898755322708E+005	2,6359668E+000	2,6353767E+000	1,408493715630006E-002	1,000000000000000E+000	2,5043748E-003	41	3,7119116E-005
2	1	0	1	0	2,009098674353999E+005	2,6559584E+000	2,6554067E+000	1,432456655990409E-002	1,000000000000000E+000	2,7977165E-003	41	3,8037550E-005
2	1	0	1	0	2,009298593385270E+005	2,6759508E+000	2,6753650E+000	1,458830376598125E-002	1,000000000000000E+000	3,0962052E-003	41	3,9029037E-005
2	1	0	1	0	2,009498512416547E+005	2,6959424E+000	2,6953545E+000	1,492630718961024E-002	1,000000000000000E+000	3,4007421E-003	41	4,0231687E-005
2	1	0	1	1	2,009684438445633E+005	2,6854467E+000	2,6848440E+000	8,149629209647707E-003	1,000000000000000E+000	3,6023469E-003	41	2,1880483E-005
2	1	0	1	1	2,009884356476925E+005	2,6654549E+000	2,6648247E+000	5,296738109090593E-003	1,000000000000000E+000	3,7251427E-003	42	1,4114878E-005
2	1	0	1	1	2,010084276508205E+005	2,6454628E+000	2,6448140E+000	3,627711842168292E-003	1,000000000000000E+000	3,8055237E-003	42	9,5946234E-006
2	1	0	1	1	2,010284194539483E+005	2,6254711E+000	2,6248741E+000	2,533188770823900E-003	1,000000000000000E+000	3,8586687E-003	42	6,6493017E-006
2	1	0	1	1	2,010484112570761E+005	2,6054792E+000	2,6048861E+000	1,653432242589625E-003	1,000000000000000E+000	3,8920681E-003	42	4,3070027E-006
2	1	0	1	1	2,010684032602042E+005	2,5854871E+000	2,5848830E+000	9,682524198594794E-004	1,000000000000000E+000	3,9099725E-003	42	2,5028191E-006
2	1	0	1	1	2,010883949633320E+005	2,5654955E+000	2,5649123E+000	3,853921582943187E-004	1,000000000000000E+000	3,9152014E-003	42	9,8849705E-007
2	1	0	1	1	2,011083867664600E+005	2,5455039E+000	2,5449603E+000	-1,217488782954566E-004	1,000000000000000E+000	3,9095664E-003	42	-3,0984606E-007
2	0	0	1	1	2,011283787695877E+005	2,5255117E+000	2,5249529E+000	-5,993961412981055E-004	1,000000000000000E+000	3,8941992E-003	42	-1,5134470E-006
2	0	0	1	1	2,011483704727162E+005	2,5055199E+000	2,5049667E+000	-1,007335866309670E-003	1,000000000000000E+000	3,8700530E-003	42	-2,5233428E-006
2	0	0	1	1	2,011683623758436E+005	2,4855285E+000	2,4849570E+000	-1,410920923626838E-003	1,000000000000000E+000	3,8377754E-003	42	-3,5060777E-006
2	0	0	1	1	2,011883540789722E+005	2,4655366E+000	2,4650145E+000	-1,772133734312835E-003	1,000000000000000E+000	3,7979221E-003	42	-4,3683353E-006
2	0	0	1	1	2,012083460820992E+005	2,4455445E+000	2,4450068E+000	-2,118986158162296E-003	1,000000000000000E+000	3,7509606E-003	42	-5,1809357E-006
2	0	0	1	1	2,012283378852280E+005	2,4255528E+000	2,4250193E+000	-2,466798650858221E-003	1,000000000000000E+000	3,6972773E-003	42	-5,9820341E-006
2	0	0	1	1	2,012483297883552E+005	2,4055610E+000	2,4050200E+000	-2,761450310721565E-003	1,000000000000000E+000	3,6372056E-003	42	-6,6413431E-006
2	0	0	1	1	2,012683216914842E+005	2,3855689E+000	2,3850548E+000	-3,062235553257173E-003	1,000000000000000E+000	3,5711110E-003	42	-7,3035999E-006
2	0	0	1	1	2,012883133946110E+005	2,3655775E+000	2,3650455E+000	-3,331619458793747E-003	1,000000000000000E+000	3,4991687E-003	42	-7,8794319E-006
2	0	0	1	1	2,013083052977403E+005	2,3455851E+000	2,3450494E+000	-3,625470052984470E-003	1,000000000000000E+000	3,4215478E-003	42	-8,5019064E-006
2	0	0	1	1	2,013282972008672E+005	2,3255937E+000	2,3250530E+000	-3,891207870769117E-003	1,000000000000000E+000	3,3383889E-003	42	-9,0472640E-006
2	0	0	1	1	2,013482889039954E+005	2,3056016E+000	2,3050766E+000	-4,216277455638365E-003	1,000000000000000E+000	3,2496478E-003	42	-9,7188422E-006
2	0	0	1	1	2,013682808071236E+005	2,2856097E+000	2,2850747E+000	-4,496723315052568E-003	1,000000000000000E+000	3,1552836E-003	42	-1,0275348E-005
2	0	0	1	1	2,013882726102509E+005	2,2656181E+000	2,2651160E+000	-4,782507181743044E-003	1,000000000000000E+000	3,0550207E-003	42	-1,0832933E-005
2	0	0	1	1	2,014082645133797E+005	2,2456262E+000	2,2451215E+000	-5,082393572273861E-003	1,000000000000000E+000	2,9487717E-003	42	-1,1410591E-005
2	0	0	1	1	2,014282563165063E+005	2,2256341E+000	2,2251351E+000	-5,407382865657645E-003	1,000000000000000E+000	2,8362577E-003	42	-1,2032157E-005
2	0	0	1	1	2,014482482196355E+005	2,2056425E+000	2,2051666E+000	-5,721365225158870E-003	1,000000000000000E+000	2,7174281E-003	42	-1,2616563E-005
2	0	0	1	1	2,014682400227627E+005	2,1856506E+000	2,1851530E+000	-6,087757290946599E-003	1,000000000000000E+000	2,5917464E-003	42	-1,3302682E-005
2	0	0	1	1	2,014882318258914E+005	2,1656590E+000	2,1651793E+000	-6,455140264104320E-003	1,000000000000000E+000	2,4588616E-003	42	-1,3976536E-005
2	0	0	1	1	2,015082238290198E+005	2,1456671E+000	2,1451883E+000	-6,835539127718615E-003	1,000000000000000E+000	2,3184447E-003	42	-1,4663518E-005
2	0	0	1	1	2,015282156321472E+005	2,1256752E+000	2,1251831E+000	-7,248670056842210E-003	1,000000000000000E+000	2,1701457E-003	42	-1,5404752E-005
2	0	0	1	1	2,015482073352751E+005	2,1056833E+000	2,1052008E+000	-7,675835046832329E-003	1,000000000000000E+000	2,0134882E-003	42	-1,6159174E-005
2	0	0	1	1	2,015681993384031E+005	2,0856912E+000	2,0852051E+000	-8,125473905143663E-003	1,000000000000000E+000	1,8479554E-003	42	-1,6943279E-005
2	0	0	1	1	2,015881910415308E+005	2,0656996E+000	2,0652182E+000	-8,599129527522932E-003	1,000000000000000E+000	1,6730482E-003	42	-1,7759079E-005
2	0	0	1	1	2,016081829446591E+005	2,0457077E+000	2,0451388E+000	-9,050575276327091E-003	1,000000000000000E+000	1,4881169E-003	41	-1,8509683E-005
2	0	0	1	1	2,016281747477865E+005	2,0257158E+000	2,0251465E+000	-9,635762833813760E-003	1,000000000000000E+000	1,2924663E-003	41	-1,9513831E-005
2	0	0	1	1	2,016481667509153E+005	2,0057240E+000	2,0051684E+000	-1,020369399291547E-002	1,000000000000000E+000	1,0853518E-003	41	-2,0460126E-005
2	0	0	1	1	2,016681585540425E+005	1,9857322E+000	1,9851449E+000	-1,092021909895415E-002	1,000000000000000E+000	8,6548692E-004	41	-2,1678217E-005
2	0	0	1	1	2,016881503571710E+005	1,9657403E+000	1,9651582E+000	-1,164220916359537E-002	1,000000000000000E+000	6,3117425E-004	41	-2,2878783E-005
2	0	0	1	1	2,017081422602980E+005	1,9457487E+000	1,9451307E+000	-1,251597839232438E-002	1,000000000000000E+000	3,8065948E-004	41	-2,4345214E-005
2	0	0	1	1	2,017281341634272E+005	1,9257567E+000	1,9251807E+000	-1,345005133449867E-002	1,000000000000000E+000	1,1225604E-004	41	-2,5893778E-005
2	0	0	1	1	2,017481259665540E+005	1,9057648E+000	1,9051821E+000	-1,450181213923409E-002	1,000000000000000E+000	-1,7630895E-004	41	-2,7628594E-005
2	0	0	1	1	2,017681177696832E+005	1,8857732E+000	1,8851923E+000	-1,567011845845562E-002	1,000000000000000E+000	-4,8687434E-004	41	-2,9541186E-005
2	0	0	1	1	2,017870099726389E+005	1,8668809E+000	1,8662726E+000	-1,683754460376445E-002	2,000000000000000E+000	-8,0229080E-004	41	-3,1423449E-005
2	0	0	1	1	2,018070018757660E+005	1,8468889E+000	1,8463229E+000	-1,822915002075165E-002	2,000000000000000E+000	-1,1615809E-003	41	-3,3656896E-005
2	0	0	1	1	2,018269937788947E+005	1,8268970E+000	1,8263077E+000	-1,972366301660378E-002	2,000000000000000E+000	-1,5498622E-003	41	-3,6021476E-005
2	0	0	1	1	2,018469855820219E+005	1,8069053E+000	1,8063488E+000	-2,127809683688547E-002	2,000000000000000E+000	-1,9688285E-003	41	-3,8435664E-005
2	0	0	1	1	2,018669773851507E+005	1,7869133E+000	1,7863296E+000	-2,285611187701087E-002	2,000000000000000E+000	-2,4186501E-003	41	-4,0828549E-005
2	0	0	1	1	2,018869692882778E+005	1,7669216E+000	1,7663571E+000	-2,454336646556610E-002	2,000000000000000E+000	-2,9012014E-003	41	-4,3352349E-005
2	0	0	1	1	2,019069611914069E+005	1,7469295E+000	1,7463742E+000	-2,623967051023263E-002	2,000000000000000E+000	-3,4174584E-003	41	-4,5824287E-005
2	0	0	1	1	2,019269529945340E+005	1,7269378E+000	1,7263755E+000	-2,803117130067079E-002	2,000000000000000E+000	-3,9683483E-003	41	-4,8392325E-005
2	0	0	1	1	2,019469447976621E+005	1,7069460E+000	1,7063817E+000	-3,002822583547736E-002	2,000000000000000E+000	-4,5567402E-003	41	-5,1239615E-005
2	0	0	1	1	2,019669367007904E+005	1,6869543E+000	1,6863886E+000	-3,259319738161731E-002	2,000000000000000E+000	-5,1901792E-003	41	-5,4964796E-005
2	0	0	1	1	2,019869285039175E+005	1,6669624E+000	1,6663976E+000	-3,633621422652406E-002	2,000000000000000E+000	-5,8857179E-003	41	-6,0550577E-005
2	0	0	1	1	2,020069204070464E+005	1,6469704E+000	1,6464150E+000	-4,189147929659343E-002	2,000000000000000E+000	-6,6739488E-003	41	-6,8970759E-005
2	0	0	1	1	2,020269122101739E+005	1,6269785E+000	1,6263961E+000	-5,017134294504277E-002	2,000000000000000E+000	-7,5985380E-003	41	-8,1598475E-005
2	0	0	1	1	2,020469040133022E+005	1,6069866E+000	1,6064579E+000	-6,125259132622130E-002	2,000000000000000E+000	-8,7152347E-003	41	-9,8399709E-005
2	0	0	1	1	2,020668959164303E+005	1,5869949E+000	1,5864613E+000	-7,606647098506947E-002	2,000000000000000E+000	-1,0091150E-002	41	-1,2067652E-004
2	0	0	1	1	2,020868878195581E+005	1,5670029E+000	1,5665168E+000	-9,602681366187338E-002	2,000000000000000E+000	-1,1811001E-002	41	-1,5042762E-004
2	0	0	1	1	2,021068796226857E+005	1,5470113E+000	1,5464250E+000	-1,271744959938882E-001	2,000000000000000E+000	-1,4028572E-002	40	-1,9666582E-004
2	0	0	1	1	2,021268714258140E+005	1,5270194E+000	1,5264629E+000	-1,984434362492866E-001	2,000000000000000E+000	-1,7181061E-002	40	-3,0291654E-004
2	0	0	1	1	2,021468633289416E+005	1,5070276E+000	1,5064592E+000	-3,100765501852205E-001	2,000000000000000E+000	-2,2292845E-002	40	-4,6711767E-004
2	0	0	1	1	2,021668552320697E+005	1,4870356E+000	1,4864992E+000	-3,921630349640703E-001	2,000000000000000E+000	-2,9385997E-002	40	-5,8295002E-004
2	0	0	1	1	2,021868469351975E+005	1,4670439E+000	1,4664929E+000	-4,382058101030881E-001	2,000000000000000E+000	-3,7752371E-002	40	-6,4262573E-004
2	0	0	1	1	2,022068387383260E+005	1,4470521E+000	1,4465102E+000	-4,551709087834013E-001	2,000000000000000E+000	-4,6734031E-002	40	-6,5840938E-004
2	0	0	1	1	2,022268306414532E+005	1,4270602E+000	1,4265156E+000	-4,520007665565945E-001	2,000000000000000E+000	-5,5837467E-002	40	-6,4478611E-004
2	0	0	1	1	2,022468225445817E+005	1,4070684E+000	1,4065363E+000	-4,371759086141243E-001	2,000000000000000E+000	-6,4748332E-002	40	-6,1490381E-004
2	0	0	1	1	2,022668143477089E+005	1,3870765E+000	1,3865592E+000	-4,164949454351374E-001	2,000000000000000E+000	-7,3296055E-002	40	-5,7749491E-004
2	0	0	1	1	2,022868062508376E+005	1,3670845E+000	1,3665543E+000	-3,937859297301238E-001	2,000000000000000E+000	-8,1406139E-002	40	-5,3812983E-004
2	0	0	1	1	2,023067980539649E+005	1,3470929E+000	1,3465254E+000	-3,710248319218952E-001	2,000000000000000E+000	-8,9058988E-002	40	-4,9959437E-004
2	0	0	1	1	2,023267898570937E+005	1,3271008E+000	1,3265735E+000	-3,492071954351859E-001	2,000000000000000E+000	-9,6264832E-002	40	-4,6324902E-004
2	0	0	1	1	2,023467817602210E+005	1,3071091E+000	1,3065534E+000	-3,289439120916242E-001	2,000000000000000E+000	-1,0304919E-001	40	-4,2978278E-004
2	0	0	1	1	2,023667736633499E+005	1,2871172E+000	1,2865850E+000	-3,102103869212858E-001	2,000000000000000E+000	-1,0944376E-001	40	-3,9911203E-004
2	0	0	1	1	2,023867653664773E+005	1,2671255E+000	1,2665596E+000	-2,932023036273486E-001	2,000000000000000E+000	-1,1548098E-001	40	-3,7135818E-004
2	0	0	1	1	2,024067572696051E+005	1,2471335E+000	1,2465855E+000	-2,776736647037490E-001	2,000000000000000E+000	-1,2119269E-001	40	-3,4614396E-004
2	0	0	1	1	2,024267490727335E+005	1,2271417E+000	1,2265785E+000	-2,635792212664229E-001	2,000000000000000E+000	-1,2660851E-001	40	-3,2330060E-004
2	0	0	1	1	2,024467409758614E+005	1,2071499E+000	1,2065953E+000	-2,508124978380211E-001	2,000000000000000E+000	-1,3175617E-001	40	-3,0262917E-004
2	0	0	1	1	2,024667327789895E+005	1,1871581E+000	1,1865838E+000	-2,392907000723129E-001	2,000000000000000E+000	-1,3666056E-001	40	-2,8393845E-004
2	0	0	1	1	2,024867245821171E+005	1,1671664E+000	1,1665875E+000	-2,288795453070316E-001	2,000000000000000E+000	-1,4134508E-001	40	-2,6700800E-004
2	0	0	1	1	2,025067164852452E+005	1,1471744E+000	1,1465963E+000	-2,194633876582759E-001	2,000000000000000E+000	-1,4583184E-001	40	-2,5163591E-004
2	0	0	1	1	2,025267083883733E+005	1,1271826E+000	1,1265948E+000	-2,110379975827077E-001	2,000000000000000E+000	-1,5013996E-001	40	-2,3775431E-004
2	0	0	1	1	2,025467001915011E+005	1,1071907E+000	1,1066089E+000	-2,035312913474510E-001	2,000000000000000E+000	-1,5428898E-001	40	-2,2522954E-004
2	0	0	1	1	2,025666920946296E+005	1,0871987E+000	1,0866096E+000	-1,969717683463128E-001	2,000000000000000E+000	-1,5829737E-001	40	-2,1403142E-004
2	0	0	1	1	2,025866837977569E+005	1,0672071E+000	1,0666314E+000	-1,912168931721880E-001	2,000000000000000E+000	-1,6218200E-001	40	-2,0395796E-004
2	0	0	1	1	2,026066757008848E+005	1,0472152E+000	1,0465980E+000	-1,863573125646383E-001	2,000000000000000E+000	-1,6596004E-001	40	-1,9504118E-004
2	0	0	1	1	2,026266675040126E+005	1,0272233E+000	1,0266168E+000	-1,822985634779357E-001	2,000000000000000E+000	-1,6964892E-001	40	-1,8715077E-004
2	0	0	1	1	2,026466593071406E+005	1,0072316E+000	1,0066267E+000	-1,792084502624780E-001	2,000000000000000E+000	-1,7326614E-001	40	-1,8039602E-004
2	0	0	1	1	2,026654524100815E+005	1,0115297E+000	1,0109365E+000	-1,529438391894522E-001	2,000000000000000E+000	-1,7643483E-001	40	-1,5461651E-004
2	0	0	1	1	2,026854443132086E+005	1,0315216E+000	1,0309325E+000	-1,321223976887913E-001	2,000000000000000E+000	-1,7926389E-001	40	-1,3620927E-004
2	0	0	1	1	2,027054361163375E+005	1,0515134E+000	1,0509365E+000	-1,173530097557667E-001	2,000000000000000E+000	-1,8174593E-001	40	-1,2333055E-004
2	0	0	1	1	2,027254279194651E+005	1,0715051E+000	1,0708927E+000	-1,057524780888757E-001	2,000000000000000E+000	-1,8396688E-001	40	-1,1324955E-004
2	0	0	1	1	2,027454199225934E+005	1,0914972E+000	1,0909230E+000	-9,615936132763730E-002	2,000000000000000E+000	-1,8597758E-001	40	-1,0490246E-004
2	0	0	1	1	2,027654117257213E+005	1,1114891E+000	1,1108909E+000	-8,806685966186667E-002	2,000000000000000E+000	-1,8781263E-001	40	-9,7832672E-005
2	0	0	1	1	2,027854035288491E+005	1,1314808E+000	1,1308935E+000	-8,101154188426862E-002	2,000000000000000E+000	-1,8949683E-001	40	-9,1615424E-005
2	0	0	1	1	2,028053954319768E+005	1,1514728E+000	1,1508511E+000	-7,480556811370764E-002	2,000000000000000E+000	-1,9104865E-001	40	-8,6090069E-005
2	0	0	1	1	2,028253872351048E+005	1,1714644E+000	1,1708653E+000	-6,919134955971074E-002	2,000000000000000E+000	-1,9248228E-001	40	-8,1013750E-005
2	0	0	1	1	2,028453791382327E+005	1,1914563E+000	1,1908474E+000	-6,409428160529640E-002	2,000000000000000E+000	-1,9380927E-001	40	-7,6326505E-005
2	0	0	1	1	2,028653709413605E+005	1,2114482E+000	1,2108434E+000	-5,940995550563788E-002	2,000000000000000E+000	-1,9503875E-001	40	-7,1936156E-005
2	0	0	1	1	2,028853628444884E+005	1,2314401E+000	1,2308320E+000	-5,502120024046959E-002	2,000000000000000E+000	-1,9617775E-001	40	-6,7721856E-005
2	0	0	1	1	2,029053547476172E+005	1,2514318E+000	1,2508340E+000	-5,094341579231759E-002	2,000000000000000E+000	-1,9723207E-001	40	-6,3721753E-005
2	0	0	1	1	2,029253465507445E+005	1,2714236E+000	1,2708855E+000	-4,698475806891281E-002	2,000000000000000E+000	-1,9820599E-001	41	-5,9712245E-005
2	0	0	1	1	2,029453383538723E+005	1,2914155E+000	1,2908672E+000	-4,326658773461661E-002	2,000000000000000E+000	-1,9910377E-001	41	-5,5851418E-005
2	0	0	1	1	2,029653302570002E+005	1,3114074E+000	1,3108268E+000	-3,972303217033690E-002	2,000000000000000E+000	-1,9992897E-001	41	-5,2070016E-005
2	0	0	1	1	2,029853221601285E+005	1,3313993E+000	1,3308395E+000	-3,623880967422821E-002	2,000000000000000E+000	-2,0068377E-001	41	-4,8228041E-005
2	0	0	1	1	2,030053139632558E+005	1,3513910E+000	1,3508258E+000	-3,279357463956095E-002	2,000000000000000E+000	-2,0136948E-001	41	-4,4298406E-005
2	0	0	1	1	2,030253057663846E+005	1,3713827E+000	1,3708171E+000	-2,935201458119929E-002	2,000000000000000E+000	-2,0198661E-001	41	-4,0236242E-005
2	0	0	1	1	2,030452976695118E+005	1,3913748E+000	1,3907773E+000	-2,584034837835564E-002	2,000000000000000E+000	-2,0253409E-001	41	-3,5938170E-005
2	0	0	1	1	2,030652895726403E+005	1,4113666E+000	1,4107517E+000	-2,216143370897369E-002	2,000000000000000E+000	-2,0300981E-001	41	-3,1264281E-005
2	0	0	1	1	2,030852813757680E+005	1,4313585E+000	1,4307437E+000	-1,823908273624694E-002	2,000000000000000E+000	-2,0340960E-001	41	-2,6095453E-005
2	0	0	1	1	2,031052731788959E+005	1,4513502E+000	1,4507656E+000	-1,389791593793185E-002	2,000000000000000E+000	-2,0372733E-001	41	-2,0162619E-005
2	0	0	1	1	2,031252650820245E+005	1,4713422E+000	1,4707232E+000	-9,057525400779406E-003	2,000000000000000E+000	-2,0395371E-001	41	-1,3321112E-005
2	0	0	1	1	2,031453568851680E+005	1,4914339E+000	1,4908745E+000	-3,337457288138126E-003	2,000000000000000E+000	-2,0407568E-001	42	-4,9757300E-006
2	1	0	1	1	2,031653487882959E+005	1,5114256E+000	1,5107633E+000	3,619620080433955E-003	2,000000000000000E+000	-2,0407158E-001	42	5,4683892E-006
2	1	0	1	1	2,031853405914239E+005	1,5314176E+000	1,5308135E+000	1,298775611430043E-002	2,000000000000000E+000	-2,0390618E-001	41	1,9881832E-005
2	1	0	1	1	2,032053324945513E+005	1,5514095E+000	1,5507686E+000	2,605164667856891E-002	2,000000000000000E+000	-2,0351955E-001	41	4,0400075E-005
2	1	0	1	1	2,032253243976797E+005	1,5714015E+000	1,5707517E+000	4,507823758200491E-002	2,000000000000000E+000	-2,0281695E-001	41	7,0806716E-005
2	1	0	1	1	2,032453162008075E+005	1,5913931E+000	1,5907068E+000	9,045519592869228E-002	2,000000000000000E+000	-2,0155178E-001	41	1,4388769E-004
2	1	0	1	1	2,032653080039360E+005	1,6113850E+000	1,6107584E+000	1,816671675463910E-001	2,000000000000000E+000	-1,9885221E-001	40	2,9262193E-004
2	1	0	1	1	2,032852998070631E+005	1,6313769E+000	1,6307071E+000	2,816398100956699E-001	2,000000000000000E+000	-1,9422646E-001	40	4,5927204E-004
2	1	0	1	1	2,033052917101919E+005	1,6513687E+000	1,6506933E+000	3,933023325555425E-001	2,000000000000000E+000	-1,8749791E-001	40	6,4922153E-004
2	1	0	1	1	2,033252836133190E+005	1,6713605E+000	1,6706423E+000	5,246042655606584E-001	2,000000000000000E+000	-1,7835511E-001	40	8,7642606E-004
2	1	0	1	1	2,033452755164481E+005	1,6913525E+000	1,6906400E+000	6,846096690507117E-001	2,000000000000000E+000	-1,6631088E-001	40	1,1574285E-003
2	1	0	1	1	2,033652674195750E+005	1,7113442E+000	1,7106290E+000	8,766108000660662E-001	2,000000000000000E+000	-1,5074402E-001	40	1,4995559E-003
2	1	0	1	1	2,033852592227040E+005	1,7313360E+000	1,7307537E+000	1,090747741195042E+000	2,000000000000000E+000	-1,3108209E-001	39	1,8878157E-003
2	1	0	1	1	2,034052510258307E+005	1,7513276E+000	1,7507030E+000	1,285414742110721E+000	2,000000000000000E+000	-1,0722454E-001	39	2,2503794E-003
2	1	0	1	1	2,034252429289599E+005	1,7713197E+000	1,7707298E+000	1,355277583562465E+000	2,000000000000000E+000	-8,0472633E-002	39	2,3998304E-003
2	1	0	1	1	2,034452348320868E+005	1,7913117E+000	1,7907151E+000	1,145057979836199E+000	2,000000000000000E+000	-5,4942816E-002	39	2,0504727E-003
2	1	0	1	1	2,034652266352158E+005	1,8113034E+000	1,8107215E+000	7,093158079074868E-001	2,000000000000000E+000	-3,6251359E-002	39	1,2843733E-003
2	1	0	1	1	2,034852184383431E+005	1,8312950E+000	1,8306619E+000	3,357653840972663E-001	2,000000000000000E+000	-2,6127502E-002	40	6,1467290E-004
2	1	0	1	1	2,035052103414712E+005	1,8512872E+000	1,8506655E+000	1,705454000572281E-001	2,000000000000000E+000	-2,1356530E-002	40	3,1562248E-004
2	1	0	1	1	2,035252022445992E+005	1,8712788E+000	1,8706949E+000	1,141124793424648E-001	2,000000000000000E+000	-1,8587852E-002	40	2,1346963E-004
2	1	0	1	1	2,035451940477267E+005	1,8912708E+000	1,8906757E+000	8,748710460916143E-002	2,000000000000000E+000	-1,6588526E-002	40	1,6540974E-004
2	1	0	1	1	2,035651858508553E+005	1,9112625E+000	1,9107054E+000	7,169582557790877E-002	2,000000000000000E+000	-1,4998551E-002	40	1,3698961E-004
2	1	0	1	1	2,035851777539831E+005	1,9312544E+000	1,9306585E+000	6,172853234386866E-002	2,000000000000000E+000	-1,3662438E-002	40	1,1917672E-004
2	1	0	1	1	2,036051696571112E+005	1,9512464E+000	1,9506395E+000	5,485301653513508E-002	2,000000000000000E+000	-1,2489683E-002	40	1,0699846E-004
2	1	0	1	1	2,036251614602394E+005	1,9712380E+000	1,9706633E+000	4,900964723905418E-002	2,000000000000000E+000	-1,1441746E-002	40	9,6581512E-005
2	1	0	1	1	2,036451533633671E+005	1,9912301E+000	1,9906311E+000	4,412824106916335E-002	2,000000000000000E+000	-1,0501518E-002	41	8,7843051E-005
2	1	0	1	1	2,036651452664947E+005	2,0112219E+000	2,0105960E+000	4,013061928790679E-002	2,000000000000000E+000	-9,6502490E-003	41	8,0686463E-005
2	1	0	1	1	2,036851370696230E+005	2,0312138E+000	2,0306127E+000	3,655637308757809E-002	2,000000000000000E+000	-8,8732252E-003	41	7,4231837E-005
2	1	0	1	1	2,037051289727506E+005	2,0512056E+000	2,0505886E+000	3,283717039017053E-002	2,000000000000000E+000	-8,1695812E-003	41	6,7335524E-005
2	1	0	1	1	2,037251207758784E+005	2,0711973E+000	2,0705752E+000	2,968168175770036E-002	2,000000000000000E+000	-7,5363624E-003	41	6,1458159E-005
2	1	0	1	1	2,037451127790064E+005	2,0911894E+000	2,0905662E+000	2,721596257146669E-002	2,000000000000000E+000	-6,9581578E-003	41	5,6896770E-005
2	1	0	1	1	2,037651046821345E+005	2,1111810E+000	2,1105645E+000	2,478699778118230E-002	2,000000000000000E+000	-6,4274562E-003	41	5,2314557E-005
2	1	0	1	1	2,037850964852620E+005	2,1311729E+000	2,1305621E+000	2,271770797348083E-002	2,000000000000000E+000	-5,9435125E-003	41	4,8401485E-005
2	1	0	1	1	2,038050883883904E+005	2,1511648E+000	2,1505656E+000	2,134923282105862E-002	2,000000000000000E+000	-5,4938863E-003	41	4,5912926E-005
2	1	0	1	1	2,038250802915180E+005	2,1711566E+000	2,1705539E+000	2,031902120384177E-002	2,000000000000000E+000	-5,0674411E-003	41	4,4103530E-005
2	1	0	1	1	2,038450720946467E+005	2,1911483E+000	2,1905468E+000	1,931154323159462E-002	2,000000000000000E+000	-4,6614064E-003	41	4,2302840E-005
2	1	0	1	1	2,038650639977740E+005	2,2111404E+000	2,2105577E+000	1,817243333126406E-002	2,000000000000000E+000	-4,2764577E-003	41	4,0171213E-005
2	1	0	1	1	2,038850558009027E+005	2,2311323E+000	2,2305639E+000	1,721414548217787E-002	2,000000000000000E+000	-3,9136065E-003	41	3,8397251E-005
2	1	0	1	1	2,039050476040298E+005	2,2511241E+000	2,2505338E+000	1,653111867657420E-002	2,000000000000000E+000	-3,5666081E-003	41	3,7203841E-005
2	1	0	1	1	2,039250396071589E+005	2,2711160E+000	2,2705107E+000	1,568467547087755E-002	2,000000000000000E+000	-3,2345371E-003	41	3,5612222E-005
2	1	0	1	1	2,039450314102861E+005	2,2911077E+000	2,2904990E+000	1,517065379970434E-002	2,000000000000000E+000	-2,9164953E-003	41	3,4748366E-005
2	1	0	1	1	2,039650233134143E+005	2,3110993E+000	2,3105099E+000	1,483239261292757E-002	2,000000000000000E+000	-2,6069118E-003	41	3,4270390E-005
2	1	0	1	1	2,039850151165423E+005	2,3310909E+000	2,3304894E+000	1,453749738429080E-002	2,000000000000000E+000	-2,3037591E-003	41	3,3879485E-005
2	1	0	1	1	2,040050071196696E+005	2,3510830E+000	2,3505135E+000	1,426106539121119E-002	2,000000000000000E+000	-2,0059815E-003	41	3,3520828E-005
2	1	0	1	1	2,040249989227984E+005	2,3710749E+000	2,3704903E+000	1,408055465552727E-002	2,000000000000000E+000	-1,7128773E-003	41	3,3377819E-005
2	1	0	1	1	2,040449908259260E+005	2,3910670E+000	2,3904800E+000	1,387517509396441E-002	2,000000000000000E+000	-1,4236220E-003	41	3,3168330E-005
2	1	0	1	1	2,040649827290544E+005	2,4110587E+000	2,4104960E+000	1,374401548643781E-002	2,000000000000000E+000	-1,1375678E-003	41	3,3129894E-005
2	1	0	1	1	2,040849744321816E+005	2,4310503E+000	2,4304895E+000	1,361467589056982E-002	2,000000000000000E+000	-8,5426978E-004	41	3,3090328E-005
2	1	0	1	1	2,041049663353101E+005	2,4510422E+000	2,4504733E+000	1,353479741395448E-002	2,000000000000000E+000	-5,7324622E-004	41	3,3166660E-005
2	1	0	1	1	2,041249582384378E+005	2,4710343E+000	2,4704378E+000	1,346034206114365E-002	2,000000000000000E+000	-2,9409092E-004	41	3,3252938E-005
2	1	0	1	1	2,041449502415662E+005	2,4910262E+000	2,4904399E+000	1,339883485645335E-002	2,000000000000000E+000	-1,5961410E-005	41	3,3368993E-005
2	1	0	1	1	2,041649419446937E+005	2,5110173E+000	2,5104280E+000	1,338371095826008E-002	2,000000000000000E+000	2,6112355E-004	41	3,3598841E-005
2	1	0	1	1	2,041849339478221E+005	2,5310097E+000	2,5304198E+000	1,336657393390303E-002	2,000000000000000E+000	5,3792546E-004	41	3,3823042E-005
2	1	0	1	1	2,042049257509497E+005	2,5510015E+000	2,5504210E+000	1,341604342326244E-002	2,000000000000000E+000	8,1499532E-004	41	3,4216559E-005
2	1	0	1	1	2,042249176540775E+005	2,5709934E+000	2,5704193E+000	1,347194682618907E-002	2,000000000000000E+000	1,0930536E-003	41	3,4628552E-005
2	1	0	1	1	2,042449095572054E+005	2,5909851E+000	2,5904145E+000	1,355531761982348E-002	2,000000000000000E+000	1,3727720E-003	41	3,5113891E-005
2	1	0	1	1	2,042649013603334E+005	2,6109769E+000	2,6103821E+000	1,373358474916386E-002	2,000000000000000E+000	1,6548483E-003	41	3,5849902E-005
2	1	0	1	1	2,042848930634612E+005	2,6309690E+000	2,6304042E+000	1,388492220319495E-002	2,000000000000000E+000	1,9403026E-003	41	3,6522957E-005
2	1	0	1	1	2,043048850665893E+005	2,6509609E+000	2,6503966E+000	1,413252721107178E-002	2,000000000000000E+000	2,2297350E-003	41	3,7456801E-005
2	1	0	1	1	2,043248768697170E+005	2,6709526E+000	2,6703947E+000	1,439088159014207E-002	2,000000000000000E+000	2,5240395E-003	41	3,8429334E-005
2	1	0	1	1	2,043448687728453E+005	2,6909442E+000	2,6904140E+000	1,471215716325269E-002	2,000000000000000E+000	2,8242229E-003	41	3,9581791E-005
2	1	0	1	0	2,043634615757549E+005	2,6904447E+000	2,6899092E+000	9,115008511373771E-003	2,000000000000000E+000	3,0591791E-003	41	2,4518546E-005
2	1	0	1	0	2,043834533788823E+005	2,6704531E+000	2,6699259E+000	5,827314802057573E-003	2,000000000000000E+000	3,1953081E-003	41	1,5558498E-005
2	1	0	1	0	2,044034453820107E+005	2,6504607E+000	2,6498256E+000	3,924768030120138E-003	2,000000000000000E+000	3,2827957E-003	42	1,0399951E-005
2	1	0	1	0	2,044234371851385E+005	2,6304691E+000	2,6298649E+000	2,705688429400291E-003	2,000000000000000E+000	3,3406033E-003	42	7,1155951E-006
2	1	0	1	0	2,044434289882658E+005	2,6104772E+000	2,6098671E+000	1,801058130075923E-003	2,000000000000000E+000	3,3772481E-003	42	4,7005224E-006
2	1	0	1	0	2,044634209913946E+005	2,5904853E+000	2,5898948E+000	1,086437595881992E-003	2,000000000000000E+000	3,3978182E-003	42	2,8137590E-006
2	1	0	1	0	2,044834126945222E+005	2,5704937E+000	2,5699012E+000	4,722377919534299E-004	2,000000000000000E+000	3,4052304E-003	42	1,2136045E-006
2	1	0	1	0	2,045034044976507E+005	2,5505018E+000	2,5499413E+000	-3,836956430591473E-005	2,000000000000000E+000	3,4014247E-003	42	-9,7840136E-008
2	0	0	1	0	2,045233965007784E+005	2,5305097E+000	2,5299301E+000	-5,216699730768702E-004	2,000000000000000E+000	3,3877753E-003	42	-1,3197886E-006
2	0	0	1	0	2,045433882039064E+005	2,5105178E+000	2,5099583E+000	-9,677644407532493E-004	2,000000000000000E+000	3,3652002E-003	42	-2,4290484E-006
2	0	0	1	0	2,045633801070340E+005	2,4905264E+000	2,4899805E+000	-1,337623748616346E-003	2,000000000000000E+000	3,3343742E-003	42	-3,3306569E-006
2	0	0	1	0	2,045833718101622E+005	2,4705343E+000	2,4700069E+000	-1,717491655806400E-003	2,000000000000000E+000	3,2958896E-003	42	-4,2422162E-006
2	0	0	1	0	2,046033638132899E+005	2,4505424E+000	2,4499941E+000	-2,087683681291322E-003	2,000000000000000E+000	3,2502569E-003	42	-5,1148127E-006
2	0	0	1	0	2,046233556164182E+005	2,4305508E+000	2,4300025E+000	-2,393453317146257E-003	2,000000000000000E+000	3,1978574E-003	42	-5,8160972E-006
2	0	0	1	0	2,046433475195458E+005	2,4105589E+000	2,4100153E+000	-2,715238496728965E-003	2,000000000000000E+000	3,1390658E-003	42	-6,5437666E-006
2	0	0	1	0	2,046633394226739E+005	2,3905671E+000	2,3900537E+000	-2,996050636623657E-003	2,000000000000000E+000	3,0742073E-003	42	-7,1607219E-006
2	0	0	1	0	2,046833311258017E+005	2,3705752E+000	2,3700206E+000	-3,298881625518231E-003	2,000000000000000E+000	3,0035528E-003	42	-7,8184175E-006
2	0	0	1	0	2,047033230289295E+005	2,3505831E+000	2,3500662E+000	-3,554114340051515E-003	2,000000000000000E+000	2,9272672E-003	42	-8,3524037E-006
2	0	0	1	0	2,047233149320574E+005	2,3305914E+000	2,3300557E+000	-3,847092744481632E-003	2,000000000000000E+000	2,8454675E-003	42	-8,9639407E-006
2	0	0	1	0	2,047433066351856E+005	2,3105996E+000	2,3101013E+000	-4,106510925767866E-003	2,000000000000000E+000	2,7581558E-003	42	-9,4864563E-006
2	0	0	1	0	2,047632985383132E+005	2,2906079E+000	2,2900863E+000	-4,420235727976956E-003	2,000000000000000E+000	2,6651721E-003	42	-1,0122722E-005
2	0	0	1	0	2,047832903414415E+005	2,2706161E+000	2,2700996E+000	-4,690356653733227E-003	2,000000000000000E+000	2,5665252E-003	42	-1,0647577E-005
2	0	0	1	0	2,048032822445692E+005	2,2506242E+000	2,2501168E+000	-4,999985872679292E-003	2,000000000000000E+000	2,4619855E-003	42	-1,1250552E-005
2	0	0	1	0	2,048232740476979E+005	2,2306323E+000	2,2301731E+000	-5,293497329842915E-003	2,000000000000000E+000	2,3513942E-003	42	-1,1805416E-005
2	0	0	1	0	2,048432659508253E+005	2,2106404E+000	2,2101581E+000	-5,626970068699749E-003	2,000000000000000E+000	2,2344326E-003	42	-1,2436493E-005
2	0	0	1	0	2,048632578539536E+005	2,1906486E+000	2,1901608E+000	-5,953123688272159E-003	2,000000000000000E+000	2,1107628E-003	42	-1,3038298E-005
2	0	0	1	0	2,048832495570817E+005	2,1706569E+000	2,1701591E+000	-6,349405481689427E-003	2,000000000000000E+000	1,9801271E-003	42	-1,3779220E-005
2	0	0	1	0	2,049032415602095E+005	2,1506648E+000	2,1501560E+000	-6,736996818818675E-003	2,000000000000000E+000	1,8420331E-003	42	-1,4485594E-005
2	0	0	1	0	2,049232333633378E+005	2,1306732E+000	2,1301751E+000	-7,123042973636931E-003	2,000000000000000E+000	1,6962404E-003	42	-1,5173329E-005
2	0	0	1	0	2,049432250664653E+005	2,1106813E+000	2,1102095E+000	-7,519477314462147E-003	2,000000000000000E+000	1,5421895E-003	42	-1,5867672E-005
2	0	0	1	0	2,049632170695936E+005	2,0906894E+000	2,0902123E+000	-7,985348631021932E-003	2,000000000000000E+000	1,3796245E-003	42	-1,6691074E-005
2	0	0	1	0	2,049832087727217E+005	2,0706975E+000	2,0702417E+000	-8,457754038845286E-003	2,000000000000000E+000	1,2078130E-003	42	-1,7509596E-005
2	0	0	1	0	2,050032006758496E+005	2,0507057E+000	2,0501652E+000	-8,951645623980681E-003	2,000000000000000E+000	1,0263125E-003	41	-1,8352352E-005
2	0	0	1	0	2,050231924789771E+005	2,0307140E+000	2,0301912E+000	-9,429805535067642E-003	2,000000000000000E+000	8,3407137E-004	41	-1,9144309E-005
2	0	0	1	0	2,050431844821053E+005	2,0107217E+000	2,0101745E+000	-1,001488924708061E-002	2,000000000000000E+000	6,3073402E-004	41	-2,0131674E-005
2	0	0	1	0	2,050631762852333E+005	1,9907302E+000	1,9902033E+000	-1,067100894071119E-002	2,000000000000000E+000	4,1495767E-004	41	-2,1237476E-005
2	0	0	1	0	2,050831680883612E+005	1,9707384E+000	1,9701843E+000	-1,141553952211545E-002	2,000000000000000E+000	1,8539061E-004	41	-2,2490716E-005
2	0	0	1	0	2,051031599914890E+005	1,9507465E+000	1,9502012E+000	-1,224357798205310E-002	2,000000000000000E+000	-5,9666192E-005	41	-2,3877439E-005
2	0	0	1	0	2,051231518946169E+005	1,9307545E+000	1,9301981E+000	-1,315729091247092E-002	2,000000000000000E+000	-3,2236625E-004	41	-2,5396177E-005
2	0	0	1	0	2,051431436977447E+005	1,9107629E+000	1,9101938E+000	-1,419677674822821E-002	2,000000000000000E+000	-6,0475909E-004	41	-2,7118595E-005
2	0	0	1	0	2,051631355008730E+005	1,8907710E+000	1,8902290E+000	-1,531282194488873E-002	2,000000000000000E+000	-9,0834638E-004	41	-2,8944740E-005
2	0	0	0	0	2,051723633023151E+005	1,8815254E+000	1,8809509E+000	-1,597346567732703E-002	2,000000000000000E+000	-1,0563231E-003	41	-3,0045305E-005