File: Dati/201027/CV_LTO-C_Al_slurrymia_01_1mVs_02_CV_C03.mpt
EC-Lab ASCII FILE
Nb header lines : 63

Cyclic Voltammetry

Run on channel : 3 (SN 6807)
User :
Electrode connection : standard
Ewe ctrl range : min = 0,00 V, max = 5,00 V
Ewe,I filtering : 50 kHz
Safety Limits :
	Do not start on E overload
Channel : Grounded
Acquisition started on : 10/27/2020 18:19:16
Saved on :
	File : CV_LTO-C_Al_slurrymia_01_1mVs_02_CV_C03.mpr
	Directory : C:\Users\labsuperfici\Desktop\Biologic\Users\Prisca Viviani\201027\
	Host : 10.78.33.0
Device : VSP-300 (SN 0638)
Address : USB
EC-Lab for windows v11.31 (software)
Internet server v11.30 (firmware)
Command interpretor v11.31 (firmware)
Electrode material :
Initial state :
Electrolyte :
Comments :
Cable : standard
Reference electrode : SCE Saturated Calomel Electrode (0,241 V)
Electrode surface area : 0,001 cm²
Characteristic mass : 0,001 g
Equivalent Weight : 0,000 g/eq.
Density : 0,000 g/cm3
Cycle Definition : Charge/Discharge alternance
Ei (V)              0,000
vs.                 Eoc
dE/dt               0,200
dE/dt unit          mV/s
E1 (V)              1,000
vs.                 Ref
Step percent        50
N                   10
E range min (V)     0,000
E range max (V)     5,000
I Range             Auto
I Range min         Unset
I Range max         Unset
I Range init        Unset
Bandwidth           8
E2 (V)              3,000
vs.                 Ref
nc cycles           2
Reverse Scan        1
Ef (V)              0,000
vs.                 Eoc

Modify on : 10/28/2020 10:35
nc cycles           1

Modify on : 10/28/2020 10:37
E2 (V)              2,700

mode	ox/red	error	control changes	counter inc.	time/s	control/V	Ewe/V	<I>/mA	cycle number	(Q-Qo)/C	I Range	P/W
2	0	0	0	0	7,400007360831974E+004	1,8815254E+000	1,8809471E+000	-2,845407463610172E-003	1,000000000000000E+000	0,0000000E+000	42	-5,3520612E-006
2	0	0	1	0	7,409778378520859E+004	1,8619827E+000	1,8614432E+000	-4,099023884080927E-003	1,000000000000000E+000	-3,6252689E-004	42	-7,6301003E-006
2	0	0	1	0	7,419774276155332E+004	1,8419908E+000	1,8414629E+000	-4,964873994174265E-003	1,000000000000000E+000	-8,2390686E-004	42	-9,1426309E-006
2	0	0	1	0	7,429770203789882E+004	1,8219992E+000	1,8214875E+000	-5,744419255526975E-003	1,000000000000000E+000	-1,3677552E-003	42	-1,0463388E-005
2	0	0	1	0	7,439766091424460E+004	1,8020073E+000	1,8015131E+000	-6,387184633404500E-003	1,000000000000000E+000	-1,9829418E-003	42	-1,1506597E-005
2	0	0	1	0	7,449762009059242E+004	1,7820156E+000	1,7815084E+000	-6,899368610210940E-003	1,000000000000000E+000	-2,6552947E-003	42	-1,2291283E-005
2	0	0	1	0	7,459757936695346E+004	1,7620237E+000	1,7615360E+000	-7,263228480744316E-003	1,000000000000000E+000	-3,3719277E-003	42	-1,2794439E-005
2	0	0	1	0	7,469753834332031E+004	1,7420317E+000	1,7415540E+000	-7,516143304418778E-003	1,000000000000000E+000	-4,1184560E-003	42	-1,3089770E-005
2	0	0	1	0	7,479749731968669E+004	1,7220401E+000	1,7215608E+000	-7,707812985533552E-003	1,000000000000000E+000	-4,8869499E-003	42	-1,3269469E-005
2	0	0	1	0	7,489745659605414E+004	1,7020481E+000	1,7015923E+000	-7,984462220436616E-003	1,000000000000000E+000	-5,6786966E-003	42	-1,3586299E-005
2	0	0	1	0	7,499741587241110E+004	1,6820563E+000	1,6816032E+000	-8,418105897588207E-003	1,000000000000000E+000	-6,5051890E-003	42	-1,4155914E-005
2	0	0	1	0	7,509737504875442E+004	1,6620643E+000	1,6615812E+000	-9,091988432338272E-003	1,000000000000000E+000	-7,3862234E-003	42	-1,5107076E-005
2	0	0	1	0	7,519733422510000E+004	1,6420726E+000	1,6415228E+000	-1,021295972545251E-002	1,000000000000000E+000	-8,3548045E-003	41	-1,6764807E-005
2	0	0	1	0	7,529729320144630E+004	1,6220807E+000	1,6215227E+000	-1,188347609892718E-002	1,000000000000000E+000	-9,4611542E-003	41	-1,9269326E-005
2	0	0	1	0	7,539725257779215E+004	1,6020888E+000	1,6015131E+000	-1,454806361431149E-002	1,000000000000000E+000	-1,0781655E-002	41	-2,3298915E-005
2	0	0	1	0	7,549721145415126E+004	1,5820971E+000	1,5815318E+000	-1,842647056018015E-002	1,000000000000000E+000	-1,2425567E-002	41	-2,9142049E-005
2	0	0	1	0	7,559717083051719E+004	1,5621052E+000	1,5615244E+000	-2,417173083169269E-002	1,000000000000000E+000	-1,4543272E-002	41	-3,7744747E-005
2	0	0	1	0	7,569713000688353E+004	1,5421134E+000	1,5415664E+000	-3,522416147162416E-002	1,000000000000000E+000	-1,7429093E-002	41	-5,4300384E-005
2	0	0	1	0	7,579708898325125E+004	1,5221214E+000	1,5216180E+000	-6,515784055511897E-002	1,000000000000000E+000	-2,2322861E-002	41	-9,9145342E-005
2	0	0	1	0	7,589704775961122E+004	1,5021297E+000	1,5016949E+000	-9,771375481755973E-002	1,000000000000000E+000	-3,0515168E-002	41	-1,4673625E-004
2	0	0	1	0	7,599700713595690E+004	1,4821378E+000	1,4815791E+000	-1,255980551772313E-001	1,000000000000000E+000	-4,1740771E-002	40	-1,8608345E-004
2	0	0	1	0	7,609696631230181E+004	1,4621459E+000	1,4615874E+000	-1,471475913559548E-001	1,000000000000000E+000	-5,5440590E-002	40	-2,1506907E-004
2	0	0	1	0	7,619692568864767E+004	1,4421540E+000	1,4415990E+000	-1,614358084921954E-001	1,000000000000000E+000	-7,0935294E-002	40	-2,3272570E-004
2	0	0	1	0	7,629688456499344E+004	1,4221622E+000	1,4215957E+000	-1,670231626357959E-001	1,000000000000000E+000	-8,7442532E-002	40	-2,3743941E-004
2	0	0	1	0	7,639684364134885E+004	1,4021704E+000	1,4016193E+000	-1,649045602299934E-001	1,000000000000000E+000	-1,0408216E-001	40	-2,3113341E-004
2	0	0	1	0	7,649680271771434E+004	1,3821787E+000	1,3815961E+000	-1,579168528522747E-001	1,000000000000000E+000	-1,2025160E-001	40	-2,1817730E-004
2	0	0	1	0	7,659676199408062E+004	1,3621868E+000	1,3616370E+000	-1,472938657540252E-001	1,000000000000000E+000	-1,3554026E-001	40	-2,0056078E-004
2	0	0	1	0	7,669672087044828E+004	1,3421949E+000	1,3416215E+000	-1,336921568914207E-001	1,000000000000000E+000	-1,4961122E-001	40	-1,7936427E-004
2	0	0	1	0	7,679668024681089E+004	1,3222030E+000	1,3216034E+000	-1,188679801064587E-001	1,000000000000000E+000	-1,6224267E-001	40	-1,5709634E-004
2	0	0	1	0	7,689663912315946E+004	1,3022113E+000	1,3016189E+000	-1,036551620481274E-001	1,000000000000000E+000	-1,7337307E-001	40	-1,3491952E-004
2	0	0	1	0	7,699659849950392E+004	1,2822193E+000	1,2816586E+000	-8,925668735520331E-002	1,000000000000000E+000	-1,8301183E-001	40	-1,1439661E-004
2	0	0	1	0	7,709655767584988E+004	1,2622275E+000	1,2616242E+000	-7,622125416636494E-002	1,000000000000000E+000	-1,9127651E-001	40	-9,6162577E-005
2	0	0	1	0	7,719651665219537E+004	1,2422357E+000	1,2416434E+000	-6,465890005107755E-002	1,000000000000000E+000	-1,9831026E-001	40	-8,0283302E-005
2	0	0	1	0	7,729647542854759E+004	1,2222438E+000	1,2216477E+000	-5,454282760668283E-002	1,000000000000000E+000	-2,0426159E-001	40	-6,6632121E-005
2	0	0	1	0	7,739643480491219E+004	1,2022519E+000	1,2016987E+000	-4,580205905192691E-002	1,000000000000000E+000	-2,0927058E-001	41	-5,5040273E-005
2	0	0	1	0	7,749639398127794E+004	1,1822602E+000	1,1816987E+000	-3,874921177481538E-002	1,000000000000000E+000	-2,1349066E-001	41	-4,5789893E-005
2	0	0	1	0	7,759635335764522E+004	1,1622683E+000	1,1617091E+000	-3,305943564336600E-002	1,000000000000000E+000	-2,1707542E-001	41	-3,8405447E-005
2	0	0	1	0	7,769631223401069E+004	1,1422764E+000	1,1416957E+000	-2,866544335784293E-002	1,000000000000000E+000	-2,2015829E-001	41	-3,2727214E-005
2	0	0	1	0	7,779627131036180E+004	1,1222845E+000	1,1217246E+000	-2,544060675067106E-002	1,000000000000000E+000	-2,2286032E-001	41	-2,8537355E-005
2	0	0	1	0	7,789623038670700E+004	1,1022927E+000	1,1017354E+000	-2,312119885751168E-002	1,000000000000000E+000	-2,2528742E-001	41	-2,5473442E-005
2	0	0	1	0	7,799618966305139E+004	1,0823009E+000	1,0817292E+000	-2,161861091038408E-002	1,000000000000000E+000	-2,2752340E-001	41	-2,3385483E-005
2	0	0	1	0	7,809614853939659E+004	1,0623090E+000	1,0617479E+000	-2,089320646066664E-002	1,000000000000000E+000	-2,2964893E-001	41	-2,2183318E-005
2	0	0	1	0	7,819610791574733E+004	1,0423172E+000	1,0417348E+000	-2,096494356965051E-002	1,000000000000000E+000	-2,3174208E-001	41	-2,1839911E-005
2	0	0	1	0	7,829606679210975E+004	1,0223253E+000	1,0217470E+000	-2,175813225062062E-002	1,000000000000000E+000	-2,3387852E-001	41	-2,2231307E-005
2	0	0	1	0	7,839602616847563E+004	1,0023334E+000	1,0017649E+000	-2,304272400050586E-002	1,000000000000000E+000	-2,3612201E-001	41	-2,3083392E-005
2	0	0	1	0	7,849048834615271E+004	1,0165277E+000	1,0159429E+000	-1,329799052172306E-002	1,000000000000000E+000	-2,3778996E-001	41	-1,3510000E-005
2	0	0	1	0	7,859044772250997E+004	1,0365195E+000	1,0359409E+000	-7,897457135765491E-003	1,000000000000000E+000	-2,3881973E-001	41	-8,1812987E-006
2	0	0	1	0	7,869040739885496E+004	1,0565114E+000	1,0559713E+000	-4,430795921311931E-003	1,000000000000000E+000	-2,3941672E-001	42	-4,6787932E-006
2	0	0	1	0	7,879036647519900E+004	1,0765032E+000	1,0759252E+000	-2,151794828002429E-003	1,000000000000000E+000	-2,3973033E-001	42	-2,3151704E-006
2	0	0	1	0	7,889032615154306E+004	1,0964952E+000	1,0959958E+000	-5,813620700866953E-004	1,000000000000000E+000	-2,3985519E-001	43	-6,3717039E-007
2	1	0	1	0	7,899028522789036E+004	1,1164869E+000	1,1158726E+000	4,498174665401068E-004	1,000000000000000E+000	-2,3985314E-001	43	5,0193898E-007
2	1	0	1	0	7,909024500425160E+004	1,1364788E+000	1,1359078E+000	1,162500457207993E-003	1,000000000000000E+000	-2,3976335E-001	42	1,3204933E-006
2	1	0	1	0	7,919020438061818E+004	1,1564707E+000	1,1558850E+000	1,665608690486139E-003	1,000000000000000E+000	-2,3961376E-001	42	1,9252520E-006
2	1	0	1	0	7,929016385698345E+004	1,1764624E+000	1,1758428E+000	1,994413823317286E-003	1,000000000000000E+000	-2,3942293E-001	42	2,3451171E-006
2	1	0	1	0	7,939012283334928E+004	1,1964542E+000	1,1958338E+000	2,231677594155435E-003	1,000000000000000E+000	-2,3920342E-001	42	2,6687155E-006
2	1	0	1	0	7,949008250970859E+004	1,2164460E+000	1,2158020E+000	2,401067704820202E-003	1,000000000000000E+000	-2,3896365E-001	42	2,9192229E-006
2	1	0	1	0	7,959004188605584E+004	1,2364380E+000	1,2358100E+000	2,538907671018803E-003	1,000000000000000E+000	-2,3870896E-001	42	3,1376076E-006
2	1	0	1	0	7,969000166240090E+004	1,2564299E+000	1,2557964E+000	2,655354935959156E-003	1,000000000000000E+000	-2,3844235E-001	42	3,3345852E-006
2	1	0	1	0	7,978996073874485E+004	1,2764217E+000	1,2757729E+000	2,753600380904872E-003	1,000000000000000E+000	-2,3816468E-001	42	3,5129688E-006
2	1	0	1	0	7,988992021508899E+004	1,2964135E+000	1,2957853E+000	2,875242580540272E-003	1,000000000000000E+000	-2,3787616E-001	42	3,7256971E-006
2	1	0	1	0	7,998987959144753E+004	1,3164054E+000	1,3157637E+000	2,997615755349396E-003	1,000000000000000E+000	-2,3757584E-001	42	3,9441538E-006
2	1	0	1	0	8,008983926781453E+004	1,3363973E+000	1,3357556E+000	3,170235159596357E-003	1,000000000000000E+000	-2,3726104E-001	42	4,2346592E-006
2	1	0	1	0	8,018979824418097E+004	1,3563890E+000	1,3557289E+000	3,381032299134404E-003	1,000000000000000E+000	-2,3692738E-001	42	4,5837633E-006
2	1	0	1	0	8,028975802054675E+004	1,3763808E+000	1,3757412E+000	3,690711635357224E-003	1,000000000000000E+000	-2,3656771E-001	42	5,0774643E-006
2	1	0	1	0	8,038971709690697E+004	1,3963727E+000	1,3957152E+000	4,090204511909556E-003	1,000000000000000E+000	-2,3617299E-001	42	5,7087609E-006
2	1	0	1	0	8,048967687325622E+004	1,4163646E+000	1,4157145E+000	4,652665460416790E-003	1,000000000000000E+000	-2,3573029E-001	42	6,5868458E-006
2	1	0	1	0	8,058963624960277E+004	1,4363565E+000	1,4356951E+000	5,372028009154817E-003	1,000000000000000E+000	-2,3522352E-001	42	7,7125942E-006
2	1	0	1	0	8,068959562594688E+004	1,4563484E+000	1,4556845E+000	6,252443689369724E-003	1,000000000000000E+000	-2,3463629E-001	42	9,1015854E-006
2	1	0	1	0	8,078955470229141E+004	1,4763401E+000	1,4756780E+000	7,283981962573419E-003	1,000000000000000E+000	-2,3395412E-001	42	1,0748811E-005
2	1	0	1	0	8,088951437864383E+004	1,4963319E+000	1,4956660E+000	8,536973219013783E-003	1,000000000000000E+000	-2,3315838E-001	42	1,2768461E-005
2	1	0	1	0	8,098947375501017E+004	1,5163238E+000	1,5157087E+000	1,032860599795885E-002	1,000000000000000E+000	-2,3221359E-001	41	1,5655158E-005
2	1	0	1	0	8,108943323137751E+004	1,5363158E+000	1,5357411E+000	1,304857251012080E-002	1,000000000000000E+000	-2,3104927E-001	41	2,0039230E-005
2	1	0	1	0	8,118939260774362E+004	1,5563077E+000	1,5556951E+000	1,751899685080846E-002	1,000000000000000E+000	-2,2953242E-001	41	2,7254217E-005
2	1	0	1	0	8,128935208410659E+004	1,5762995E+000	1,5756863E+000	2,577550921732205E-002	1,000000000000000E+000	-2,2742805E-001	41	4,0614119E-005
2	1	0	1	0	8,138931136045733E+004	1,5962912E+000	1,5956534E+000	5,756303457168088E-002	1,000000000000000E+000	-2,2345561E-001	41	9,1850656E-005
2	1	0	1	0	8,148927103680326E+004	1,6162831E+000	1,6156121E+000	9,511489127048511E-002	1,000000000000000E+000	-2,1578731E-001	41	1,5366878E-004
2	1	0	1	0	8,158923011314915E+004	1,6362749E+000	1,6356617E+000	1,301210053233943E-001	1,000000000000000E+000	-2,0450424E-001	40	2,1283395E-004
2	1	0	1	0	8,168918988949340E+004	1,6562667E+000	1,6556619E+000	1,629819335313600E-001	1,000000000000000E+000	-1,8982431E-001	40	2,6984297E-004
2	1	0	1	0	8,178914896584378E+004	1,6762587E+000	1,6756567E+000	1,920026044710932E-001	1,000000000000000E+000	-1,7203961E-001	40	3,2173045E-004
2	1	0	1	0	8,188910904220669E+004	1,6962506E+000	1,6956732E+000	2,172758170591558E-001	1,000000000000000E+000	-1,5153629E-001	40	3,6842879E-004
2	1	0	1	0	8,198906811857340E+004	1,7162423E+000	1,7156410E+000	2,385742328962808E-001	1,000000000000000E+000	-1,2870806E-001	40	4,0930774E-004
2	1	0	1	0	8,208902779494086E+004	1,7362343E+000	1,7356036E+000	2,549653750270036E-001	1,000000000000000E+000	-1,0397106E-001	40	4,4251882E-004
2	1	0	1	0	8,218898707130621E+004	1,7562261E+000	1,7556267E+000	2,555031285966187E-001	1,000000000000000E+000	-7,8211792E-002	40	4,4856811E-004
2	1	0	1	0	8,228894654765935E+004	1,7762178E+000	1,7756174E+000	2,067481490875842E-001	1,000000000000000E+000	-5,4489221E-002	40	3,6710559E-004
2	1	0	1	0	8,238890562400443E+004	1,7962097E+000	1,7956364E+000	1,026438604521394E-001	1,000000000000000E+000	-3,9024480E-002	40	1,8431105E-004
2	1	0	1	0	8,248936510023195E+004	1,8163015E+000	1,8156939E+000	4,748505353850199E-002	1,000000000000000E+000	-3,1992376E-002	41	8,6218322E-005
2	1	0	1	0	8,258932447657757E+004	1,8362933E+000	1,8357126E+000	2,987401237361303E-002	1,000000000000000E+000	-2,8276514E-002	41	5,4840100E-005
2	1	0	1	0	8,268928395292489E+004	1,8562851E+000	1,8556877E+000	2,259791006408662E-002	1,000000000000000E+000	-2,5677778E-002	41	4,1934665E-005
2	1	0	1	0	8,278924332928390E+004	1,8762771E+000	1,8756943E+000	1,912250162993634E-002	1,000000000000000E+000	-2,3637589E-002	41	3,5867968E-005
2	1	0	1	0	8,288920310565081E+004	1,8962690E+000	1,8956690E+000	1,348049862027929E-002	1,000000000000000E+000	-2,2014149E-002	41	2,5554564E-005
2	1	0	1	0	8,298916208201810E+004	1,9162606E+000	1,9156806E+000	1,016622869799304E-002	1,000000000000000E+000	-2,0853909E-002	41	1,9475248E-005
2	1	0	1	0	8,308912145838398E+004	1,9362525E+000	1,9356824E+000	9,024432677576050E-003	1,000000000000000E+000	-1,9890616E-002	41	1,7468436E-005
2	1	0	1	0	8,318908083474310E+004	1,9562443E+000	1,9556874E+000	8,050895901214161E-003	1,000000000000000E+000	-1,9027280E-002	41	1,5745036E-005
2	1	0	1	0	8,328904061108863E+004	1,9762362E+000	1,9756778E+000	7,068446055335909E-003	1,000000000000000E+000	-1,8268341E-002	41	1,3964972E-005
2	1	0	1	0	8,338899968743316E+004	1,9962281E+000	1,9956715E+000	6,362537485144065E-003	1,000000000000000E+000	-1,7585676E-002	41	1,2697535E-005
2	1	0	1	0	8,348896006377862E+004	2,0162196E+000	2,0156713E+000	6,085118878756970E-003	1,000000000000000E+000	-1,6957983E-002	41	1,2265599E-005
2	1	0	1	0	8,358891874012398E+004	2,0362117E+000	2,0356448E+000	5,943208586047660E-003	1,000000000000000E+000	-1,6347954E-002	41	1,2098261E-005
2	1	0	1	0	8,368887851648126E+004	2,0562038E+000	2,0556226E+000	5,841822215848932E-003	1,000000000000000E+000	-1,5749522E-002	41	1,2008582E-005
2	1	0	1	0	8,378883779284754E+004	2,0761952E+000	2,0756366E+000	5,752880590283534E-003	1,000000000000000E+000	-1,5161645E-002	41	1,1940890E-005
2	1	0	1	0	8,388879756921413E+004	2,0961871E+000	2,0956104E+000	5,649684517151251E-003	1,000000000000000E+000	-1,4582868E-002	41	1,1839537E-005
2	1	0	1	0	8,398875634558022E+004	2,1161790E+000	2,1156118E+000	5,535192862014801E-003	1,000000000000000E+000	-1,4013954E-002	41	1,1710319E-005
2	1	0	1	0	8,408871612194157E+004	2,1361709E+000	2,1355839E+000	5,452465100052747E-003	1,000000000000000E+000	-1,3454637E-002	41	1,1644197E-005
2	1	0	1	0	8,418867549829045E+004	2,1561627E+000	2,1556027E+000	5,365181839978750E-003	1,000000000000000E+000	-1,2904029E-002	41	1,1565200E-005
2	1	0	1	0	8,428863517463417E+004	2,1761546E+000	2,1755586E+000	5,255136048414807E-003	1,000000000000000E+000	-1,2364057E-002	41	1,1432856E-005
2	1	0	1	0	8,438859445098019E+004	2,1961462E+000	2,1955619E+000	5,158804807728694E-003	1,000000000000000E+000	-1,1834016E-002	41	1,1326475E-005
2	1	0	1	0	8,448855422732563E+004	2,2161384E+000	2,2155654E+000	5,054467275895404E-003	1,000000000000000E+000	-1,1314002E-002	41	1,1198503E-005
2	1	0	1	0	8,458851300367806E+004	2,2361300E+000	2,2356033E+000	4,947521868236798E-003	1,000000000000000E+000	-1,0805001E-002	41	1,1060696E-005
2	1	0	1	0	8,468897277992521E+004	2,2562220E+000	2,2556105E+000	4,865967569669546E-003	1,000000000000000E+000	-1,0303505E-002	42	1,0975727E-005
2	1	0	1	0	8,478893215629132E+004	2,2762136E+000	2,2755873E+000	4,761168728528982E-003	1,000000000000000E+000	-9,8135248E-003	42	1,0834455E-005
2	1	0	1	0	8,488889133265777E+004	2,2962058E+000	2,2955956E+000	4,672327098824086E-003	1,000000000000000E+000	-9,3328990E-003	42	1,0725774E-005
2	1	0	1	0	8,498885070902307E+004	2,3161974E+000	2,3156061E+000	4,595805071055031E-003	1,000000000000000E+000	-8,8608740E-003	42	1,0642074E-005
2	1	0	1	0	8,508881048537395E+004	2,3361893E+000	2,3356118E+000	4,533605045540220E-003	1,000000000000000E+000	-8,3964607E-003	42	1,0588741E-005
2	1	0	1	0	8,518876926171919E+004	2,3561809E+000	2,3555956E+000	4,465176181984651E-003	1,000000000000000E+000	-7,9383049E-003	42	1,0518149E-005
2	1	0	1	0	8,528872883806401E+004	2,3761728E+000	2,3755765E+000	4,377917861197489E-003	1,000000000000000E+000	-7,4876468E-003	42	1,0400079E-005
2	1	0	1	0	8,538868821440940E+004	2,3961647E+000	2,3955956E+000	4,310949343108592E-003	1,000000000000000E+000	-7,0453086E-003	42	1,0327291E-005
2	1	0	1	0	8,548864799075914E+004	2,4161565E+000	2,4155550E+000	4,241493576139833E-003	1,000000000000000E+000	-6,6088517E-003	42	1,0245561E-005
2	1	0	1	0	8,558860736712161E+004	2,4361486E+000	2,4355412E+000	4,197725139903435E-003	1,000000000000000E+000	-6,1786720E-003	42	1,0223733E-005
2	1	0	1	0	8,568856714348728E+004	2,4561405E+000	2,4555378E+000	4,158464133515033E-003	1,000000000000000E+000	-5,7530683E-003	42	1,0211266E-005
2	1	0	1	0	8,578852651985409E+004	2,4761322E+000	2,4755254E+000	4,133067364970322E-003	1,000000000000000E+000	-5,3306650E-003	42	1,0231513E-005
2	1	0	1	0	8,588848559622152E+004	2,4961243E+000	2,4955385E+000	4,111872689018289E-003	1,000000000000000E+000	-4,9106209E-003	42	1,0261337E-005
2	1	0	1	0	8,598844487257645E+004	2,5161159E+000	2,5155370E+000	4,106517791193226E-003	1,000000000000000E+000	-4,4920854E-003	42	1,0330097E-005
2	1	0	1	0	8,608840464892029E+004	2,5361078E+000	2,5355213E+000	4,106977435430027E-003	1,000000000000000E+000	-4,0736874E-003	42	1,0413329E-005
2	1	0	1	0	8,618836342526530E+004	2,5560994E+000	2,5554786E+000	4,112085162347928E-003	1,000000000000000E+000	-3,6545820E-003	42	1,0508345E-005
2	1	0	1	0	8,628832320161024E+004	2,5760913E+000	2,5755053E+000	4,134838332293861E-003	1,000000000000000E+000	-3,2339985E-003	42	1,0649298E-005
2	1	0	1	0	8,638828257795854E+004	2,5960834E+000	2,5954971E+000	4,157164786514803E-003	1,000000000000000E+000	-2,8115027E-003	42	1,0789910E-005
2	1	0	1	0	8,648824225431919E+004	2,6160750E+000	2,6155014E+000	4,189934583135138E-003	1,000000000000000E+000	-2,3861267E-003	42	1,0958780E-005
2	1	0	1	0	8,658820163068466E+004	2,6360672E+000	2,6354847E+000	4,235444549253606E-003	1,000000000000000E+000	-1,9564657E-003	42	1,1162449E-005
2	1	0	1	0	8,668816130704992E+004	2,6560590E+000	2,6554849E+000	4,273975441940622E-003	1,000000000000000E+000	-1,5223768E-003	42	1,1349477E-005
2	1	0	1	0	8,678812008341798E+004	2,6760507E+000	2,6754594E+000	4,334020752754852E-003	1,000000000000000E+000	-1,0834439E-003	42	1,1595496E-005
2	1	0	1	0	8,688807985977712E+004	2,6960425E+000	2,6954396E+000	4,372869045077381E-003	1,000000000000000E+000	-6,3957891E-004	42	1,1786804E-005
2	1	0	1	1	8,698054193788208E+004	2,6854470E+000	2,6848629E+000	2,389590511065732E-003	1,000000000000000E+000	-3,3882289E-004	42	6,4157230E-006
2	1	0	1	1	8,708050121422648E+004	2,6654551E+000	2,6649182E+000	1,452585061634280E-003	1,000000000000000E+000	-1,5984247E-004	42	3,8710205E-006
2	1	0	1	1	8,718046059057410E+004	2,6454630E+000	2,6449158E+000	9,164043079133467E-004	1,000000000000000E+000	-5,1217285E-005	42	2,4238122E-006
2	1	0	1	1	8,728041916693654E+004	2,6254711E+000	2,6248667E+000	5,575509265843897E-004	1,000000000000000E+000	1,4086631E-005	43	1,4634969E-006
2	1	0	1	1	8,738037854330428E+004	2,6054795E+000	2,6048949E+000	3,191948284881180E-004	1,000000000000000E+000	5,0810999E-005	43	8,3146898E-007
2	1	0	1	1	8,748033711967012E+004	2,5854878E+000	2,5849059E+000	1,360540874223611E-004	1,000000000000000E+000	6,6901441E-005	43	3,5168702E-007
2	1	0	1	1	8,758079589591618E+004	2,5653956E+000	2,5648201E+000	1,029253081800502E-005	1,000000000000000E+000	6,6786881E-005	44	2,6398489E-008
2	0	0	1	1	8,768075447227573E+004	2,5454040E+000	2,5448539E+000	-1,228101146311133E-004	1,000000000000000E+000	5,3722688E-005	43	-3,1253381E-007
2	0	0	1	1	8,778071324862260E+004	2,5254121E+000	2,5248702E+000	-2,288604696462117E-004	1,000000000000000E+000	2,9185214E-005	43	-5,7784297E-007
2	0	0	1	1	8,788067182496742E+004	2,5054202E+000	2,5048790E+000	-3,252455510331452E-004	1,000000000000000E+000	-5,2829132E-006	43	-8,1470074E-007
2	0	0	1	1	8,798063110131153E+004	2,4854286E+000	2,4848979E+000	-4,248633343303281E-004	1,000000000000000E+000	-4,9184528E-005	43	-1,0557420E-006
2	0	0	1	1	8,808058967765654E+004	2,4654367E+000	2,4649575E+000	-5,057393663892460E-004	1,000000000000000E+000	-1,0226106E-004	43	-1,2466261E-006
2	0	0	1	1	8,818054835401569E+004	2,4454448E+000	2,4449642E+000	-5,929045607236767E-004	1,000000000000000E+000	-1,6367412E-004	43	-1,4496304E-006
2	0	0	1	1	8,828050693038275E+004	2,4254529E+000	2,4250035E+000	-6,765971117114380E-004	1,000000000000000E+000	-2,3308001E-004	43	-1,6407504E-006
2	0	0	1	1	8,838046630674880E+004	2,4054611E+000	2,4049833E+000	-7,464857964479665E-004	1,000000000000000E+000	-3,1041409E-004	43	-1,7952858E-006
2	0	0	1	1	8,848042488311464E+004	2,3854692E+000	2,3849440E+000	-8,054327536212696E-004	1,000000000000000E+000	-3,9547638E-004	42	-1,9209119E-006
2	0	0	1	1	8,858038425947551E+004	2,3654773E+000	2,3649116E+000	-8,870025561364741E-004	1,000000000000000E+000	-4,8824740E-004	42	-2,0976827E-006
2	0	0	1	1	8,868034283582383E+004	2,3454854E+000	2,3449399E+000	-9,667064094916640E-004	1,000000000000000E+000	-5,8922981E-004	42	-2,2668685E-006
2	0	0	1	1	8,878030151216988E+004	2,3254936E+000	2,3249345E+000	-1,046772207278794E-003	1,000000000000000E+000	-6,9818704E-004	42	-2,4336769E-006
2	0	0	1	1	8,888025998851541E+004	2,3055017E+000	2,3049595E+000	-1,127125590110523E-003	1,000000000000000E+000	-8,1503758E-004	42	-2,5979789E-006
2	0	0	1	1	8,898021936485940E+004	2,2855098E+000	2,2849488E+000	-1,214139825227872E-003	1,000000000000000E+000	-9,3985698E-004	42	-2,7742474E-006
2	0	0	1	1	8,908017794121278E+004	2,2655180E+000	2,2649891E+000	-1,279842683806131E-003	1,000000000000000E+000	-1,0727633E-003	42	-2,8988297E-006
2	0	0	1	1	8,918013671758072E+004	2,2455266E+000	2,2449687E+000	-1,368051492688082E-003	1,000000000000000E+000	-1,2139688E-003	42	-3,0712326E-006
2	0	0	1	1	8,928009529394750E+004	2,2255344E+000	2,2250161E+000	-1,465647130138338E-003	1,000000000000000E+000	-1,3640177E-003	42	-3,2610885E-006
2	0	0	1	1	8,938005467031279E+004	2,2055428E+000	2,2050071E+000	-1,559819260601052E-003	1,000000000000000E+000	-1,5238161E-003	42	-3,4394125E-006
2	0	0	1	1	8,948001314667612E+004	2,1855505E+000	2,1850262E+000	-1,670546339376196E-003	1,000000000000000E+000	-1,6936909E-003	42	-3,6501874E-006
2	0	0	1	1	8,957997252302663E+004	2,1655588E+000	2,1650243E+000	-1,774685902388735E-003	1,000000000000000E+000	-1,8740420E-003	42	-3,8422381E-006
2	0	0	1	1	8,967993099937274E+004	2,1455669E+000	2,1450400E+000	-1,886690753384102E-003	1,000000000000000E+000	-2,0654059E-003	42	-4,0470272E-006
2	0	0	1	1	8,977988977571804E+004	2,1255751E+000	2,1250350E+000	-2,012908398979031E-003	1,000000000000000E+000	-2,2684888E-003	42	-4,2775009E-006
2	0	0	1	1	8,987984835206182E+004	2,1055832E+000	2,1050494E+000	-2,140507188832866E-003	1,000000000000000E+000	-2,4846387E-003	42	-4,5058732E-006
2	0	0	1	1	8,997980772841303E+004	2,0855916E+000	2,0850472E+000	-2,283497583541981E-003	1,000000000000000E+000	-2,7149103E-003	42	-4,7612002E-006
2	0	0	1	1	9,007976630477817E+004	2,0655997E+000	2,0650613E+000	-2,439268092014397E-003	1,000000000000000E+000	-2,9598251E-003	42	-5,0372382E-006
2	0	0	1	1	9,017972508114425E+004	2,0456078E+000	2,0450783E+000	-2,606930985483327E-003	1,000000000000000E+000	-3,2206597E-003	42	-5,3313779E-006
2	0	0	1	1	9,027968355751177E+004	2,0256159E+000	2,0250912E+000	-2,795605971892989E-003	1,000000000000000E+000	-3,4998197E-003	42	-5,6613571E-006
2	0	0	1	1	9,037964283387712E+004	2,0056243E+000	2,0050883E+000	-3,030414501618124E-003	1,000000000000000E+000	-3,7996592E-003	42	-6,0762486E-006
2	0	0	1	1	9,047960171022904E+004	1,9856324E+000	1,9850888E+000	-3,264995830958795E-003	1,000000000000000E+000	-4,1221115E-003	42	-6,4813066E-006
2	0	0	1	1	9,057956108657457E+004	1,9656405E+000	1,9650949E+000	-3,494162956365829E-003	1,000000000000000E+000	-4,4681779E-003	42	-6,8663617E-006
2	0	0	1	1	9,067951996292057E+004	1,9456487E+000	1,9451108E+000	-3,744102558370725E-003	1,000000000000000E+000	-4,8384974E-003	42	-7,2826942E-006
2	0	0	1	1	9,077947903926508E+004	1,9256570E+000	1,9251170E+000	-4,015715621701929E-003	1,000000000000000E+000	-5,2351831E-003	42	-7,7307222E-006
2	0	0	1	1	9,087943821561354E+004	1,9056649E+000	1,9051366E+000	-4,323416849160343E-003	1,000000000000000E+000	-5,6598238E-003	42	-8,2366996E-006
2	0	0	1	1	9,097939749197505E+004	1,8856730E+000	1,8851678E+000	-4,645640009347649E-003	1,000000000000000E+000	-6,1160307E-003	42	-8,7578110E-006
2	0	0	1	1	9,107335886977153E+004	1,8668808E+000	1,8663536E+000	-5,015757786026219E-003	2,000000000000000E+000	-6,5776906E-003	42	-9,3611779E-006
2	0	0	1	1	9,117331794613879E+004	1,8468890E+000	1,8463916E+000	-5,440762275006215E-003	2,000000000000000E+000	-7,1097389E-003	42	-1,0045777E-005
2	0	0	1	1	9,127327712249523E+004	1,8268970E+000	1,8263696E+000	-5,854955224974631E-003	2,000000000000000E+000	-7,6832231E-003	42	-1,0693312E-005
2	0	0	1	1	9,137323649883899E+004	1,8069052E+000	1,8063722E+000	-6,203806599924824E-003	2,000000000000000E+000	-8,2936762E-003	42	-1,1206384E-005
2	0	0	1	1	9,147319537518371E+004	1,7869135E+000	1,7863754E+000	-6,539639058717015E-003	2,000000000000000E+000	-8,9393463E-003	42	-1,1682250E-005
2	0	0	1	1	9,157315445152938E+004	1,7669216E+000	1,7663968E+000	-6,823822721387082E-003	2,000000000000000E+000	-9,6162204E-003	42	-1,2053579E-005
2	0	0	1	1	9,167311352787702E+004	1,7469298E+000	1,7464350E+000	-7,023724849588409E-003	2,000000000000000E+000	-1,0316913E-002	42	-1,2266480E-005
2	0	0	1	1	9,177307280423702E+004	1,7269380E+000	1,7264367E+000	-7,248354699746606E-003	2,000000000000000E+000	-1,1037870E-002	42	-1,2513826E-005
2	0	0	1	1	9,187303168060293E+004	1,7069461E+000	1,7064345E+000	-7,535222598035879E-003	2,000000000000000E+000	-1,1783914E-002	42	-1,2858363E-005
2	0	0	1	1	9,197299105696846E+004	1,6869543E+000	1,6864680E+000	-7,970657374679238E-003	2,000000000000000E+000	-1,2565870E-002	42	-1,3442259E-005
2	0	0	1	1	9,207295023333607E+004	1,6669624E+000	1,6664891E+000	-8,650910745426066E-003	2,000000000000000E+000	-1,3403007E-002	42	-1,4416649E-005
2	0	0	1	1	9,217290960969636E+004	1,6469704E+000	1,6465001E+000	-9,714506257183564E-003	2,000000000000000E+000	-1,4326167E-002	42	-1,5994936E-005
2	0	0	1	1	9,227286838604172E+004	1,6269786E+000	1,6264023E+000	-1,142771726824803E-002	2,000000000000000E+000	-1,5389015E-002	41	-1,8586064E-005
2	0	0	1	1	9,237282776238574E+004	1,6069869E+000	1,6064186E+000	-1,398667116624674E-002	2,000000000000000E+000	-1,6660053E-002	41	-2,2468448E-005
2	0	0	1	1	9,247278683873103E+004	1,5869950E+000	1,5864067E+000	-1,771574123557948E-002	2,000000000000000E+000	-1,8241756E-002	41	-2,8104370E-005
2	0	0	1	1	9,257274591507716E+004	1,5670031E+000	1,5664319E+000	-2,312471385804160E-002	2,000000000000000E+000	-2,0274645E-002	41	-3,6223289E-005
2	0	0	1	1	9,267270509143476E+004	1,5470114E+000	1,5464456E+000	-3,249959357876026E-002	2,000000000000000E+000	-2,3006001E-002	41	-5,0258855E-005
2	0	0	1	1	9,277266416780031E+004	1,5270194E+000	1,5265146E+000	-5,961287493356249E-002	2,000000000000000E+000	-2,7406663E-002	41	-9,0999929E-005
2	0	0	1	1	9,287262334416492E+004	1,5070276E+000	1,5065559E+000	-9,543248813824645E-002	2,000000000000000E+000	-3,5202175E-002	41	-1,4377438E-004
2	0	0	1	1	9,297258272053231E+004	1,4870359E+000	1,4864964E+000	-1,255867513248532E-001	2,000000000000000E+000	-4,6323046E-002	40	-1,8668426E-004
2	0	0	1	1	9,307254149689549E+004	1,4670439E+000	1,4664792E+000	-1,470128988245705E-001	2,000000000000000E+000	-6,0033854E-002	40	-2,1559135E-004
2	0	0	1	1	9,317250047324394E+004	1,4470521E+000	1,4464943E+000	-1,608725222915883E-001	2,000000000000000E+000	-7,5493246E-002	40	-2,3270119E-004
2	0	0	1	1	9,327245964958821E+004	1,4270601E+000	1,4265021E+000	-1,673429176544264E-001	2,000000000000000E+000	-9,1965660E-002	40	-2,3871503E-004
2	0	0	1	1	9,337241902593267E+004	1,4070684E+000	1,4064829E+000	-1,669263371243015E-001	2,000000000000000E+000	-1,0872281E-001	40	-2,3477904E-004
2	0	0	1	1	9,347237790227914E+004	1,3870765E+000	1,3864994E+000	-1,616086402640726E-001	2,000000000000000E+000	-1,2518784E-001	40	-2,2407029E-004
2	0	0	1	1	9,357233727863280E+004	1,3670847E+000	1,3665024E+000	-1,522754932257229E-001	2,000000000000000E+000	-1,4090754E-001	40	-2,0808482E-004
2	0	0	1	1	9,367229615499789E+004	1,3470929E+000	1,3465291E+000	-1,398596126826570E-001	2,000000000000000E+000	-1,5553653E-001	40	-1,8832504E-004
2	0	0	1	1	9,377225543136289E+004	1,3271011E+000	1,3265135E+000	-1,252462858332073E-001	2,000000000000000E+000	-1,6880785E-001	40	-1,6614089E-004
2	0	0	1	1	9,387221450772975E+004	1,3071092E+000	1,3065311E+000	-1,095448988348391E-001	2,000000000000000E+000	-1,8055360E-001	40	-1,4312382E-004
2	0	0	1	1	9,397217358409497E+004	1,2871174E+000	1,2865471E+000	-9,311776495451563E-002	2,000000000000000E+000	-1,9068611E-001	40	-1,1980039E-004
2	0	0	1	1	9,407213246044645E+004	1,2671257E+000	1,2665399E+000	-7,826252439140513E-002	2,000000000000000E+000	-1,9924568E-001	40	-9,9122612E-005
2	0	0	1	1	9,417209183679067E+004	1,2471339E+000	1,2465389E+000	-6,501644326081579E-002	2,000000000000000E+000	-2,0639935E-001	40	-8,1045524E-005
2	0	0	1	1	9,427205101313512E+004	1,2271419E+000	1,2265301E+000	-5,351436783542052E-002	2,000000000000000E+000	-2,1231495E-001	40	-6,5636981E-005
2	0	0	1	1	9,437201038948004E+004	1,2071499E+000	1,2065965E+000	-4,391386066908914E-002	2,000000000000000E+000	-2,1717581E-001	41	-5,2986310E-005
2	0	0	1	1	9,447196916583175E+004	1,1871581E+000	1,1865910E+000	-3,611459486669388E-002	2,000000000000000E+000	-2,2116792E-001	41	-4,2853255E-005
2	0	0	1	1	9,457192814219533E+004	1,1671664E+000	1,1666062E+000	-2,999055164659092E-002	2,000000000000000E+000	-2,2446477E-001	41	-3,4987163E-005
2	0	0	1	1	9,467188731856085E+004	1,1471745E+000	1,1465744E+000	-2,535779985700459E-002	2,000000000000000E+000	-2,2722518E-001	41	-2,9074603E-005
2	0	0	1	1	9,477184669492720E+004	1,1271826E+000	1,1266024E+000	-2,201150422632470E-002	2,000000000000000E+000	-2,2958897E-001	41	-2,4798213E-005
2	0	0	1	1	9,487180557129398E+004	1,1071908E+000	1,1066079E+000	-1,978307946349742E-002	2,000000000000000E+000	-2,3167612E-001	41	-2,1892112E-005
2	0	0	1	1	9,497176494764833E+004	1,0871987E+000	1,0866107E+000	-1,852959774123390E-002	2,000000000000000E+000	-2,3359069E-001	41	-2,0134459E-005
2	0	0	1	1	9,507172382399323E+004	1,0672070E+000	1,0666357E+000	-1,802533794981992E-002	2,000000000000000E+000	-2,3541935E-001	41	-1,9226469E-005
2	0	0	1	1	9,517168310033809E+004	1,0472151E+000	1,0466201E+000	-1,824207555916951E-002	2,000000000000000E+000	-2,3723371E-001	41	-1,9092524E-005
2	0	0	1	1	9,527164217668201E+004	1,0272233E+000	1,0266268E+000	-1,910946078395270E-002	2,000000000000000E+000	-2,3910390E-001	41	-1,9618285E-005
2	0	0	1	1	9,537160125303097E+004	1,0072315E+000	1,0065986E+000	-2,049264758841501E-002	2,000000000000000E+000	-2,4108632E-001	41	-2,0627871E-005
2	0	0	1	1	9,546556383082294E+004	1,0115296E+000	1,0109457E+000	-1,295218634186138E-002	2,000000000000000E+000	-2,4275464E-001	41	-1,3093957E-005
2	0	0	1	1	9,556552310718864E+004	1,0315216E+000	1,0309409E+000	-6,991739382540052E-003	2,000000000000000E+000	-2,4371551E-001	41	-7,2080702E-006
2	0	0	1	1	9,566548288355442E+004	1,0515134E+000	1,0509453E+000	-3,420730960996175E-003	2,000000000000000E+000	-2,4421424E-001	42	-3,5950011E-006
2	0	0	1	1	9,576544195991149E+004	1,0715053E+000	1,0709089E+000	-1,122869922506506E-003	2,000000000000000E+000	-2,4442607E-001	42	-1,2024914E-006
2	1	0	1	1	9,586540173625713E+004	1,0914972E+000	1,0908813E+000	3,585914166471665E-004	2,000000000000000E+000	-2,4445283E-001	43	3,9118069E-007
2	1	0	1	1	9,596536081260291E+004	1,1114891E+000	1,1108800E+000	1,319076485909055E-003	2,000000000000000E+000	-2,4435884E-001	42	1,4653357E-006
2	1	0	1	1	9,606532048894675E+004	1,1314808E+000	1,1308668E+000	1,957471343679816E-003	2,000000000000000E+000	-2,4418603E-001	42	2,2136394E-006
2	1	0	1	1	9,616527986529248E+004	1,1514726E+000	1,1508361E+000	2,350460219287580E-003	2,000000000000000E+000	-2,4396214E-001	42	2,7049946E-006
2	1	0	1	1	9,626523924165196E+004	1,1714644E+000	1,1708472E+000	2,613021498291838E-003	2,000000000000000E+000	-2,4370550E-001	42	3,0594488E-006
2	1	0	1	1	9,636519861801947E+004	1,1914564E+000	1,1908362E+000	2,785511152069188E-003	2,000000000000000E+000	-2,4342793E-001	42	3,3170875E-006
2	1	0	1	1	9,646515809438610E+004	1,2114484E+000	1,2108276E+000	2,895259034004963E-003	2,000000000000000E+000	-2,4313675E-001	42	3,5056596E-006
2	1	0	1	1	9,656511747075192E+004	1,2314402E+000	1,2307823E+000	2,973259674866556E-003	2,000000000000000E+000	-2,4283667E-001	42	3,6594354E-006
2	1	0	1	1	9,666507724711066E+004	1,2514318E+000	1,2507918E+000	3,026255794702289E-003	2,000000000000000E+000	-2,4253009E-001	42	3,7852160E-006
2	1	0	1	1	9,676503622345766E+004	1,2714237E+000	1,2707907E+000	3,090122627223475E-003	2,000000000000000E+000	-2,4221788E-001	42	3,9268989E-006
2	1	0	1	1	9,686499559980351E+004	1,2914156E+000	1,2907741E+000	3,147541037543684E-003	2,000000000000000E+000	-2,4189956E-001	42	4,0627647E-006
2	1	0	1	1	9,696495497614914E+004	1,3114074E+000	1,3107610E+000	3,232488184380475E-003	2,000000000000000E+000	-2,4157377E-001	42	4,2370193E-006
2	1	0	1	1	9,706491475249332E+004	1,3313993E+000	1,3307518E+000	3,359731831367445E-003	2,000000000000000E+000	-2,4123813E-001	42	4,4709691E-006
2	1	0	1	1	9,716487382884882E+004	1,3513910E+000	1,3507367E+000	3,510983279134502E-003	2,000000000000000E+000	-2,4088843E-001	42	4,7424141E-006
2	1	0	1	1	9,726483360521472E+004	1,3713831E+000	1,3707275E+000	3,739818369291957E-003	2,000000000000000E+000	-2,4051924E-001	42	5,1262718E-006
2	1	0	1	1	9,736479268158227E+004	1,3913748E+000	1,3907458E+000	4,065451072449183E-003	2,000000000000000E+000	-2,4012254E-001	42	5,6540089E-006
2	1	0	1	1	9,746475235794904E+004	1,4113666E+000	1,4107147E+000	4,500818569370763E-003	2,000000000000000E+000	-2,3968852E-001	42	6,3493712E-006
2	1	0	1	1	9,756471163431037E+004	1,4313586E+000	1,4306711E+000	5,073091949987295E-003	2,000000000000000E+000	-2,3920391E-001	42	7,2579260E-006
2	1	0	1	1	9,766467111065908E+004	1,4513503E+000	1,4506859E+000	5,786915414095137E-003	2,000000000000000E+000	-2,3865473E-001	42	8,3949963E-006
2	1	0	1	1	9,776463048700453E+004	1,4713422E+000	1,4706674E+000	6,617808148144548E-003	2,000000000000000E+000	-2,3802866E-001	42	9,7325947E-006
2	1	0	1	1	9,786458996335021E+004	1,4913340E+000	1,4906926E+000	7,623507280946941E-003	2,000000000000000E+000	-2,3731200E-001	42	1,1364306E-005
2	1	0	1	1	9,796454933969560E+004	1,5113260E+000	1,5106343E+000	9,030026557277332E-003	2,000000000000000E+000	-2,3647743E-001	42	1,3641068E-005
2	1	0	1	1	9,806450901604758E+004	1,5313178E+000	1,5307345E+000	1,131722384795256E-002	2,000000000000000E+000	-2,3546229E-001	41	1,7323666E-005
2	1	0	1	1	9,816446809241117E+004	1,5513096E+000	1,5507061E+000	1,511186975062423E-002	2,000000000000000E+000	-2,3415036E-001	41	2,3434070E-005
2	1	0	1	1	9,826442746877787E+004	1,5713015E+000	1,5706812E+000	2,135401645059537E-002	2,000000000000000E+000	-2,3234856E-001	41	3,3540353E-005
2	1	0	1	1	9,836438684514537E+004	1,5912933E+000	1,5906599E+000	4,445557337929507E-002	2,000000000000000E+000	-2,2932008E-001	41	7,0713693E-005
2	1	0	1	1	9,846434662150987E+004	1,6112851E+000	1,6106250E+000	8,065398645398691E-002	2,000000000000000E+000	-2,2304492E-001	41	1,2990333E-004
2	1	0	1	1	9,856430569786159E+004	1,6312770E+000	1,6306370E+000	1,150534602247397E-001	2,000000000000000E+000	-2,1324028E-001	40	1,8761044E-004
2	1	0	1	1	9,866426547420563E+004	1,6512690E+000	1,6506553E+000	1,487278404575911E-001	2,000000000000000E+000	-2,0004714E-001	40	2,4549841E-004
2	1	0	1	1	9,876422445055051E+004	1,6712606E+000	1,6706462E+000	1,859036264093856E-001	2,000000000000000E+000	-1,8338133E-001	40	3,1057920E-004
2	1	0	1	1	9,886418442689604E+004	1,6912526E+000	1,6906292E+000	2,424818363716663E-001	2,000000000000000E+000	-1,6217911E-001	40	4,0994689E-004
2	1	0	1	1	9,896414350324660E+004	1,7112445E+000	1,7105920E+000	3,098035793343263E-001	2,000000000000000E+000	-1,3447838E-001	40	5,2994752E-004
2	1	0	1	1	9,906410327960842E+004	1,7312362E+000	1,7305694E+000	3,375741219741912E-001	2,000000000000000E+000	-1,0146986E-001	40	5,8419543E-004
2	1	0	1	1	9,916406265597450E+004	1,7512281E+000	1,7505739E+000	2,676237487728215E-001	2,000000000000000E+000	-7,0449561E-002	40	4,6849516E-004
2	1	0	1	1	9,926402213234140E+004	1,7712200E+000	1,7706349E+000	1,648417915122340E-001	2,000000000000000E+000	-4,8888076E-002	40	2,9187463E-004
2	1	0	1	1	9,936398120870814E+004	1,7912116E+000	1,7906270E+000	7,642411509336450E-002	2,000000000000000E+000	-3,7165355E-002	40	1,3684708E-004
2	1	0	1	1	9,946394088506326E+004	1,8112035E+000	1,8106041E+000	3,859843594674717E-002	2,000000000000000E+000	-3,1645883E-002	41	6,9886490E-005
2	1	0	1	1	9,956390016140800E+004	1,8311955E+000	1,8306103E+000	1,949530651879288E-002	2,000000000000000E+000	-2,8888291E-002	41	3,5688310E-005
2	1	0	1	1	9,966385993775172E+004	1,8511873E+000	1,8506135E+000	1,308627054289140E-002	2,000000000000000E+000	-2,7304666E-002	41	2,4217628E-005
2	1	0	1	1	9,976381901409721E+004	1,8711791E+000	1,8706187E+000	1,077201177422848E-002	2,000000000000000E+000	-2,6112512E-002	41	2,0150326E-005
2	1	0	1	1	9,986377849044581E+004	1,8911709E+000	1,8905904E+000	9,467478249545025E-003	2,000000000000000E+000	-2,5092436E-002	41	1,7899123E-005
2	1	0	1	1	9,996373786680587E+004	1,9111627E+000	1,9106054E+000	8,515156811018625E-003	2,000000000000000E+000	-2,4181304E-002	41	1,6269105E-005
2	1	0	1	1	1,000636975431717E+005	1,9311546E+000	1,9305693E+000	7,648320933309853E-003	2,000000000000000E+000	-2,3358906E-002	41	1,4765614E-005
2	1	0	1	1	1,001636565195378E+005	1,9511465E+000	1,9506016E+000	6,523809039618821E-003	2,000000000000000E+000	-2,2635676E-002	41	1,2725352E-005
2	1	0	1	1	1,002636162959037E+005	1,9711382E+000	1,9705727E+000	6,154164584121706E-003	2,000000000000000E+000	-2,1992000E-002	41	1,2127229E-005
2	1	0	1	1	1,003635753722636E+005	1,9911304E+000	1,9905868E+000	5,963518547891122E-003	2,000000000000000E+000	-2,1373222E-002	41	1,1870901E-005
2	1	0	1	1	1,004635360486088E+005	2,0111217E+000	2,0105803E+000	5,829132094053398E-003	2,000000000000000E+000	-2,0770358E-002	41	1,1719938E-005
2	1	0	1	1	1,005634954249533E+005	2,0311136E+000	2,0305800E+000	5,722347190409962E-003	2,000000000000000E+000	-2,0180088E-002	41	1,1619684E-005
2	1	0	1	1	1,006634546012986E+005	2,0511055E+000	2,0505605E+000	5,610631597934623E-003	2,000000000000000E+000	-1,9600885E-002	41	1,1504940E-005
2	1	0	1	1	1,007634138776446E+005	2,0710974E+000	2,0705466E+000	5,514253713187159E-003	2,000000000000000E+000	-1,9031586E-002	41	1,1417519E-005
2	1	0	1	1	1,008633735540025E+005	2,0910892E+000	2,0905359E+000	5,419617208044375E-003	2,000000000000000E+000	-1,8471709E-002	41	1,1329904E-005
2	1	0	1	1	1,009633329303681E+005	2,1110809E+000	2,1105487E+000	5,312505130881204E-003	2,000000000000000E+000	-1,7922141E-002	41	1,1212301E-005
2	1	0	1	1	1,010632927067340E+005	2,1310730E+000	2,1305242E+000	5,221329465173050E-003	2,000000000000000E+000	-1,7382709E-002	41	1,1124169E-005
2	1	0	1	1	1,011632520831004E+005	2,1510651E+000	2,1505394E+000	5,110399911546139E-003	2,000000000000000E+000	-1,6853420E-002	41	1,0990117E-005
2	1	0	1	1	1,012632118594626E+005	2,1710565E+000	2,1705031E+000	5,018868397155409E-003	2,000000000000000E+000	-1,6334428E-002	41	1,0893470E-005
2	1	0	1	1	1,013634203357522E+005	2,1910985E+000	2,1905351E+000	4,916346955365261E-003	2,000000000000000E+000	-1,5824052E-002	41	1,0769430E-005
2	1	0	1	1	1,014636304120377E+005	2,2111404E+000	2,2105539E+000	4,823731380972293E-003	2,000000000000000E+000	-1,5324042E-002	42	1,0663118E-005
2	1	0	1	1	1,015635891883825E+005	2,2311323E+000	2,2305605E+000	4,724502958580387E-003	2,000000000000000E+000	-1,4835281E-002	42	1,0538290E-005
2	1	0	1	1	1,016635488647278E+005	2,2511241E+000	2,2505298E+000	4,626679731179629E-003	2,000000000000000E+000	-1,4355760E-002	42	1,0412480E-005
2	1	0	1	1	1,017635081410806E+005	2,2711158E+000	2,2705467E+000	4,544688065086774E-003	2,000000000000000E+000	-1,3885415E-002	42	1,0318927E-005
2	1	0	1	1	1,018634673174461E+005	2,2911077E+000	2,2905102E+000	4,436400192363923E-003	2,000000000000000E+000	-1,3425007E-002	42	1,0161620E-005
2	1	0	1	1	1,019634266938115E+005	2,3110995E+000	2,3105416E+000	4,360635458472983E-003	2,000000000000000E+000	-1,2972856E-002	42	1,0075430E-005
2	1	0	1	1	1,020633864701777E+005	2,3310912E+000	2,3304777E+000	4,279145371941434E-003	2,000000000000000E+000	-1,2529092E-002	42	9,9724530E-006
2	1	0	1	1	1,021633458465433E+005	2,3510833E+000	2,3505182E+000	4,205569460644557E-003	2,000000000000000E+000	-1,2092948E-002	42	9,8852679E-006
2	1	0	1	1	1,022633055228958E+005	2,3710749E+000	2,3704939E+000	4,136672191294141E-003	2,000000000000000E+000	-1,1663995E-002	42	9,8059563E-006
2	1	0	1	1	1,023632648992395E+005	2,3910670E+000	2,3904874E+000	4,081164593391091E-003	2,000000000000000E+000	-1,1241841E-002	42	9,7559723E-006
2	1	0	1	1	1,024632245755841E+005	2,4110589E+000	2,4104927E+000	4,025858526361351E-003	2,000000000000000E+000	-1,0825501E-002	42	9,7043021E-006
2	1	0	1	1	1,025631833519288E+005	2,4310505E+000	2,4304669E+000	3,977173432499845E-003	2,000000000000000E+000	-1,0414368E-002	42	9,6663880E-006
2	1	0	1	1	1,026631431282796E+005	2,4510424E+000	2,4504771E+000	3,938482908386609E-003	2,000000000000000E+000	-1,0007504E-002	42	9,6511621E-006
2	1	0	1	1	1,027631025046437E+005	2,4710343E+000	2,4704437E+000	3,897663384554551E-003	2,000000000000000E+000	-9,6041141E-003	42	9,6289577E-006
2	1	0	1	1	1,028630622810089E+005	2,4910262E+000	2,4904401E+000	3,886191743089157E-003	2,000000000000000E+000	-9,2029581E-003	42	9,6783278E-006
2	1	0	1	1	1,029630209573745E+005	2,5110178E+000	2,5104420E+000	3,879061453384425E-003	2,000000000000000E+000	-8,8030389E-003	42	9,7381590E-006
2	1	0	1	1	1,030629806337410E+005	2,5310099E+000	2,5304332E+000	3,880945594402052E-003	2,000000000000000E+000	-8,4035993E-003	42	9,8204737E-006
2	1	0	1	1	1,031629400100964E+005	2,5510018E+000	2,5504198E+000	3,878899716344572E-003	2,000000000000000E+000	-8,0040190E-003	42	9,8928231E-006
2	1	0	1	1	1,032628997864415E+005	2,5709932E+000	2,5704277E+000	3,907966078096112E-003	2,000000000000000E+000	-7,6038921E-003	42	1,0045144E-005
2	1	0	1	1	1,033628591627856E+005	2,5909855E+000	2,5904372E+000	3,915478590228859E-003	2,000000000000000E+000	-7,2018197E-003	42	1,0142801E-005
2	1	0	1	1	1,034628189391296E+005	2,6109774E+000	2,6104205E+000	3,951766039452144E-003	2,000000000000000E+000	-6,7971861E-003	42	1,0315771E-005
2	1	0	1	1	1,035627777154781E+005	2,6309690E+000	2,6304288E+000	3,986131921862510E-003	2,000000000000000E+000	-6,3893376E-003	42	1,0485236E-005
2	1	0	1	1	1,036627373918400E+005	2,6509609E+000	2,6504068E+000	4,033191538819765E-003	2,000000000000000E+000	-5,9777531E-003	42	1,0689599E-005
2	1	0	1	1	1,037626966682067E+005	2,6709526E+000	2,6704137E+000	4,084868424001700E-003	2,000000000000000E+000	-5,5607967E-003	42	1,0908288E-005
2	1	0	1	1	1,038626558445719E+005	2,6909444E+000	2,6904373E+000	4,154140182850527E-003	2,000000000000000E+000	-5,1377499E-003	42	1,1176454E-005
2	1	0	1	0	1,039556180225947E+005	2,6904447E+000	2,6899102E+000	2,664657720737342E-003	2,000000000000000E+000	-4,8000603E-003	42	7,1676900E-006
2	1	0	1	0	1,040555773989392E+005	2,6704531E+000	2,6699469E+000	1,608750245365359E-003	2,000000000000000E+000	-4,6049366E-003	42	4,2952779E-006
2	1	0	1	0	1,041555367752847E+005	2,6504612E+000	2,6499262E+000	1,027189786949483E-003	2,000000000000000E+000	-4,4871732E-003	42	2,7219771E-006
2	1	0	1	0	1,042554953516307E+005	2,6304693E+000	2,6298790E+000	6,282099073010092E-004	2,000000000000000E+000	-4,4156895E-003	43	1,6521160E-006
2	1	0	1	0	1,043554547279776E+005	2,6104772E+000	2,6099126E+000	3,746804319200055E-004	2,000000000000000E+000	-4,3746359E-003	43	9,7788325E-007
2	1	0	1	0	1,044554133043375E+005	2,5904853E+000	2,5899639E+000	1,872903669119721E-004	2,000000000000000E+000	-4,3554739E-003	43	4,8507530E-007
2	1	0	1	0	1,045553720807049E+005	2,5704937E+000	2,5699418E+000	5,134186735916426E-005	2,000000000000000E+000	-4,3524303E-003	43	1,3194561E-007
2	0	0	1	0	1,046553305570721E+005	2,5505021E+000	2,5499806E+000	-6,882707557366694E-005	2,000000000000000E+000	-4,3622074E-003	43	-1,7550771E-007
2	0	0	1	0	1,047552898334380E+005	2,5305099E+000	2,5299909E+000	-1,773664064959623E-004	2,000000000000000E+000	-4,3830960E-003	43	-4,4873539E-007
2	0	0	1	0	1,048552478097964E+005	2,5105181E+000	2,5100491E+000	-2,840313837095817E-004	2,000000000000000E+000	-4,4139572E-003	43	-7,1293272E-007
2	0	0	1	0	1,049552071861415E+005	2,4905264E+000	2,4900303E+000	-3,563913126640155E-004	2,000000000000000E+000	-4,4541191E-003	43	-8,8742519E-007
2	0	0	1	0	1,050551657624876E+005	2,4705343E+000	2,4700847E+000	-4,415856911212865E-004	2,000000000000000E+000	-4,5021106E-003	43	-1,0907540E-006
2	0	0	1	0	1,051551251388333E+005	2,4505424E+000	2,4500759E+000	-5,208409446571128E-004	2,000000000000000E+000	-4,5581306E-003	43	-1,2760999E-006
2	0	0	1	0	1,052550837151781E+005	2,4305508E+000	2,4300911E+000	-5,956198894083217E-004	2,000000000000000E+000	-4,6219132E-003	43	-1,4474106E-006
2	0	0	1	0	1,053550429915362E+005	2,4105589E+000	2,4101107E+000	-6,766638355524632E-004	2,000000000000000E+000	-4,6932120E-003	43	-1,6308347E-006
2	0	0	1	0	1,054550015679031E+005	2,3905671E+000	2,3900661E+000	-7,195539299723486E-004	2,000000000000000E+000	-4,7723842E-003	42	-1,7197815E-006
2	0	0	1	0	1,055549602442693E+005	2,3705752E+000	2,3700604E+000	-7,968451892996298E-004	2,000000000000000E+000	-4,8586293E-003	42	-1,8885713E-006
2	0	0	1	0	1,056549188206363E+005	2,3505833E+000	2,3500919E+000	-8,710559016369968E-004	2,000000000000000E+000	-4,9523450E-003	42	-2,0470613E-006
2	0	0	1	0	1,057548781969973E+005	2,3305914E+000	2,3300703E+000	-9,466539627680029E-004	2,000000000000000E+000	-5,0535863E-003	42	-2,2057702E-006
2	0	0	1	0	1,058548361733444E+005	2,3106000E+000	2,3100896E+000	-1,022050749423240E-003	2,000000000000000E+000	-5,1623909E-003	42	-2,3610287E-006
2	0	0	1	0	1,059547955496894E+005	2,2906082E+000	2,2900825E+000	-1,089681638629049E-003	2,000000000000000E+000	-5,2788798E-003	42	-2,4954609E-006
2	0	0	1	0	1,060547541260361E+005	2,2706161E+000	2,2701118E+000	-1,171371946919075E-003	2,000000000000000E+000	-5,4032840E-003	42	-2,6591454E-006
2	0	0	1	0	1,061547134023802E+005	2,2506239E+000	2,2501223E+000	-1,265067039532762E-003	2,000000000000000E+000	-5,5358568E-003	42	-2,8465556E-006
2	0	0	1	0	1,062546718787343E+005	2,2306325E+000	2,2301362E+000	-1,343548913499894E-003	2,000000000000000E+000	-5,6767780E-003	42	-2,9962971E-006
2	0	0	1	0	1,063546312550999E+005	2,2106404E+000	2,2101505E+000	-1,436196177253220E-003	2,000000000000000E+000	-5,8265477E-003	42	-3,1742097E-006
2	0	0	1	0	1,064545898314668E+005	2,1906488E+000	2,1901333E+000	-1,533808859794657E-003	2,000000000000000E+000	-5,9857550E-003	42	-3,3592460E-006
2	0	0	1	0	1,065545486078346E+005	2,1706569E+000	2,1701472E+000	-1,629369202955512E-003	2,000000000000000E+000	-6,1548227E-003	42	-3,5359710E-006
2	0	0	1	0	1,066545071841977E+005	2,1506648E+000	2,1501634E+000	-1,743558432175851E-003	2,000000000000000E+000	-6,3341707E-003	42	-3,7489356E-006
2	0	0	1	0	1,067544665605470E+005	2,1306729E+000	2,1301680E+000	-1,856382489336452E-003	2,000000000000000E+000	-6,5245149E-003	42	-3,9544066E-006
2	0	0	1	0	1,068544245368924E+005	2,1106813E+000	2,1102083E+000	-1,967503950473659E-003	2,000000000000000E+000	-6,7262864E-003	42	-4,1518433E-006
2	0	0	1	0	1,069543838132384E+005	2,0906894E+000	2,0902019E+000	-2,098937459630731E-003	2,000000000000000E+000	-6,9405176E-003	42	-4,3872028E-006
2	0	0	1	0	1,070543422895832E+005	2,0706975E+000	2,0701888E+000	-2,244006097726448E-003	2,000000000000000E+000	-7,1684145E-003	42	-4,6455161E-006
2	0	0	1	0	1,071543016659343E+005	2,0507057E+000	2,0501893E+000	-2,394147367509293E-003	2,000000000000000E+000	-7,4108187E-003	42	-4,9084551E-006
2	0	0	1	0	1,072542602422989E+005	2,0307138E+000	2,0302274E+000	-2,559736397423601E-003	2,000000000000000E+000	-7,6690307E-003	42	-5,1968468E-006
2	0	0	1	0	1,073542196186646E+005	2,0107219E+000	2,0102360E+000	-2,748253584878187E-003	2,000000000000000E+000	-7,9448661E-003	42	-5,5246383E-006
2	0	0	1	0	1,074541781950317E+005	1,9907304E+000	1,9902416E+000	-2,958603006308513E-003	2,000000000000000E+000	-8,2407519E-003	42	-5,8883347E-006
2	0	0	1	0	1,075541372713982E+005	1,9707386E+000	1,9702326E+000	-3,197555954103128E-003	2,000000000000000E+000	-8,5589634E-003	42	-6,2999288E-006
2	0	0	1	0	1,076540963477502E+005	1,9507465E+000	1,9502705E+000	-3,447004155413673E-003	2,000000000000000E+000	-8,9015737E-003	42	-6,7225906E-006
2	0	0	1	0	1,077540556240946E+005	1,9307548E+000	1,9302574E+000	-3,705469050640911E-003	2,000000000000000E+000	-9,2698997E-003	42	-7,1525092E-006
2	0	0	1	0	1,078540145004396E+005	1,9107629E+000	1,9102668E+000	-3,973234487567145E-003	2,000000000000000E+000	-9,6645681E-003	42	-7,5899379E-006
2	0	0	1	0	1,079539738767850E+005	1,8907712E+000	1,8902532E+000	-4,284539163007028E-003	2,000000000000000E+000	-1,0087656E-002	42	-8,0988639E-006
2	0	0	0	0	1,080001113658631E+005	1,8815254E+000	1,8810730E+000	-4,480447258833661E-003	2,000000000000000E+000	-1,0293627E-002	42	-8,4280482E-006