File: Dati/201027/CV_LTO-C_Al_slurrymia_01_1mVs_08_CV_C03.mpt
EC-Lab ASCII FILE
Nb header lines : 63

Cyclic Voltammetry

Run on channel : 3 (SN 6807)
User :
Electrode connection : standard
Ewe ctrl range : min = 0,00 V, max = 5,00 V
Ewe,I filtering : 50 kHz
Safety Limits :
	Do not start on E overload
Channel : Grounded
Acquisition started on : 10/27/2020 18:19:16
Saved on :
	File : CV_LTO-C_Al_slurrymia_01_1mVs_08_CV_C03.mpr
	Directory : C:\Users\labsuperfici\Desktop\Biologic\Users\Prisca Viviani\201027\
	Host : 10.78.33.0
Device : VSP-300 (SN 0638)
Address : USB
EC-Lab for windows v11.31 (software)
Internet server v11.30 (firmware)
Command interpretor v11.31 (firmware)
Electrode material :
Initial state :
Electrolyte :
Comments :
Cable : standard
Reference electrode : SCE Saturated Calomel Electrode (0,241 V)
Electrode surface area : 0,001 cm²
Characteristic mass : 0,001 g
Equivalent Weight : 0,000 g/eq.
Density : 0,000 g/cm3
Cycle Definition : Charge/Discharge alternance
Ei (V)              0,000
vs.                 Eoc
dE/dt               0,800
dE/dt unit          mV/s
E1 (V)              1,000
vs.                 Ref
Step percent        50
N                   10
E range min (V)     0,000
E range max (V)     5,000
I Range             Auto
I Range min         Unset
I Range max         Unset
I Range init        Unset
Bandwidth           8
E2 (V)              3,000
vs.                 Ref
nc cycles           2
Reverse Scan        1
Ef (V)              0,000
vs.                 Eoc

Modify on : 10/28/2020 10:35
nc cycles           1

Modify on : 10/28/2020 10:37
E2 (V)              2,700

mode	ox/red	error	control changes	counter inc.	time/s	control/V	Ewe/V	<I>/mA	cycle number	(Q-Qo)/C	I Range	P/W
2	0	0	0	0	1,823163525262261E+005	1,8815254E+000	1,8809050E+000	-1,423935219645500E-002	1,000000000000000E+000	0,0000000E+000	41	-2,6782869E-005
2	0	0	1	0	1,823407800300480E+005	1,8619828E+000	1,8614038E+000	-1,404056809064996E-002	1,000000000000000E+000	-3,3562572E-004	41	-2,6135167E-005
2	0	0	1	0	1,823657699339562E+005	1,8419908E+000	1,8414198E+000	-1,544978878857917E-002	1,000000000000000E+000	-7,1425602E-004	41	-2,8449547E-005
2	0	0	1	0	1,823907597378683E+005	1,8219992E+000	1,8214335E+000	-1,684518090585391E-002	1,000000000000000E+000	-1,1281337E-003	41	-3,0682379E-005
2	0	0	1	0	1,824157494417775E+005	1,8020074E+000	1,8014352E+000	-1,816891301766380E-002	1,000000000000000E+000	-1,5762077E-003	41	-3,2730120E-005
2	0	0	1	0	1,824407393456865E+005	1,7820153E+000	1,7814481E+000	-1,953463567699693E-002	1,000000000000000E+000	-2,0573915E-003	41	-3,4799941E-005
2	0	0	1	0	1,824657292495985E+005	1,7620236E+000	1,7614756E+000	-2,093093778297012E-002	1,000000000000000E+000	-2,5734014E-003	41	-3,6869336E-005
2	0	0	1	0	1,824907189535073E+005	1,7420318E+000	1,7414658E+000	-2,232729279998277E-002	1,000000000000000E+000	-3,1240594E-003	41	-3,8882215E-005
2	0	0	1	0	1,825157086574165E+005	1,7220399E+000	1,7214990E+000	-2,369305382590636E-002	1,000000000000000E+000	-3,7094278E-003	41	-4,0787567E-005
2	0	0	1	0	1,825406984613286E+005	1,7020481E+000	1,7014817E+000	-2,532867846474035E-002	1,000000000000000E+000	-4,3318891E-003	41	-4,3096283E-005
2	0	0	1	0	1,825656884652372E+005	1,6820561E+000	1,6815223E+000	-2,754348898086446E-002	1,000000000000000E+000	-5,0013466E-003	41	-4,6314988E-005
2	0	0	1	0	1,825906782691465E+005	1,6620643E+000	1,6615032E+000	-3,090010325266374E-002	1,000000000000000E+000	-5,7392968E-003	41	-5,1340619E-005
2	0	0	1	0	1,826156680730584E+005	1,6420724E+000	1,6415201E+000	-3,601314176072690E-002	1,000000000000000E+000	-6,5810559E-003	41	-5,9116297E-005
2	0	0	1	0	1,826406577769667E+005	1,6220808E+000	1,6215314E+000	-4,329040268993083E-002	1,000000000000000E+000	-7,5770626E-003	41	-7,0196744E-005
2	0	0	1	0	1,826656476808768E+005	1,6020889E+000	1,6015706E+000	-5,355716483901110E-002	1,000000000000000E+000	-8,7920912E-003	41	-8,5775580E-005
2	0	0	1	0	1,826906374847880E+005	1,5820971E+000	1,5815554E+000	-6,737032206303972E-002	1,000000000000000E+000	-1,0304189E-002	41	-1,0654989E-004
2	0	0	1	0	1,827156272886966E+005	1,5621052E+000	1,5616161E+000	-8,671768676237196E-002	1,000000000000000E+000	-1,2224980E-002	41	-1,3541973E-004
2	0	0	1	0	1,827406170926075E+005	1,5421134E+000	1,5415602E+000	-1,214254668664982E-001	1,000000000000000E+000	-1,4779520E-002	40	-1,8718466E-004
2	0	0	1	0	1,827656067965175E+005	1,5221217E+000	1,5215697E+000	-2,103417452708212E-001	1,000000000000000E+000	-1,8803930E-002	40	-3,2004964E-004
2	0	0	1	0	1,827905967004260E+005	1,5021297E+000	1,5015528E+000	-3,098153972619127E-001	1,000000000000000E+000	-2,5382366E-002	40	-4,6520418E-004
2	0	0	1	0	1,828155865043369E+005	1,4821378E+000	1,4815844E+000	-3,742668314713138E-001	1,000000000000000E+000	-3,4017708E-002	40	-5,5450789E-004
2	0	0	1	0	1,828405763082471E+005	1,4621459E+000	1,4616033E+000	-4,057727575983394E-001	1,000000000000000E+000	-4,3838553E-002	40	-5,9307879E-004
2	0	0	1	0	1,828655661121549E+005	1,4421542E+000	1,4416201E+000	-4,121298564650657E-001	1,000000000000000E+000	-5,4113265E-002	40	-5,9413468E-004
2	0	0	1	0	1,828905560160670E+005	1,4221623E+000	1,4216166E+000	-4,025209414763165E-001	1,000000000000000E+000	-6,4328618E-002	40	-5,7223043E-004
2	0	0	1	0	1,829155457199765E+005	1,4021705E+000	1,4016243E+000	-3,843301409560889E-001	1,000000000000000E+000	-7,4181937E-002	40	-5,3868647E-004
2	0	0	1	0	1,829405355238849E+005	1,3821785E+000	1,3816375E+000	-3,628069192345937E-001	1,000000000000000E+000	-8,3530635E-002	40	-5,0126761E-004
2	0	0	1	0	1,829655253277970E+005	1,3621868E+000	1,3616301E+000	-3,408550707294786E-001	1,000000000000000E+000	-9,2332140E-002	40	-4,6411852E-004
2	0	0	1	0	1,829905151317064E+005	1,3421948E+000	1,3416420E+000	-3,197625083934792E-001	1,000000000000000E+000	-1,0059405E-001	40	-4,2900682E-004
2	0	0	1	0	1,830155050356155E+005	1,3222030E+000	1,3216587E+000	-3,001493210339951E-001	1,000000000000000E+000	-1,0834682E-001	40	-3,9669496E-004
2	0	0	1	0	1,830404947395273E+005	1,3022113E+000	1,3016430E+000	-2,821645230958767E-001	1,000000000000000E+000	-1,1562891E-001	40	-3,6727748E-004
2	0	0	1	0	1,830654845434363E+005	1,2822193E+000	1,2816706E+000	-2,656112699532720E-001	1,000000000000000E+000	-1,2247928E-001	40	-3,4042614E-004
2	0	0	1	0	1,830904745473452E+005	1,2622274E+000	1,2616712E+000	-2,505072390423497E-001	1,000000000000000E+000	-1,2893482E-001	40	-3,1605776E-004
2	0	0	1	0	1,831154642512575E+005	1,2422357E+000	1,2416592E+000	-2,367618079970290E-001	1,000000000000000E+000	-1,3502933E-001	40	-2,9397747E-004
2	0	0	1	0	1,831404539551658E+005	1,2222438E+000	1,2216811E+000	-2,242660839503152E-001	1,000000000000000E+000	-1,4079505E-001	40	-2,7398163E-004
2	0	0	1	0	1,831654437590754E+005	1,2022519E+000	1,2016648E+000	-2,128308534681143E-001	1,000000000000000E+000	-1,4626168E-001	40	-2,5575134E-004
2	0	0	1	0	1,831904335629875E+005	1,1822602E+000	1,1816696E+000	-2,026128590951137E-001	1,000000000000000E+000	-1,5145725E-001	40	-2,3942145E-004
2	0	0	1	0	1,832154235668958E+005	1,1622682E+000	1,1616578E+000	-1,932689844100385E-001	1,000000000000000E+000	-1,5640877E-001	40	-2,2451242E-004
2	0	0	1	0	1,832404132708060E+005	1,1422765E+000	1,1416826E+000	-1,847751434303682E-001	1,000000000000000E+000	-1,6113661E-001	40	-2,1095457E-004
2	0	0	1	0	1,832654029747169E+005	1,1222847E+000	1,1216764E+000	-1,771146512237017E-001	1,000000000000000E+000	-1,6566315E-001	40	-1,9866534E-004
2	0	0	1	0	1,832903928786253E+005	1,1022928E+000	1,1017005E+000	-1,701622753545824E-001	1,000000000000000E+000	-1,7000686E-001	40	-1,8746787E-004
2	0	0	1	0	1,833153827825356E+005	1,0823008E+000	1,0817331E+000	-1,639252722333464E-001	1,000000000000000E+000	-1,7418565E-001	40	-1,7732340E-004
2	0	0	1	0	1,833403724864465E+005	1,0623090E+000	1,0617085E+000	-1,583658612777530E-001	1,000000000000000E+000	-1,7821729E-001	40	-1,6813837E-004
2	0	0	1	0	1,833653622903544E+005	1,0423173E+000	1,0416975E+000	-1,534974461879701E-001	1,000000000000000E+000	-1,8211772E-001	40	-1,5989790E-004
2	0	0	1	0	1,833903519942653E+005	1,0223254E+000	1,0217187E+000	-1,494211194649084E-001	1,000000000000000E+000	-1,8590541E-001	40	-1,5266635E-004
2	0	0	1	0	1,834153419981757E+005	1,0023334E+000	1,0017422E+000	-1,461267578013734E-001	1,000000000000000E+000	-1,8960114E-001	40	-1,4638135E-004
2	0	0	1	0	1,834389580018693E+005	1,0165278E+000	1,0159460E+000	-1,180091460427752E-001	1,000000000000000E+000	-1,9268294E-001	40	-1,1989092E-004
2	0	0	1	0	1,834639478057814E+005	1,0365195E+000	1,0359225E+000	-1,010479117166043E-001	1,000000000000000E+000	-1,9540206E-001	40	-1,0467781E-004
2	0	0	1	0	1,834889376096903E+005	1,0565114E+000	1,0559220E+000	-8,831296308142900E-002	1,000000000000000E+000	-1,9775672E-001	40	-9,3251605E-005
2	0	0	1	0	1,835139275135999E+005	1,0765034E+000	1,0759300E+000	-7,805789348869208E-002	1,000000000000000E+000	-1,9982658E-001	40	-8,3984829E-005
2	0	0	1	0	1,835389173175120E+005	1,0964952E+000	1,0959339E+000	-6,941775099000147E-002	1,000000000000000E+000	-2,0166145E-001	40	-7,6077267E-005
2	0	0	1	0	1,835639070214203E+005	1,1164870E+000	1,1158831E+000	-6,200874391670008E-002	1,000000000000000E+000	-2,0329688E-001	40	-6,9194510E-005
2	0	0	1	0	1,835888968253294E+005	1,1364789E+000	1,1358659E+000	-5,557614305902292E-002	1,000000000000000E+000	-2,0475987E-001	40	-6,3127045E-005
2	0	0	1	0	1,836138868292414E+005	1,1564708E+000	1,1558634E+000	-4,982136708358664E-002	1,000000000000000E+000	-2,0607060E-001	40	-5,7586694E-005
2	0	0	1	0	1,836388765331497E+005	1,1764625E+000	1,1758873E+000	-4,464434824298229E-002	1,000000000000000E+000	-2,0724459E-001	41	-5,2496725E-005
2	0	0	1	0	1,836638662370597E+005	1,1964543E+000	1,1958870E+000	-4,006802157496503E-002	1,000000000000000E+000	-2,0829794E-001	41	-4,7916827E-005
2	0	0	1	0	1,836888562409710E+005	1,2164462E+000	1,2158667E+000	-3,590356348682833E-002	1,000000000000000E+000	-2,0924205E-001	41	-4,3653949E-005
2	0	0	1	0	1,837138460448794E+005	1,2364382E+000	1,2358111E+000	-3,212436452404199E-002	1,000000000000000E+000	-2,1008696E-001	41	-3,9699647E-005
2	0	0	1	0	1,837388358487897E+005	1,2564299E+000	1,2558244E+000	-2,862343765269190E-002	1,000000000000000E+000	-2,1084103E-001	41	-3,5946014E-005
2	0	0	1	0	1,837638257527004E+005	1,2764218E+000	1,2758337E+000	-2,538901580351823E-002	1,000000000000000E+000	-2,1151105E-001	41	-3,2392163E-005
2	0	0	1	0	1,837888154566088E+005	1,2964135E+000	1,2958256E+000	-2,237439018275977E-002	1,000000000000000E+000	-2,1210319E-001	41	-2,8993307E-005
2	0	0	1	0	1,838138052605200E+005	1,3164054E+000	1,3157696E+000	-1,952390886125729E-002	1,000000000000000E+000	-2,1262217E-001	41	-2,5688965E-005
2	0	0	1	0	1,838387952644296E+005	1,3363974E+000	1,3357811E+000	-1,679896017479957E-002	1,000000000000000E+000	-2,1307161E-001	41	-2,2439734E-005
2	0	0	1	0	1,838637849683380E+005	1,3563892E+000	1,3557407E+000	-1,415278702382766E-002	1,000000000000000E+000	-2,1345410E-001	41	-1,9187510E-005
2	0	0	1	0	1,838887747722501E+005	1,3763809E+000	1,3757839E+000	-1,155081945949728E-002	1,000000000000000E+000	-2,1377112E-001	41	-1,5891432E-005
2	0	0	1	0	1,839137644761597E+005	1,3963727E+000	1,3957542E+000	-8,926165925471907E-003	1,000000000000000E+000	-2,1402295E-001	41	-1,2458734E-005
2	0	0	1	0	1,839387544800681E+005	1,4163647E+000	1,4157286E+000	-6,222362476423812E-003	1,000000000000000E+000	-2,1420811E-001	41	-8,8091765E-006
2	0	0	1	0	1,839637442839802E+005	1,4363564E+000	1,4357514E+000	-3,305370517000500E-003	1,000000000000000E+000	-2,1432315E-001	42	-4,7456906E-006
2	0	0	1	0	1,839887966878992E+005	1,4563984E+000	1,4557675E+000	-1,169955139556737E-004	1,000000000000000E+000	-2,1436322E-001	42	-1,7031827E-007
2	1	0	1	0	1,840138488918180E+005	1,4764401E+000	1,4757606E+000	3,356081147937832E-003	1,000000000000000E+000	-2,1432045E-001	42	4,9527721E-006
2	1	0	1	0	1,840388386957301E+005	1,4964318E+000	1,4957528E+000	7,471656357210366E-003	1,000000000000000E+000	-2,1418278E-001	42	1,1175751E-005
2	1	0	1	0	1,840638285996389E+005	1,5164239E+000	1,5158192E+000	1,287477003449393E-002	1,000000000000000E+000	-2,1392763E-001	41	1,9515823E-005
2	1	0	1	0	1,840888183035478E+005	1,5364156E+000	1,5357689E+000	2,036058462076268E-002	1,000000000000000E+000	-2,1351410E-001	41	3,1269152E-005
2	1	0	1	0	1,841138081074599E+005	1,5564073E+000	1,5557466E+000	3,176768133937978E-002	1,000000000000000E+000	-2,1286881E-001	41	4,9422462E-005
2	1	0	1	0	1,841387981113683E+005	1,5763993E+000	1,5757259E+000	4,956995061005143E-002	1,000000000000000E+000	-2,1186610E-001	41	7,8108656E-005
2	1	0	1	0	1,841637878152784E+005	1,5963912E+000	1,5957099E+000	1,009792073980046E-001	1,000000000000000E+000	-2,1010381E-001	41	1,6113352E-004
2	1	0	1	0	1,841887777191899E+005	1,6163830E+000	1,6157479E+000	1,846596771389073E-001	1,000000000000000E+000	-2,0654389E-001	40	2,9836348E-004
2	1	0	1	0	1,842137675230982E+005	1,6363748E+000	1,6357126E+000	2,758454627674118E-001	1,000000000000000E+000	-2,0080377E-001	40	4,5120390E-004
2	1	0	1	0	1,842387573270085E+005	1,6563668E+000	1,6556779E+000	3,822378522366497E-001	1,000000000000000E+000	-1,9261543E-001	40	6,3286279E-004
2	1	0	1	0	1,842637471309192E+005	1,6763585E+000	1,6756525E+000	5,164097598393602E-001	1,000000000000000E+000	-1,8145053E-001	40	8,6532329E-004
2	1	0	1	0	1,842887370348277E+005	1,6963506E+000	1,6956487E+000	6,922386317713454E-001	1,000000000000000E+000	-1,6643046E-001	40	1,1737936E-003
2	1	0	1	0	1,843137268387391E+005	1,7163423E+000	1,7156477E+000	9,081249848029100E-001	1,000000000000000E+000	-1,4648196E-001	40	1,5580226E-003
2	1	0	1	0	1,843387167426483E+005	1,7363342E+000	1,7357169E+000	1,129247980929481E+000	1,000000000000000E+000	-1,2094921E-001	39	1,9600547E-003
2	1	0	1	0	1,843637065465567E+005	1,7563260E+000	1,7557237E+000	1,255003554133744E+000	1,000000000000000E+000	-9,0771250E-002	39	2,2034396E-003
2	1	0	1	0	1,843886963504683E+005	1,7763177E+000	1,7756721E+000	1,099444225251307E+000	1,000000000000000E+000	-6,0591977E-002	39	1,9522525E-003
2	1	0	1	0	1,844136861543783E+005	1,7963096E+000	1,7957317E+000	6,684411248943043E-001	1,000000000000000E+000	-3,8247842E-002	39	1,2003409E-003
2	1	0	1	0	1,844386760582868E+005	1,8163015E+000	1,8156562E+000	2,904252958286522E-001	1,000000000000000E+000	-2,6685361E-002	40	5,2731251E-004
2	1	0	1	0	1,844636658621989E+005	1,8362933E+000	1,8356735E+000	1,388772029068899E-001	1,000000000000000E+000	-2,1705860E-002	40	2,5493320E-004
2	1	0	1	0	1,844886555661081E+005	1,8562851E+000	1,8556650E+000	9,270229991465739E-002	1,000000000000000E+000	-1,8889243E-002	40	1,7202440E-004
2	1	0	1	0	1,845136453700168E+005	1,8762770E+000	1,8756884E+000	7,077614539670973E-002	1,000000000000000E+000	-1,6860675E-002	40	1,3275399E-004
2	1	0	1	0	1,845386353739291E+005	1,8962688E+000	1,8956977E+000	5,813799772743039E-002	1,000000000000000E+000	-1,5250701E-002	40	1,1021207E-004
2	1	0	1	0	1,845636251778380E+005	1,9162607E+000	1,9156497E+000	4,998403172733001E-002	1,000000000000000E+000	-1,3891897E-002	40	9,5751893E-005
2	1	0	1	0	1,845887399817663E+005	1,9363524E+000	1,9356883E+000	4,377867750514497E-002	1,000000000000000E+000	-1,2704906E-002	41	8,4741871E-005
2	1	0	1	0	1,846137296856786E+005	1,9563441E+000	1,9557099E+000	3,904881183661169E-002	1,000000000000000E+000	-1,1659467E-002	41	7,6368153E-005
2	1	0	1	0	1,846387195895870E+005	1,9763361E+000	1,9757010E+000	3,503732305416685E-002	1,000000000000000E+000	-1,0721525E-002	41	6,9223272E-005
2	1	0	1	0	1,846637093934966E+005	1,9963281E+000	1,9957273E+000	3,097351181250607E-002	1,000000000000000E+000	-9,8845912E-003	41	6,1814681E-005
2	1	0	1	0	1,846886992974086E+005	2,0163198E+000	2,0157106E+000	2,769268141789186E-002	1,000000000000000E+000	-9,1415606E-003	41	5,5820430E-005
2	1	0	1	0	1,847136891013169E+005	2,0363116E+000	2,0356891E+000	2,517328195121116E-002	1,000000000000000E+000	-8,4699905E-003	41	5,1244977E-005
2	1	0	1	0	1,847386792052272E+005	2,0563037E+000	2,0556870E+000	2,267931333657491E-002	1,000000000000000E+000	-7,8601679E-003	41	4,6621568E-005
2	1	0	1	0	1,847636689091381E+005	2,0762951E+000	2,0756767E+000	2,091860892307429E-002	1,000000000000000E+000	-7,3052356E-003	41	4,3420270E-005
2	1	0	1	0	1,847886587130465E+005	2,0962870E+000	2,0956492E+000	1,984123007295269E-002	1,000000000000000E+000	-6,7844838E-003	41	4,1580261E-005
2	1	0	1	0	1,848136486169570E+005	2,1162791E+000	2,1156590E+000	1,889222462705906E-002	1,000000000000000E+000	-6,2882029E-003	41	3,9969505E-005
2	1	0	1	0	1,848386385208671E+005	2,1362710E+000	2,1356487E+000	1,801518705191169E-002	1,000000000000000E+000	-5,8148820E-003	41	3,8474111E-005
2	1	0	1	0	1,848636281247756E+005	2,1562626E+000	2,1556573E+000	1,709484175481102E-002	1,000000000000000E+000	-5,3638867E-003	41	3,6850619E-005
2	1	0	1	0	1,848886179286870E+005	2,1762547E+000	2,1756632E+000	1,599115770620213E-002	1,000000000000000E+000	-4,9385498E-003	41	3,4791374E-005
2	1	0	1	0	1,849136078325970E+005	2,1962464E+000	2,1956451E+000	1,524216474960935E-002	1,000000000000000E+000	-4,5373430E-003	41	3,3466386E-005
2	1	0	1	0	1,849385977365053E+005	2,2162383E+000	2,2156367E+000	1,454696340710485E-002	1,000000000000000E+000	-4,1531320E-003	41	3,2230786E-005
2	1	0	1	0	1,849635876404173E+005	2,2362301E+000	2,2356238E+000	1,376304205742022E-002	1,000000000000000E+000	-3,7888451E-003	41	3,0768984E-005
2	1	0	1	0	1,849885775443267E+005	2,2562220E+000	2,2556114E+000	1,334486809674880E-002	1,000000000000000E+000	-3,4391230E-003	41	3,0100837E-005
2	1	0	1	0	1,850135673482358E+005	2,2762139E+000	2,2756095E+000	1,302217526487744E-002	1,000000000000000E+000	-3,0980692E-003	41	2,9633386E-005
2	1	0	1	0	1,850385570521476E+005	2,2962055E+000	2,2956178E+000	1,277801641021425E-002	1,000000000000000E+000	-2,7640671E-003	41	2,9333441E-005
2	1	0	1	0	1,850635468560566E+005	2,3161974E+000	2,3156028E+000	1,251912008046643E-002	1,000000000000000E+000	-2,4366349E-003	41	2,8989309E-005
2	1	0	1	0	1,850885367599656E+005	2,3361893E+000	2,3356063E+000	1,227042357077081E-002	1,000000000000000E+000	-2,1150596E-003	41	2,8658878E-005
2	1	0	1	0	1,851135263638776E+005	2,3561811E+000	2,3555992E+000	1,211241505395971E-002	1,000000000000000E+000	-1,7985170E-003	41	2,8531995E-005
2	1	0	1	0	1,851385163677861E+005	2,3761730E+000	2,3755612E+000	1,195783720864611E-002	1,000000000000000E+000	-1,4864606E-003	41	2,8406575E-005
2	1	0	1	0	1,851635061716959E+005	2,3961649E+000	2,3955860E+000	1,180851424404708E-002	1,000000000000000E+000	-1,1780830E-003	41	2,8288312E-005
2	1	0	1	0	1,851884959756075E+005	2,4161568E+000	2,4155321E+000	1,170150807379863E-002	1,000000000000000E+000	-8,7281439E-004	41	2,8265369E-005
2	1	0	1	0	1,852134859795159E+005	2,4361486E+000	2,4355662E+000	1,160912410464804E-002	1,000000000000000E+000	-5,7004718E-004	41	2,8274790E-005
2	1	0	1	0	1,852384757834263E+005	2,4561408E+000	2,4555345E+000	1,154297880959330E-002	1,000000000000000E+000	-2,6950650E-004	41	2,8344182E-005
2	1	0	1	0	1,852634655873373E+005	2,4761324E+000	2,4755421E+000	1,148190717115046E-002	1,000000000000000E+000	2,9518942E-005	41	2,8423945E-005
2	1	0	1	0	1,852884552912456E+005	2,4961243E+000	2,4955404E+000	1,144756068090311E-002	1,000000000000000E+000	3,2750942E-004	41	2,8567851E-005
2	1	0	1	0	1,853134451951562E+005	2,5161161E+000	2,5155270E+000	1,146221998532925E-002	1,000000000000000E+000	6,2520307E-004	41	2,8833523E-005
2	1	0	1	0	1,853384350990662E+005	2,5361080E+000	2,5355189E+000	1,150750595697961E-002	1,000000000000000E+000	9,2318712E-004	41	2,9177500E-005
2	1	0	1	0	1,853634248029748E+005	2,5560999E+000	2,5554969E+000	1,153066462316199E-002	1,000000000000000E+000	1,2221313E-003	41	2,9466579E-005
2	1	0	1	0	1,853884146068860E+005	2,5760915E+000	2,5755045E+000	1,162556950802686E-002	1,000000000000000E+000	1,5228301E-003	41	2,9941708E-005
2	1	0	1	0	1,854134044107961E+005	2,5960834E+000	2,5954797E+000	1,173199604834901E-002	1,000000000000000E+000	1,8259162E-003	41	3,0450157E-005
2	1	0	1	0	1,854383943147045E+005	2,6160750E+000	2,6154766E+000	1,188004206683786E-002	1,000000000000000E+000	2,1320712E-003	41	3,1071973E-005
2	1	0	1	0	1,854633842186164E+005	2,6360672E+000	2,6354997E+000	1,204229485322098E-002	1,000000000000000E+000	2,4421539E-003	41	3,1737465E-005
2	1	0	1	0	1,854883740225259E+005	2,6560588E+000	2,6554980E+000	1,226842645582488E-002	1,000000000000000E+000	2,7569444E-003	41	3,2578781E-005
2	1	0	1	0	1,855133637264343E+005	2,6760507E+000	2,6754780E+000	1,250575265238343E-002	1,000000000000000E+000	3,0773259E-003	41	3,3458866E-005
2	1	0	1	0	1,855383536303467E+005	2,6960423E+000	2,6954496E+000	1,278699358319327E-002	1,000000000000000E+000	3,4042432E-003	41	3,4466695E-005
2	1	0	1	1	1,855614696339624E+005	2,6854470E+000	2,6848545E+000	7,129092889611860E-003	1,000000000000000E+000	3,6205202E-003	41	1,9140578E-005
2	1	0	1	1	1,855864595378716E+005	2,6654551E+000	2,6648302E+000	4,620847844561349E-003	1,000000000000000E+000	3,7532593E-003	42	1,2313775E-005
2	1	0	1	1	1,856114494417836E+005	2,6454635E+000	2,6448565E+000	3,163034740872539E-003	1,000000000000000E+000	3,8395023E-003	42	8,3657733E-006
2	1	0	1	1	1,856364392456918E+005	2,6254716E+000	2,6248784E+000	2,164229592574785E-003	1,000000000000000E+000	3,8958704E-003	42	5,6808394E-006
2	1	0	1	1	1,856614290496022E+005	2,6054795E+000	2,6048927E+000	1,413669573999568E-003	1,000000000000000E+000	3,9305403E-003	42	3,6824576E-006
2	1	0	1	1	1,856864188535132E+005	2,5854878E+000	2,5848927E+000	8,186868078676485E-004	1,000000000000000E+000	3,9483407E-003	42	2,1162175E-006
2	1	0	1	1	1,857114086574216E+005	2,5654957E+000	2,5648940E+000	2,954676852737620E-004	1,000000000000000E+000	3,9522462E-003	42	7,5784328E-007
2	1	0	1	1	1,857363984613325E+005	2,5455041E+000	2,5449290E+000	-1,410759478194393E-004	1,000000000000000E+000	3,9444193E-003	42	-3,5902826E-007
2	0	0	1	1	1,857613882652426E+005	2,5255120E+000	2,5249271E+000	-5,565082778200038E-004	1,000000000000000E+000	3,9261621E-003	42	-1,4051428E-006
2	0	0	1	1	1,857863778691511E+005	2,5055206E+000	2,5049427E+000	-8,871655110631420E-004	1,000000000000000E+000	3,8984769E-003	42	-2,2222987E-006
2	0	0	1	1	1,858113676730623E+005	2,4855287E+000	2,4849324E+000	-1,234643030433864E-003	1,000000000000000E+000	3,8621624E-003	42	-3,0680044E-006
2	0	0	1	1	1,858363574769718E+005	2,4655366E+000	2,4649789E+000	-1,531388614737003E-003	1,000000000000000E+000	3,8178605E-003	42	-3,7748407E-006
2	0	0	1	1	1,858613472808802E+005	2,4455450E+000	2,4449768E+000	-1,830723399067875E-003	1,000000000000000E+000	3,7661451E-003	42	-4,4760764E-006
2	0	0	1	1	1,858863371847919E+005	2,4255528E+000	2,4250183E+000	-2,105152483553602E-003	1,000000000000000E+000	3,7074531E-003	42	-5,1050333E-006
2	0	0	1	1	1,859113270887019E+005	2,4055610E+000	2,4050243E+000	-2,362649375143380E-003	1,000000000000000E+000	3,6422182E-003	42	-5,6822291E-006
2	0	0	1	1	1,859363168926104E+005	2,3855691E+000	2,3850226E+000	-2,598675332517904E-003	1,000000000000000E+000	3,5706586E-003	42	-6,1978994E-006
2	0	0	1	1	1,859613065965222E+005	2,3655770E+000	2,3650346E+000	-2,848708254925197E-003	1,000000000000000E+000	3,4932261E-003	42	-6,7372935E-006
2	0	0	1	1	1,859862962004315E+005	2,3455856E+000	2,3450785E+000	-3,071459986169166E-003	1,000000000000000E+000	3,4100004E-003	42	-7,2028147E-006
2	0	0	1	1	1,860112861043406E+005	2,3255937E+000	2,3250537E+000	-3,309326258976801E-003	1,000000000000000E+000	3,3209475E-003	42	-7,6943616E-006
2	0	0	1	1	1,860362757082526E+005	2,3056018E+000	2,3050618E+000	-3,565816826870780E-003	1,000000000000000E+000	3,2260909E-003	42	-8,2194283E-006
2	0	0	1	1	1,860612656121615E+005	2,2856100E+000	2,2850583E+000	-3,788418216403952E-003	1,000000000000000E+000	3,1253006E-003	42	-8,6567561E-006
2	0	0	1	1	1,860862555160704E+005	2,2656183E+000	2,2651079E+000	-4,010256676274374E-003	1,000000000000000E+000	3,0183711E-003	42	-9,0836638E-006
2	0	0	1	1	1,861112453199825E+005	2,2456264E+000	2,2451069E+000	-4,276970767674533E-003	1,000000000000000E+000	2,9050896E-003	42	-9,6022568E-006
2	0	0	1	1	1,861362351238910E+005	2,2256346E+000	2,2250919E+000	-4,563861932758172E-003	1,000000000000000E+000	2,7852179E-003	42	-1,0155012E-005
2	0	0	1	1	1,861612250278005E+005	2,2056425E+000	2,2051311E+000	-4,834652008634761E-003	1,000000000000000E+000	2,6586084E-003	42	-1,0661041E-005
2	0	0	1	1	1,861862145317127E+005	2,1856508E+000	2,1851268E+000	-5,125491880386792E-003	1,000000000000000E+000	2,5245433E-003	42	-1,1199850E-005
2	0	0	1	1	1,862112043356207E+005	2,1656587E+000	2,1651409E+000	-5,455310858947689E-003	1,000000000000000E+000	2,3829332E-003	42	-1,1811517E-005
2	0	0	1	1	1,862361941395309E+005	2,1456668E+000	2,1451421E+000	-5,776445055664936E-003	1,000000000000000E+000	2,2331863E-003	42	-1,2391295E-005
2	0	0	1	1	1,862611840434421E+005	2,1256750E+000	2,1251349E+000	-6,160077622451446E-003	1,000000000000000E+000	2,0749383E-003	42	-1,3090997E-005
2	0	0	1	1	1,862861737473506E+005	2,1056833E+000	2,1051731E+000	-6,515813948412705E-003	1,000000000000000E+000	1,9077575E-003	42	-1,3716916E-005
2	0	0	1	1	1,863111635512607E+005	2,0856917E+000	2,0851493E+000	-6,906915772242506E-003	1,000000000000000E+000	1,7309822E-003	42	-1,4401950E-005
2	0	0	1	1	1,863361534551713E+005	2,0656998E+000	2,0652020E+000	-7,282958983272275E-003	1,000000000000000E+000	1,5442431E-003	42	-1,5040781E-005
2	0	0	1	1	1,863611433590797E+005	2,0457077E+000	2,0451815E+000	-7,762302894782427E-003	1,000000000000000E+000	1,3467731E-003	42	-1,5875319E-005
2	0	0	1	1	1,863861329629906E+005	2,0257161E+000	2,0252275E+000	-8,245938668112365E-003	1,000000000000000E+000	1,1377106E-003	42	-1,6699902E-005
2	0	0	1	1	1,864111227669010E+005	2,0057242E+000	2,0052402E+000	-8,789060509824920E-003	1,000000000000000E+000	9,1580517E-004	42	-1,7624177E-005
2	0	0	1	1	1,864361125708094E+005	1,9857323E+000	1,9851393E+000	-9,352135541428670E-003	1,000000000000000E+000	6,7905412E-004	41	-1,8565292E-005
2	0	0	1	1	1,864611024747207E+005	1,9657404E+000	1,9651519E+000	-9,990777986847735E-003	1,000000000000000E+000	4,2642350E-004	41	-1,9633397E-005
2	0	0	1	1	1,864860922786306E+005	1,9457486E+000	1,9451592E+000	-1,080092216247085E-002	1,000000000000000E+000	1,5575073E-004	41	-2,1009513E-005
2	0	0	1	1	1,865110820825389E+005	1,9257567E+000	1,9251730E+000	-1,160828605725714E-002	1,000000000000000E+000	-1,3467853E-004	41	-2,2347960E-005
2	0	0	1	1	1,865360717864512E+005	1,9057651E+000	1,9051626E+000	-1,250797657393943E-002	1,000000000000000E+000	-4,4687412E-004	41	-2,3829729E-005
2	0	0	1	1	1,865610616903601E+005	1,8857729E+000	1,8852069E+000	-1,346726684506555E-002	1,000000000000000E+000	-7,8195042E-004	41	-2,5388585E-005
2	0	0	1	1	1,865846769940541E+005	1,8668808E+000	1,8662841E+000	-1,446747768597328E-002	2,000000000000000E+000	-1,1216349E-003	41	-2,7000424E-005
2	0	0	1	1	1,866096666979659E+005	1,8468890E+000	1,8463006E+000	-1,561222641279222E-002	2,000000000000000E+000	-1,5076500E-003	41	-2,8824863E-005
2	0	0	1	1	1,866346567018750E+005	1,8268970E+000	1,8263230E+000	-1,684431484711657E-002	2,000000000000000E+000	-1,9235284E-003	41	-3,0763160E-005
2	0	0	1	1	1,866596465057842E+005	1,8069052E+000	1,8063219E+000	-1,803053127349144E-002	2,000000000000000E+000	-2,3698243E-003	41	-3,2568943E-005
2	0	0	1	1	1,866846362096965E+005	1,7869135E+000	1,7863491E+000	-1,927534252230589E-002	2,000000000000000E+000	-2,8462114E-003	41	-3,4432491E-005
2	0	0	1	1	1,867096261136046E+005	1,7669216E+000	1,7663106E+000	-2,055964420266171E-002	2,000000000000000E+000	-3,3548209E-003	41	-3,6314716E-005
2	0	0	1	1	1,867346159175145E+005	1,7469296E+000	1,7463355E+000	-2,190154127300126E-002	2,000000000000000E+000	-3,8960229E-003	41	-3,8247439E-005
2	0	0	1	1	1,867596057214262E+005	1,7269380E+000	1,7263629E+000	-2,324455408642312E-002	2,000000000000000E+000	-4,4701984E-003	41	-4,0128536E-005
2	0	0	1	1	1,867845954253345E+005	1,7069461E+000	1,7063713E+000	-2,473610650715811E-002	2,000000000000000E+000	-5,0796955E-003	41	-4,2208983E-005
2	0	0	1	1	1,868095852292445E+005	1,6869543E+000	1,6863962E+000	-2,678793087851561E-002	2,000000000000000E+000	-5,7327887E-003	41	-4,5175067E-005
2	0	0	1	1	1,868345751331553E+005	1,6669624E+000	1,6663768E+000	-2,990111063945922E-002	2,000000000000000E+000	-6,4491266E-003	41	-4,9826518E-005
2	0	0	1	1	1,868595650370638E+005	1,6469705E+000	1,6464069E+000	-3,457735980032084E-002	2,000000000000000E+000	-7,2614518E-003	41	-5,6928402E-005
2	0	0	1	1	1,868845547409747E+005	1,6269789E+000	1,6264086E+000	-4,143812406385761E-002	2,000000000000000E+000	-8,2178749E-003	41	-6,7395318E-005
2	0	0	1	1	1,869095445448849E+005	1,6069869E+000	1,6064426E+000	-5,100861825092329E-002	2,000000000000000E+000	-9,3789520E-003	41	-8,1942417E-005
2	0	0	1	1	1,869345344487934E+005	1,5869950E+000	1,5864539E+000	-6,402637947244227E-002	2,000000000000000E+000	-1,0820240E-002	41	-1,0157490E-004
2	0	0	1	1	1,869595242527048E+005	1,5670034E+000	1,5664700E+000	-8,204014618044204E-002	2,000000000000000E+000	-1,2643483E-002	41	-1,2851343E-004
2	0	0	1	1	1,869845140566146E+005	1,5470114E+000	1,5464072E+000	-1,119786660702159E-001	2,000000000000000E+000	-1,5035048E-002	40	-1,7316462E-004
2	0	0	1	1	1,870095037605229E+005	1,5270194E+000	1,5264474E+000	-1,888338014286876E-001	2,000000000000000E+000	-1,8644262E-002	40	-2,8824486E-004
2	0	0	1	1	1,870344935644348E+005	1,5070276E+000	1,5064559E+000	-2,973262389648939E-001	2,000000000000000E+000	-2,4783799E-002	40	-4,4790885E-004
2	0	0	1	1	1,870594835683440E+005	1,4870356E+000	1,4865119E+000	-3,708197150072674E-001	2,000000000000000E+000	-3,3226218E-002	40	-5,5122795E-004
2	0	0	1	1	1,870844732722528E+005	1,4670440E+000	1,4664941E+000	-4,084038265804457E-001	2,000000000000000E+000	-4,3043878E-002	40	-5,9892179E-004
2	0	0	1	1	1,871094629761647E+005	1,4470522E+000	1,4465281E+000	-4,177433717207721E-001	2,000000000000000E+000	-5,3426486E-002	40	-6,0427753E-004
2	0	0	1	1	1,871344527800741E+005	1,4270604E+000	1,4265422E+000	-4,088966568882006E-001	2,000000000000000E+000	-6,3794881E-002	40	-5,8330834E-004
2	0	0	1	1	1,871594427839830E+005	1,4070685E+000	1,4065292E+000	-3,905198201546982E-001	2,000000000000000E+000	-7,3808119E-002	40	-5,4927752E-004
2	0	0	1	1	1,871844324878952E+005	1,3870765E+000	1,3865398E+000	-3,682545535406359E-001	2,000000000000000E+000	-8,3303258E-002	40	-5,1059958E-004
2	0	0	1	1	1,872094222918038E+005	1,3670847E+000	1,3665061E+000	-3,453713642342644E-001	2,000000000000000E+000	-9,2229895E-002	40	-4,7195208E-004
2	0	0	1	1	1,872344119957131E+005	1,3470930E+000	1,3465360E+000	-3,233799074750303E-001	2,000000000000000E+000	-1,0059303E-001	40	-4,3544269E-004
2	0	0	1	1	1,872594018996255E+005	1,3271011E+000	1,3265373E+000	-3,029974287351127E-001	2,000000000000000E+000	-1,0842592E-001	40	-4,0193737E-004
2	0	0	1	1	1,872843918035337E+005	1,3071091E+000	1,3065435E+000	-2,842929648893054E-001	2,000000000000000E+000	-1,1577014E-001	40	-3,7144113E-004
2	0	0	1	1	1,873093815074433E+005	1,2871174E+000	1,2865580E+000	-2,672177808292422E-001	2,000000000000000E+000	-1,2266770E-001	40	-3,4379118E-004
2	0	0	1	1	1,873343712113549E+005	1,2671257E+000	1,2665470E+000	-2,516803624848123E-001	2,000000000000000E+000	-1,2915778E-001	40	-3,1876500E-004
2	0	0	1	1	1,873593612152631E+005	1,2471336E+000	1,2465622E+000	-2,375370680148654E-001	2,000000000000000E+000	-1,3527681E-001	40	-2,9610473E-004
2	0	0	1	1	1,873843510191734E+005	1,2271417E+000	1,2265232E+000	-2,246421313180873E-001	2,000000000000000E+000	-1,4105815E-001	40	-2,7552879E-004
2	0	0	1	1	1,874093408230843E+005	1,2071499E+000	1,2065609E+000	-2,129332703740588E-001	2,000000000000000E+000	-1,4653127E-001	40	-2,5691694E-004
2	0	0	1	1	1,874343305269929E+005	1,1871581E+000	1,1865689E+000	-2,022152496546390E-001	2,000000000000000E+000	-1,5172379E-001	40	-2,3994232E-004
2	0	0	1	1	1,874593203309034E+005	1,1671664E+000	1,1665620E+000	-1,925754672418056E-001	2,000000000000000E+000	-1,5666179E-001	40	-2,2465122E-004
2	0	0	1	1	1,874843102348137E+005	1,1471744E+000	1,1465455E+000	-1,838285391221217E-001	2,000000000000000E+000	-1,6136974E-001	40	-2,1076779E-004
2	0	0	1	1	1,875093000387221E+005	1,1271826E+000	1,1265746E+000	-1,759683055527940E-001	2,000000000000000E+000	-1,6586977E-001	40	-1,9824143E-004
2	0	0	1	1	1,875342897426337E+005	1,1071908E+000	1,1066206E+000	-1,688687040150494E-001	2,000000000000000E+000	-1,7018268E-001	40	-1,8687359E-004
2	0	0	1	1	1,875592796465431E+005	1,0871989E+000	1,0866017E+000	-1,625642809784051E-001	2,000000000000000E+000	-1,7432816E-001	40	-1,7664263E-004
2	0	0	1	1	1,875842694504515E+005	1,0672070E+000	1,0666236E+000	-1,569370276487194E-001	2,000000000000000E+000	-1,7832430E-001	40	-1,6739273E-004
2	0	0	1	1	1,876092592543634E+005	1,0472151E+000	1,0466075E+000	-1,520385285918059E-001	2,000000000000000E+000	-1,8218906E-001	40	-1,5912467E-004
2	0	0	1	1	1,876342490582732E+005	1,0272233E+000	1,0266112E+000	-1,478938108024539E-001	2,000000000000000E+000	-1,8593992E-001	40	-1,5182944E-004
2	0	0	1	1	1,876592387621817E+005	1,0072316E+000	1,0066206E+000	-1,445677424740173E-001	2,000000000000000E+000	-1,8959747E-001	40	-1,4552487E-004
2	0	0	1	1	1,876827300658599E+005	1,0115298E+000	1,0109427E+000	-1,212964418968054E-001	2,000000000000000E+000	-1,9277167E-001	40	-1,2262375E-004
2	0	0	1	1	1,877077198697681E+005	1,0315216E+000	1,0309192E+000	-1,028304824105570E-001	2,000000000000000E+000	-1,9555070E-001	40	-1,0600992E-004
2	0	0	1	1	1,877327096736780E+005	1,0515134E+000	1,0509148E+000	-8,949797620756361E-002	2,000000000000000E+000	-1,9794153E-001	40	-9,4054747E-005
2	0	0	1	1	1,877576994775897E+005	1,0715053E+000	1,0708952E+000	-7,893771238559100E-002	2,000000000000000E+000	-2,0003660E-001	40	-8,4534018E-005
2	0	0	1	1	1,877826893814980E+005	1,0914972E+000	1,0909120E+000	-7,014999671193500E-002	2,000000000000000E+000	-2,0189150E-001	40	-7,6527474E-005
2	0	0	1	1	1,878076790854079E+005	1,1114889E+000	1,1108947E+000	-6,265882648487087E-002	2,000000000000000E+000	-2,0354432E-001	40	-6,9607355E-005
2	0	0	1	1	1,878326688893188E+005	1,1314808E+000	1,1308914E+000	-5,613846466045558E-002	2,000000000000000E+000	-2,0502247E-001	40	-6,3486506E-005
2	0	0	1	1	1,878576587932273E+005	1,1514728E+000	1,1508350E+000	-5,042007878306348E-002	2,000000000000000E+000	-2,0634778E-001	40	-5,8025194E-005
2	0	0	1	1	1,878826485971380E+005	1,1714646E+000	1,1709138E+000	-4,523249473223434E-002	2,000000000000000E+000	-2,0753628E-001	41	-5,2963354E-005
2	0	0	1	1	1,879076384010485E+005	1,1914563E+000	1,1909014E+000	-4,061487588825663E-002	2,000000000000000E+000	-2,0860346E-001	41	-4,8368314E-005
2	0	0	1	1	1,879326281049568E+005	1,2114482E+000	1,2108916E+000	-3,647191590454246E-002	2,000000000000000E+000	-2,0956160E-001	41	-4,4163538E-005
2	0	0	1	1	1,879576181088681E+005	1,2314402E+000	1,2308407E+000	-3,265789780794803E-002	2,000000000000000E+000	-2,1042040E-001	41	-4,0196668E-005
2	0	0	1	1	1,879826079127780E+005	1,2514319E+000	1,2508479E+000	-2,916864331449553E-002	2,000000000000000E+000	-2,1118821E-001	41	-3,6485537E-005
2	0	0	1	1	1,880075978166866E+005	1,2714239E+000	1,2708392E+000	-2,592839535847202E-002	2,000000000000000E+000	-2,1187206E-001	41	-3,2950822E-005
2	0	0	1	1	1,880325875205984E+005	1,2914156E+000	1,2908027E+000	-2,292168650208931E-002	2,000000000000000E+000	-2,1247776E-001	41	-2,9587376E-005
2	0	0	1	1	1,880575773245075E+005	1,3114074E+000	1,3108122E+000	-2,007610273093763E-002	2,000000000000000E+000	-2,1301016E-001	41	-2,6316002E-005
2	0	0	1	1	1,880825671284162E+005	1,3313994E+000	1,3307711E+000	-1,735570388359148E-002	2,000000000000000E+000	-2,1347326E-001	41	-2,3096469E-005
2	0	0	1	1	1,881075570323286E+005	1,3513912E+000	1,3507714E+000	-1,473460795353898E-002	2,000000000000000E+000	-2,1386962E-001	41	-1,9903087E-005
2	0	0	1	1	1,881325468362376E+005	1,3713831E+000	1,3707354E+000	-1,216671484470408E-002	2,000000000000000E+000	-2,1420129E-001	41	-1,6677346E-005
2	0	0	1	1	1,881575365401465E+005	1,3913748E+000	1,3907319E+000	-9,562770875173411E-003	2,000000000000000E+000	-2,1446839E-001	41	-1,3299251E-005
2	0	0	1	1	1,881825265440587E+005	1,4113667E+000	1,4107505E+000	-6,909484314785955E-003	2,000000000000000E+000	-2,1467000E-001	41	-9,7475586E-006
2	0	0	1	1	1,882075163479673E+005	1,4313586E+000	1,4307555E+000	-4,081761583152113E-003	2,000000000000000E+000	-2,1480320E-001	42	-5,8400028E-006
2	0	0	1	1	1,882325061518769E+005	1,4513503E+000	1,4507301E+000	-1,040320746769730E-003	2,000000000000000E+000	-2,1486364E-001	42	-1,5092246E-006
2	1	0	1	1	1,882576209558086E+005	1,4714422E+000	1,4707607E+000	2,340642316173827E-003	2,000000000000000E+000	-2,1484433E-001	42	3,4425248E-006
2	1	0	1	1	1,882826106597168E+005	1,4914339E+000	1,4907463E+000	6,238299490568783E-003	2,000000000000000E+000	-2,1473435E-001	42	9,2997216E-006
2	1	0	1	1	1,883076005636263E+005	1,5114257E+000	1,5107980E+000	1,117555864208925E-002	2,000000000000000E+000	-2,1451551E-001	41	1,6884011E-005
2	1	0	1	1	1,883325903675377E+005	1,5314176E+000	1,5308098E+000	1,800613712324728E-002	2,000000000000000E+000	-2,1415141E-001	41	2,7563970E-005
2	1	0	1	1	1,883575801714461E+005	1,5514095E+000	1,5507299E+000	2,823631965999052E-002	2,000000000000000E+000	-2,1357831E-001	41	4,3786906E-005
2	1	0	1	1	1,883825701753572E+005	1,5714015E+000	1,5707124E+000	4,414961805873985E-002	2,000000000000000E+000	-2,1268234E-001	41	6,9346352E-005
2	1	0	1	1	1,884075598792674E+005	1,5913932E+000	1,5906641E+000	8,404652504746246E-002	2,000000000000000E+000	-2,1118785E-001	41	1,3368980E-004
2	1	0	1	1	1,884325496831757E+005	1,6113850E+000	1,6107371E+000	1,670762752782922E-001	2,000000000000000E+000	-2,0807356E-001	40	2,6911596E-004
2	1	0	1	1	1,884575395870865E+005	1,6313767E+000	1,6307275E+000	2,590067704982888E-001	2,000000000000000E+000	-2,0275986E-001	40	4,2236949E-004
2	1	0	1	1	1,884825293909967E+005	1,6513687E+000	1,6506909E+000	3,641893589252347E-001	2,000000000000000E+000	-1,9500254E-001	40	6,0116407E-004
2	1	0	1	1	1,885075191949049E+005	1,6713606E+000	1,6706419E+000	4,942950142408842E-001	2,000000000000000E+000	-1,8433149E-001	40	8,2578999E-004
2	1	0	1	1	1,885325089988168E+005	1,6913525E+000	1,6906124E+000	6,618159341885872E-001	2,000000000000000E+000	-1,6996107E-001	40	1,1188743E-003
2	1	0	1	1	1,885574990027262E+005	1,7113446E+000	1,7106246E+000	8,686279159183066E-001	2,000000000000000E+000	-1,5089078E-001	40	1,4858963E-003
2	1	0	1	1	1,885824888066347E+005	1,7313360E+000	1,7307532E+000	1,088869970329249E+000	2,000000000000000E+000	-1,2638849E-001	39	1,8845652E-003
2	1	0	1	1	1,886074786105468E+005	1,7513280E+000	1,7506964E+000	1,239673400412578E+000	2,000000000000000E+000	-9,6988715E-002	39	2,1702917E-003
2	1	0	1	1	1,886324684144562E+005	1,7713199E+000	1,7707194E+000	1,147354990864361E+000	2,000000000000000E+000	-6,6442266E-002	39	2,0316436E-003
2	1	0	1	1	1,886574582183650E+005	1,7913114E+000	1,7906780E+000	7,486192994748766E-001	2,000000000000000E+000	-4,2347576E-002	39	1,3405362E-003
2	1	0	1	1	1,886825730222967E+005	1,8114036E+000	1,8107294E+000	3,401430140591239E-001	2,000000000000000E+000	-2,9015003E-002	40	6,1590696E-004
2	1	0	1	1	1,887075628262055E+005	1,8313955E+000	1,8307692E+000	1,547364613355364E-001	2,000000000000000E+000	-2,3274301E-002	40	2,8328673E-004
2	1	0	1	1	1,887325526301148E+005	1,8513871E+000	1,8507545E+000	9,920654478776178E-002	2,000000000000000E+000	-2,0208333E-002	40	1,8360696E-004
2	1	0	1	1	1,887575424340270E+005	1,8713790E+000	1,8707725E+000	7,477101827370292E-002	2,000000000000000E+000	-1,8053805E-002	40	1,3987956E-004
2	1	0	1	1	1,887825322379349E+005	1,8913709E+000	1,8907741E+000	6,069341084584590E-002	2,000000000000000E+000	-1,6364094E-002	40	1,1475753E-004
2	1	0	1	1	1,888075222418448E+005	1,9113628E+000	1,9107597E+000	5,204322725784583E-002	2,000000000000000E+000	-1,4949999E-002	40	9,9442099E-005
2	1	0	1	1	1,888326369457762E+005	1,9314544E+000	1,9307971E+000	4,554364462384004E-002	2,000000000000000E+000	-1,3715323E-002	41	8,7935536E-005
2	1	0	1	1	1,888576266496845E+005	1,9514462E+000	1,9507790E+000	4,043429257463665E-002	2,000000000000000E+000	-1,2632365E-002	41	7,8878365E-005
2	1	0	1	1	1,888826166535947E+005	1,9714383E+000	1,9707702E+000	3,635239545043034E-002	2,000000000000000E+000	-1,1661718E-002	41	7,1642222E-005
2	1	0	1	1	1,889076064575056E+005	1,9914302E+000	1,9908304E+000	3,249831653327140E-002	2,000000000000000E+000	-1,0788584E-002	41	6,4698637E-005
2	1	0	1	1	1,889325961614142E+005	2,0114217E+000	2,0108004E+000	2,877248781242459E-002	2,000000000000000E+000	-1,0013041E-002	41	5,7855730E-005
2	1	0	1	1	1,889575859653247E+005	2,0314138E+000	2,0308027E+000	2,601057555904113E-002	2,000000000000000E+000	-9,3175881E-003	41	5,2822346E-005
2	1	0	1	1	1,889825759692350E+005	2,0514057E+000	2,0507936E+000	2,361299501093492E-002	2,000000000000000E+000	-8,6853504E-003	41	4,8425380E-005
2	1	0	1	1	1,890075657731434E+005	2,0713973E+000	2,0707891E+000	2,140251782446134E-002	2,000000000000000E+000	-8,1126951E-003	41	4,4320099E-005
2	1	0	1	1	1,890325556770549E+005	2,0913892E+000	2,0907636E+000	2,005687714663426E-002	2,000000000000000E+000	-7,5841858E-003	41	4,1934189E-005
2	1	0	1	1	1,890575455809644E+005	2,1113811E+000	2,1107776E+000	1,906869969405015E-002	2,000000000000000E+000	-7,0836712E-003	41	4,0249786E-005
2	1	0	1	1	1,890825353848729E+005	2,1313732E+000	2,1307602E+000	1,815532523535436E-002	2,000000000000000E+000	-6,6066780E-003	41	3,8684644E-005
2	1	0	1	1	1,891075250887848E+005	2,1513648E+000	2,1507475E+000	1,727581238498338E-002	2,000000000000000E+000	-6,1522843E-003	41	3,7155911E-005
2	1	0	1	1	1,891325148926944E+005	2,1713567E+000	2,1707480E+000	1,618899183539876E-002	2,000000000000000E+000	-5,7219509E-003	41	3,5142220E-005
2	1	0	1	1	1,891575047966032E+005	2,1913483E+000	2,1907661E+000	1,532202615611311E-002	2,000000000000000E+000	-5,3176996E-003	41	3,3566976E-005
2	1	0	1	1	1,891824946005153E+005	2,2113404E+000	2,2107460E+000	1,464184627861714E-002	2,000000000000000E+000	-4,9317339E-003	41	3,2369404E-005
2	1	0	1	1	1,892074844044241E+005	2,2313321E+000	2,2307520E+000	1,383996347434036E-002	2,000000000000000E+000	-4,5639114E-003	41	3,0873525E-005
2	1	0	1	1	1,892324742083335E+005	2,2513242E+000	2,2506850E+000	1,332487330283025E-002	2,000000000000000E+000	-4,2135669E-003	41	2,9990093E-005
2	1	0	1	1	1,892574640122456E+005	2,2713158E+000	2,2707100E+000	1,301142210413342E-002	2,000000000000000E+000	-3,8729971E-003	41	2,9545166E-005
2	1	0	1	1	1,892824540161536E+005	2,2913077E+000	2,2906785E+000	1,273271322545641E-002	2,000000000000000E+000	-3,5401713E-003	41	2,9166553E-005
2	1	0	1	1	1,893074438200635E+005	2,3112996E+000	2,3106952E+000	1,247189034332011E-002	2,000000000000000E+000	-3,2138426E-003	41	2,8818737E-005
2	1	0	1	1	1,893324336239751E+005	2,3312914E+000	2,3306699E+000	1,226196339325612E-002	2,000000000000000E+000	-2,8934337E-003	41	2,8578588E-005
2	1	0	1	1	1,893574233278836E+005	2,3512831E+000	2,3506899E+000	1,205037380915905E-002	2,000000000000000E+000	-2,5782511E-003	41	2,8326693E-005
2	1	0	1	1	1,893824132317938E+005	2,3712749E+000	2,3706727E+000	1,186363946917602E-002	2,000000000000000E+000	-2,2676727E-003	41	2,8124807E-005
2	1	0	1	1	1,894074031357048E+005	2,3912668E+000	2,3906717E+000	1,174841395733151E-002	2,000000000000000E+000	-1,9609828E-003	41	2,8086601E-005
2	1	0	1	1	1,894323928396131E+005	2,4112587E+000	2,4106641E+000	1,164894938267418E-002	2,000000000000000E+000	-1,6573833E-003	41	2,8081704E-005
2	1	0	1	1	1,894573826435246E+005	2,4312506E+000	2,4306688E+000	1,153674945753361E-002	2,000000000000000E+000	-1,3564945E-003	41	2,8042017E-005
2	1	0	1	1	1,894823724474343E+005	2,4512424E+000	2,4506557E+000	1,146359089783053E-002	2,000000000000000E+000	-1,0578649E-003	41	2,8093315E-005
2	1	0	1	1	1,895073623513426E+005	2,4712341E+000	2,4706242E+000	1,138979792701791E-002	2,000000000000000E+000	-7,6098647E-004	41	2,8139910E-005
2	1	0	1	1	1,895323522552541E+005	2,4912262E+000	2,4906151E+000	1,135498113705791E-002	2,000000000000000E+000	-4,6544216E-004	41	2,8280887E-005
2	1	0	1	1	1,895573420591635E+005	2,5112181E+000	2,5106504E+000	1,136165557320323E-002	2,000000000000000E+000	-1,7042672E-004	41	2,8525144E-005
2	1	0	1	1	1,895823318630718E+005	2,5312097E+000	2,5306001E+000	1,138237571417251E-002	2,000000000000000E+000	1,2462327E-004	41	2,8804241E-005
2	1	0	1	1	1,896073216669839E+005	2,5512016E+000	2,5506289E+000	1,141547890544785E-002	2,000000000000000E+000	4,2048859E-004	41	2,9116651E-005
2	1	0	1	1	1,896323114708936E+005	2,5711932E+000	2,5706220E+000	1,148250869224927E-002	2,000000000000000E+000	7,1759539E-004	41	2,9517189E-005
2	1	0	1	1	1,896573013748019E+005	2,5911853E+000	2,5906136E+000	1,157697726639054E-002	2,000000000000000E+000	1,0168096E-003	41	2,9991475E-005
2	1	0	1	1	1,896822910787142E+005	2,6111772E+000	2,6105952E+000	1,170389059948287E-002	2,000000000000000E+000	1,3188125E-003	41	3,0554122E-005
2	1	0	1	1	1,897072808826232E+005	2,6311691E+000	2,6305797E+000	1,189030110287673E-002	2,000000000000000E+000	1,6244382E-003	41	3,1278385E-005
2	1	0	1	1	1,897322707865322E+005	2,6511610E+000	2,6505828E+000	1,206266350213420E-002	2,000000000000000E+000	1,9345232E-003	41	3,1973090E-005
2	1	0	1	1	1,897572606904446E+005	2,6711528E+000	2,6705809E+000	1,228033039243137E-002	2,000000000000000E+000	2,2499715E-003	41	3,2795615E-005
2	1	0	1	1	1,897822504943527E+005	2,6911447E+000	2,6905453E+000	1,257450816416711E-002	2,000000000000000E+000	2,5715460E-003	41	3,3832282E-005
2	1	0	1	0	1,898052413979499E+005	2,6904447E+000	2,6898742E+000	7,929932532195386E-003	2,000000000000000E+000	2,8210871E-003	41	2,1330521E-005
2	1	0	1	0	1,898302313018611E+005	2,6704531E+000	2,6698251E+000	5,017564231513276E-003	2,000000000000000E+000	2,9681374E-003	42	1,3396018E-005
2	1	0	1	0	1,898552211057697E+005	2,6504612E+000	2,6498270E+000	3,422491311706688E-003	2,000000000000000E+000	3,0622901E-003	42	9,0690100E-006
2	1	0	1	0	1,898802109096795E+005	2,6304696E+000	2,6298788E+000	2,348577385569702E-003	2,000000000000000E+000	3,1239281E-003	42	6,1764736E-006
2	1	0	1	0	1,899052007135907E+005	2,6104774E+000	2,6098661E+000	1,541016322805802E-003	2,000000000000000E+000	3,1624830E-003	42	4,0218465E-006
2	1	0	1	0	1,899301906174989E+005	2,5904856E+000	2,5898850E+000	9,222017660395418E-004	2,000000000000000E+000	3,1833441E-003	42	2,3883965E-006
2	1	0	1	0	1,899551803214103E+005	2,5704939E+000	2,5699015E+000	3,919748895859221E-004	2,000000000000000E+000	3,1899924E-003	42	1,0073369E-006
2	1	0	1	0	1,899801701253202E+005	2,5505018E+000	2,5499270E+000	-5,833460688932997E-005	2,000000000000000E+000	3,1845844E-003	42	-1,4874900E-007
2	0	0	1	0	1,900051600292285E+005	2,5305099E+000	2,5299027E+000	-4,532439681885284E-004	2,000000000000000E+000	3,1684465E-003	42	-1,1466632E-006
2	0	0	1	0	1,900301495331405E+005	2,5105183E+000	2,5099530E+000	-8,262612352383457E-004	2,000000000000000E+000	3,1429690E-003	42	-2,0738769E-006
2	0	0	1	0	1,900551393370497E+005	2,4905264E+000	2,4899521E+000	-1,164965719625571E-003	2,000000000000000E+000	3,1086183E-003	42	-2,9007088E-006
2	0	0	1	0	1,900801291409582E+005	2,4705348E+000	2,4699850E+000	-1,478371707048967E-003	2,000000000000000E+000	3,0662720E-003	42	-3,6515560E-006
2	0	0	1	0	1,901051190448701E+005	2,4505429E+000	2,4499629E+000	-1,753343916067619E-003	2,000000000000000E+000	3,0164190E-003	42	-4,2956276E-006
2	0	0	1	0	1,901301089487797E+005	2,4305511E+000	2,4300141E+000	-2,018864304622007E-003	2,000000000000000E+000	2,9595441E-003	42	-4,9058690E-006
2	0	0	1	0	1,901550987526886E+005	2,4105592E+000	2,4099882E+000	-2,268837831819435E-003	2,000000000000000E+000	2,8961161E-003	42	-5,4678721E-006
2	0	0	1	0	1,901800885566007E+005	2,3905671E+000	2,3900120E+000	-2,529470645409503E-003	2,000000000000000E+000	2,8264381E-003	42	-6,0454654E-006
2	0	0	1	0	1,902050783605094E+005	2,3705752E+000	2,3699968E+000	-2,760113588989567E-003	2,000000000000000E+000	2,7508156E-003	42	-6,5414602E-006
2	0	0	1	0	1,902300679644188E+005	2,3505836E+000	2,3500221E+000	-2,991171186218437E-003	2,000000000000000E+000	2,6694140E-003	42	-7,0293181E-006
2	0	0	1	0	1,902550577683309E+005	2,3305914E+000	2,3300297E+000	-3,228307988834812E-003	2,000000000000000E+000	2,5822769E-003	42	-7,5220537E-006
2	0	0	1	0	1,902800474722388E+005	2,3106000E+000	2,3100758E+000	-3,438499320811646E-003	2,000000000000000E+000	2,4895689E-003	42	-7,9431939E-006
2	0	0	1	0	1,903050373761486E+005	2,2906079E+000	2,2900512E+000	-3,708863455415247E-003	2,000000000000000E+000	2,3909276E-003	42	-8,4934873E-006
2	0	0	1	0	1,903300271800603E+005	2,2706163E+000	2,2700849E+000	-3,937851163984746E-003	2,000000000000000E+000	2,2863057E-003	42	-8,9392561E-006
2	0	0	1	0	1,903550169839689E+005	2,2506244E+000	2,2500727E+000	-4,215769554708891E-003	2,000000000000000E+000	2,1754066E-003	42	-9,4857878E-006
2	0	0	1	0	1,903800068878788E+005	2,2306323E+000	2,2301106E+000	-4,456794400853427E-003	2,000000000000000E+000	2,0582306E-003	42	-9,9391445E-006
2	0	0	1	0	1,904049967917902E+005	2,2106407E+000	2,2101190E+000	-4,729225281424542E-003	2,000000000000000E+000	1,9342790E-003	42	-1,0452150E-005
2	0	0	1	0	1,904299863956985E+005	2,1906486E+000	2,1901357E+000	-5,029523880995118E-003	2,000000000000000E+000	1,8030448E-003	42	-1,1015340E-005
2	0	0	1	0	1,904549759996091E+005	2,1706567E+000	2,1701596E+000	-5,304819705895095E-003	2,000000000000000E+000	1,6645188E-003	42	-1,1512306E-005
2	0	0	1	0	1,904799659035197E+005	2,1506648E+000	2,1501765E+000	-5,665077384751934E-003	2,000000000000000E+000	1,5180444E-003	42	-1,2180916E-005
2	0	0	1	0	1,905049558074281E+005	2,1306732E+000	2,1301687E+000	-5,994645527453012E-003	2,000000000000000E+000	1,3632788E-003	42	-1,2769606E-005
2	0	0	1	0	1,905299454113389E+005	2,1106813E+000	2,1102066E+000	-6,348459662089870E-003	2,000000000000000E+000	1,1998306E-003	42	-1,3396561E-005
2	0	0	1	0	1,905549353152488E+005	2,0906894E+000	2,0902035E+000	-6,739726953735703E-003	2,000000000000000E+000	1,0270420E-003	42	-1,4087401E-005
2	0	0	1	0	1,905799252191572E+005	2,0706975E+000	2,0702224E+000	-7,145823038208002E-003	2,000000000000000E+000	8,4436138E-004	42	-1,4793442E-005
2	0	0	1	0	1,906049150230689E+005	2,0507059E+000	2,0502257E+000	-7,571437745913540E-003	2,000000000000000E+000	6,5128907E-004	42	-1,5523157E-005
2	0	0	1	0	1,906299046269788E+005	2,0307140E+000	2,0302410E+000	-8,059121018011511E-003	2,000000000000000E+000	4,4686958E-004	42	-1,6361959E-005
2	0	0	1	0	1,906548944308870E+005	2,0107222E+000	2,0102553E+000	-8,578728093769861E-003	2,000000000000000E+000	2,3012058E-004	42	-1,7245435E-005
2	0	0	1	0	1,906798843347989E+005	1,9907303E+000	1,9901711E+000	-9,114280254306932E-003	2,000000000000000E+000	-8,1336680E-007	41	-1,8138977E-005
2	0	0	1	0	1,907048741387085E+005	1,9707384E+000	1,9701508E+000	-9,773122931272929E-003	2,000000000000000E+000	-2,4720514E-004	41	-1,9254527E-005
2	0	0	1	0	1,907298639426171E+005	1,9507465E+000	1,9501789E+000	-1,047644869878074E-002	2,000000000000000E+000	-5,1082898E-004	41	-2,0430949E-005
2	0	0	1	0	1,907548537465292E+005	1,9307549E+000	1,9301456E+000	-1,130023870592775E-002	2,000000000000000E+000	-7,9379953E-004	41	-2,1811105E-005
2	0	0	1	0	1,907798436504379E+005	1,9107628E+000	1,9101945E+000	-1,218772601610629E-002	2,000000000000000E+000	-1,0978101E-003	41	-2,3280927E-005
2	0	0	1	0	1,908048334543472E+005	1,8907713E+000	1,8901913E+000	-1,312833709632230E-002	2,000000000000000E+000	-1,4243770E-003	41	-2,4815068E-005
2	0	0	1	0	1,908163680561529E+005	1,8815254E+000	1,8809355E+000	-1,370096054137215E-002	2,000000000000000E+000	-1,5832066E-003	41	-2,5770623E-005