File: Dati/201027/CV_LTO-C_Al_slurrymia_01_1mVs_05_CV_C03.mpt
EC-Lab ASCII FILE
Nb header lines : 63

Cyclic Voltammetry

Run on channel : 3 (SN 6807)
User :
Electrode connection : standard
Ewe ctrl range : min = 0,00 V, max = 5,00 V
Ewe,I filtering : 50 kHz
Safety Limits :
	Do not start on E overload
Channel : Grounded
Acquisition started on : 10/27/2020 18:19:16
Saved on :
	File : CV_LTO-C_Al_slurrymia_01_1mVs_05_CV_C03.mpr
	Directory : C:\Users\labsuperfici\Desktop\Biologic\Users\Prisca Viviani\201027\
	Host : 10.78.33.0
Device : VSP-300 (SN 0638)
Address : USB
EC-Lab for windows v11.31 (software)
Internet server v11.30 (firmware)
Command interpretor v11.31 (firmware)
Electrode material :
Initial state :
Electrolyte :
Comments :
Cable : standard
Reference electrode : SCE Saturated Calomel Electrode (0,241 V)
Electrode surface area : 0,001 cm²
Characteristic mass : 0,001 g
Equivalent Weight : 0,000 g/eq.
Density : 0,000 g/cm3
Cycle Definition : Charge/Discharge alternance
Ei (V)              0,000
vs.                 Eoc
dE/dt               0,500
dE/dt unit          mV/s
E1 (V)              1,000
vs.                 Ref
Step percent        50
N                   10
E range min (V)     0,000
E range max (V)     5,000
I Range             Auto
I Range min         Unset
I Range max         Unset
I Range init        Unset
Bandwidth           8
E2 (V)              3,000
vs.                 Ref
nc cycles           2
Reverse Scan        1
Ef (V)              0,000
vs.                 Eoc

Modify on : 10/28/2020 10:35
nc cycles           1

Modify on : 10/28/2020 10:37
E2 (V)              2,700

mode	ox/red	error	control changes	counter inc.	time/s	control/V	Ewe/V	<I>/mA	cycle number	(Q-Qo)/C	I Range	P/W
2	0	0	1	0	1,476679299050733E+005	1,8815254E+000	1,8810043E+000	-8,134127594530582E-003	1,000000000000000E+000	0,0000000E+000	41	-1,5300329E-005
2	0	0	1	0	1,477070140111882E+005	1,8619827E+000	1,8614476E+000	-8,940844420288613E-003	1,000000000000000E+000	-3,3592252E-004	41	-1,6642913E-005
2	0	0	1	0	1,477469977174441E+005	1,8419906E+000	1,8414524E+000	-1,008029237174965E-002	1,000000000000000E+000	-7,2485325E-004	41	-1,8562378E-005
2	0	0	1	0	1,477869814236995E+005	1,8219991E+000	1,8214669E+000	-1,118771870592175E-002	1,000000000000000E+000	-1,1592348E-003	41	-2,0378060E-005
2	0	0	1	0	1,478269650299554E+005	1,8020073E+000	1,8014970E+000	-1,226989408608481E-002	1,000000000000000E+000	-1,6380351E-003	41	-2,2104177E-005
2	0	0	1	0	1,478669487362118E+005	1,7820153E+000	1,7814703E+000	-1,330815964191340E-002	1,000000000000000E+000	-2,1586854E-003	41	-2,3708091E-005
2	0	0	1	0	1,479069324424672E+005	1,7620236E+000	1,7615175E+000	-1,432187981500219E-002	1,000000000000000E+000	-2,7202202E-003	41	-2,5228243E-005
2	0	0	1	0	1,479469161487236E+005	1,7420316E+000	1,7414967E+000	-1,531098795259039E-002	1,000000000000000E+000	-3,3217603E-003	41	-2,6664035E-005
2	0	0	1	0	1,479868997549801E+005	1,7220398E+000	1,7215329E+000	-1,613789094853599E-002	1,000000000000000E+000	-3,9605368E-003	41	-2,7781911E-005
2	0	0	1	0	1,480268834612365E+005	1,7020479E+000	1,7015433E+000	-1,703149498141945E-002	1,000000000000000E+000	-4,6327570E-003	41	-2,8979826E-005
2	0	0	1	0	1,480668672674918E+005	1,6820563E+000	1,6815432E+000	-1,820086007696653E-002	1,000000000000000E+000	-5,3455434E-003	41	-3,0605534E-005
2	0	0	1	0	1,481068509737477E+005	1,6620642E+000	1,6615263E+000	-1,999037274032434E-002	1,000000000000000E+000	-6,1164373E-003	41	-3,3214532E-005
2	0	0	1	0	1,481468346800040E+005	1,6420726E+000	1,6415519E+000	-2,283170191213790E-002	1,000000000000000E+000	-6,9779442E-003	41	-3,7479422E-005
2	0	0	1	0	1,481868183862604E+005	1,6220806E+000	1,6215490E+000	-2,717672442178704E-002	1,000000000000000E+000	-7,9818927E-003	41	-4,4068391E-005
2	0	0	1	0	1,482268020925159E+005	1,6020889E+000	1,6015494E+000	-3,343586672056970E-002	1,000000000000000E+000	-9,1971876E-003	41	-5,3549193E-005
2	0	0	1	0	1,482667856987724E+005	1,5820971E+000	1,5815953E+000	-4,212741494616523E-002	1,000000000000000E+000	-1,0708801E-002	41	-6,6628520E-005
2	0	0	1	0	1,483067694050279E+005	1,5621049E+000	1,5615951E+000	-5,456707985350451E-002	1,000000000000000E+000	-1,2636181E-002	41	-8,5211686E-005
2	0	0	1	0	1,483467531112842E+005	1,5421133E+000	1,5416434E+000	-7,710392216947670E-002	1,000000000000000E+000	-1,5216500E-002	41	-1,1886675E-004
2	0	0	1	0	1,483867368175406E+005	1,5221212E+000	1,5216011E+000	-1,356490288131793E-001	1,000000000000000E+000	-1,9348823E-002	40	-2,0640371E-004
2	0	0	1	0	1,484267204237962E+005	1,5021297E+000	1,5016053E+000	-2,013043548772289E-001	1,000000000000000E+000	-2,6155068E-002	40	-3,0227969E-004
2	0	0	1	0	1,484667041300517E+005	1,4821379E+000	1,4816288E+000	-2,474839121888073E-001	1,000000000000000E+000	-3,5212517E-002	40	-3,6667928E-004
2	0	0	1	0	1,485066878363073E+005	1,4621457E+000	1,4615912E+000	-2,744524720779631E-001	1,000000000000000E+000	-4,5718215E-002	40	-4,0113734E-004
2	0	0	1	0	1,485466715425628E+005	1,4421540E+000	1,4416418E+000	-2,841678988079446E-001	1,000000000000000E+000	-5,6946415E-002	40	-4,0966831E-004
2	0	0	1	0	1,485866552488185E+005	1,4221622E+000	1,4216467E+000	-2,806154038734245E-001	1,000000000000000E+000	-6,8289250E-002	40	-3,9893595E-004
2	0	0	1	0	1,486266389550741E+005	1,4021703E+000	1,4016427E+000	-2,697608489602654E-001	1,000000000000000E+000	-7,9313517E-002	40	-3,7810832E-004
2	0	0	1	0	1,486666226613300E+005	1,3821785E+000	1,3816427E+000	-2,571185747110407E-001	1,000000000000000E+000	-8,9858629E-002	40	-3,5524601E-004
2	0	0	1	0	1,487066063675857E+005	1,3621868E+000	1,3616612E+000	-2,447324473689267E-001	1,000000000000000E+000	-9,9899918E-002	40	-3,3324267E-004
2	0	0	1	0	1,487465899738416E+005	1,3421949E+000	1,3416317E+000	-2,323615424517520E-001	1,000000000000000E+000	-1,0944404E-001	40	-3,1174361E-004
2	0	0	1	0	1,487865736800977E+005	1,3222029E+000	1,3216165E+000	-2,204553622938388E-001	1,000000000000000E+000	-1,1850671E-001	40	-2,9135746E-004
2	0	0	1	0	1,488265573863536E+005	1,3022110E+000	1,3016768E+000	-2,088258355168899E-001	1,000000000000000E+000	-1,2709773E-001	40	-2,7182372E-004
2	0	0	1	0	1,488665410926095E+005	1,2822192E+000	1,2816468E+000	-1,975868511957384E-001	1,000000000000000E+000	-1,3523062E-001	40	-2,5323656E-004
2	0	0	1	0	1,489065247988659E+005	1,2622275E+000	1,2616920E+000	-1,865293435260891E-001	1,000000000000000E+000	-1,4291702E-001	40	-2,3534260E-004
2	0	0	1	0	1,489465084051224E+005	1,2422357E+000	1,2417011E+000	-1,759465978168318E-001	1,000000000000000E+000	-1,5017204E-001	40	-2,1847308E-004
2	0	0	1	0	1,489864920113776E+005	1,2222438E+000	1,2216840E+000	-1,655711471649810E-001	1,000000000000000E+000	-1,5700498E-001	40	-2,0227562E-004
2	0	0	1	0	1,490264758176338E+005	1,2022520E+000	1,2016712E+000	-1,558627256827387E-001	1,000000000000000E+000	-1,6343662E-001	40	-1,8729575E-004
2	0	0	1	0	1,490664595238902E+005	1,1822600E+000	1,1817094E+000	-1,466710666137567E-001	1,000000000000000E+000	-1,6948909E-001	40	-1,7332258E-004
2	0	0	1	0	1,491064432301465E+005	1,1622682E+000	1,1616995E+000	-1,380385314805983E-001	1,000000000000000E+000	-1,7518516E-001	40	-1,6035930E-004
2	0	0	1	0	1,491464268364022E+005	1,1422764E+000	1,1417022E+000	-1,299208983793908E-001	1,000000000000000E+000	-1,8054678E-001	40	-1,4833098E-004
2	0	0	1	0	1,491864104426587E+005	1,1222845E+000	1,1217055E+000	-1,218810637272589E-001	1,000000000000000E+000	-1,8558425E-001	40	-1,3671466E-004
2	0	0	1	0	1,492263942489140E+005	1,1022928E+000	1,1017207E+000	-1,141399975291064E-001	1,000000000000000E+000	-1,9030645E-001	40	-1,2575039E-004
2	0	0	1	0	1,492663780551702E+005	1,0823008E+000	1,0817095E+000	-1,069707852895387E-001	1,000000000000000E+000	-1,9472905E-001	40	-1,1571131E-004
2	0	0	1	0	1,493063615614260E+005	1,0623090E+000	1,0617149E+000	-1,004135523301231E-001	1,000000000000000E+000	-1,9887760E-001	40	-1,0661056E-004
2	0	0	1	0	1,493463452676823E+005	1,0423172E+000	1,0417278E+000	-9,441063465103811E-002	1,000000000000000E+000	-2,0277266E-001	40	-9,8350181E-005
2	0	0	1	0	1,493863288739375E+005	1,0223254E+000	1,0217155E+000	-8,941745838465825E-002	1,000000000000000E+000	-2,0644890E-001	40	-9,1359208E-005
2	0	0	1	0	1,494263126801932E+005	1,0023335E+000	1,0017413E+000	-8,540802667198255E-002	1,000000000000000E+000	-2,0994407E-001	40	-8,5556749E-005
2	0	0	1	0	1,494640979861058E+005	1,0165277E+000	1,0159138E+000	-6,421368652510623E-002	1,000000000000000E+000	-2,1273263E-001	40	-6,5235574E-005
2	0	0	1	0	1,495040816923622E+005	1,0365194E+000	1,0359277E+000	-5,102677495218244E-002	1,000000000000000E+000	-2,1501620E-001	40	-5,2860047E-005
2	0	0	1	0	1,495440654986184E+005	1,0565114E+000	1,0559698E+000	-4,109789816387971E-002	1,000000000000000E+000	-2,1684402E-001	41	-4,3398140E-005
2	0	0	1	0	1,495840491048740E+005	1,0765033E+000	1,0759536E+000	-3,344951236141239E-002	1,000000000000000E+000	-2,1832356E-001	41	-3,5990124E-005
2	0	0	1	0	1,496240328111295E+005	1,0964950E+000	1,0959305E+000	-2,734730978810748E-002	1,000000000000000E+000	-2,1952958E-001	41	-2,9970750E-005
2	0	0	1	0	1,496640165173851E+005	1,1164869E+000	1,1159210E+000	-2,239327012900605E-002	1,000000000000000E+000	-2,2051598E-001	41	-2,4989120E-005
2	0	0	1	0	1,497040003236409E+005	1,1364788E+000	1,1358836E+000	-1,836013442816864E-002	1,000000000000000E+000	-2,2132343E-001	41	-2,0854975E-005
2	0	0	1	0	1,497439840298963E+005	1,1564705E+000	1,1558987E+000	-1,497648794230516E-002	1,000000000000000E+000	-2,2198324E-001	41	-1,7311302E-005
2	0	0	1	0	1,497839676361519E+005	1,1764623E+000	1,1758648E+000	-1,217643050239903E-002	1,000000000000000E+000	-2,2252032E-001	41	-1,4317836E-005
2	0	0	1	0	1,498239514424079E+005	1,1964542E+000	1,1958507E+000	-9,809692103367296E-003	1,000000000000000E+000	-2,2295405E-001	41	-1,1730927E-005
2	0	0	1	0	1,498639351486636E+005	1,2164460E+000	1,2158326E+000	-7,758486763906877E-003	1,000000000000000E+000	-2,2329953E-001	41	-9,4330208E-006
2	0	0	1	0	1,499039189549191E+005	1,2364379E+000	1,2358172E+000	-5,990602104046396E-003	1,000000000000000E+000	-2,2356923E-001	41	-7,4032891E-006
2	0	0	1	0	1,499439027611755E+005	1,2564298E+000	1,2558322E+000	-4,444513301735328E-003	1,000000000000000E+000	-2,2377245E-001	42	-5,5815631E-006
2	0	0	1	0	1,499838863674314E+005	1,2764215E+000	1,2758337E+000	-3,084398182167616E-003	1,000000000000000E+000	-2,2391778E-001	42	-3,9351794E-006
2	0	0	1	0	1,500238701736876E+005	1,2964134E+000	1,2958122E+000	-1,856289470244681E-003	1,000000000000000E+000	-2,2401176E-001	42	-2,4054027E-006
2	0	0	1	0	1,500638538799430E+005	1,3164052E+000	1,3157892E+000	-7,276920353990316E-004	1,000000000000000E+000	-2,2405882E-001	42	-9,5748931E-007
2	1	0	1	0	1,501040373862311E+005	1,3364969E+000	1,3358575E+000	3,621191172982208E-004	1,000000000000000E+000	-2,2406226E-001	43	4,8373954E-007
2	1	0	1	0	1,501440211924883E+005	1,3564889E+000	1,3558608E+000	1,371796602994723E-003	1,000000000000000E+000	-2,2402364E-001	42	1,8599653E-006
2	1	0	1	0	1,501840049987445E+005	1,3764808E+000	1,3758554E+000	2,435936123396933E-003	1,000000000000000E+000	-2,2394334E-001	42	3,3514959E-006
2	1	0	1	0	1,502239888049997E+005	1,3964727E+000	1,3958188E+000	3,544346833911624E-003	1,000000000000000E+000	-2,2381985E-001	42	4,9472660E-006
2	1	0	1	0	1,502639725112561E+005	1,4164644E+000	1,4158133E+000	4,743511243390577E-003	1,000000000000000E+000	-2,2365008E-001	42	6,7159262E-006
2	1	0	1	0	1,503039561175117E+005	1,4364563E+000	1,4357861E+000	6,097882261987583E-003	1,000000000000000E+000	-2,2342969E-001	42	8,7552544E-006
2	1	0	1	0	1,503439398237681E+005	1,4564482E+000	1,4557860E+000	7,660220122236383E-003	1,000000000000000E+000	-2,2315142E-001	42	1,1151641E-005
2	1	0	1	0	1,503839236300234E+005	1,4764401E+000	1,4758046E+000	9,485341156642124E-003	1,000000000000000E+000	-2,2280556E-001	42	1,3998510E-005
2	1	0	1	0	1,504239074362796E+005	1,4964318E+000	1,4958278E+000	1,168742221412906E-002	1,000000000000000E+000	-2,2237971E-001	41	1,7482371E-005
2	1	0	1	0	1,504638911425348E+005	1,5164236E+000	1,5158467E+000	1,467621743230943E-002	1,000000000000000E+000	-2,2185254E-001	41	2,2246897E-005
2	1	0	1	0	1,505038748487902E+005	1,5364156E+000	1,5358379E+000	1,917001331435064E-002	1,000000000000000E+000	-2,2117889E-001	41	2,9442033E-005
2	1	0	1	0	1,505438585550459E+005	1,5564075E+000	1,5557965E+000	2,634686267502775E-002	1,000000000000000E+000	-2,2027622E-001	41	4,0990355E-005
2	1	0	1	0	1,505838422613021E+005	1,5763993E+000	1,5757776E+000	3,735330528416059E-002	1,000000000000000E+000	-2,1901494E-001	41	5,8860503E-005
2	1	0	1	0	1,506238261675576E+005	1,5963911E+000	1,5957527E+000	6,757531953689755E-002	1,000000000000000E+000	-2,1702951E-001	41	1,0783350E-004
2	1	0	1	0	1,506638097738132E+005	1,6163830E+000	1,6158229E+000	1,173755471367237E-001	1,000000000000000E+000	-2,1334094E-001	40	1,8965809E-004
2	1	0	1	0	1,507037934800689E+005	1,6363747E+000	1,6358114E+000	1,712319331685048E-001	1,000000000000000E+000	-2,0758303E-001	40	2,8010315E-004
2	1	0	1	0	1,507437772863256E+005	1,6563667E+000	1,6557852E+000	2,348229470160004E-001	1,000000000000000E+000	-1,9950463E-001	40	3,8881635E-004
2	1	0	1	0	1,507837609925810E+005	1,6763585E+000	1,6757747E+000	3,190849686627841E-001	1,000000000000000E+000	-1,8851717E-001	40	5,3471449E-004
2	1	0	1	0	1,508237448988371E+005	1,6963502E+000	1,6957341E+000	4,359857448170689E-001	1,000000000000000E+000	-1,7352398E-001	40	7,3931593E-004
2	1	0	1	0	1,508637286050930E+005	1,7163422E+000	1,7156984E+000	5,846759930419978E-001	1,000000000000000E+000	-1,5318693E-001	40	1,0031277E-003
2	1	0	1	0	1,509037123113493E+005	1,7363341E+000	1,7357153E+000	7,392370488259967E-001	1,000000000000000E+000	-1,2662573E-001	40	1,2831050E-003
2	1	0	1	0	1,509436959176059E+005	1,7563260E+000	1,7557137E+000	8,131573015090225E-001	1,000000000000000E+000	-9,5074937E-002	40	1,4276714E-003
2	1	0	1	0	1,509836797238621E+005	1,7763177E+000	1,7756941E+000	6,921667352953937E-001	1,000000000000000E+000	-6,4288087E-002	40	1,2290764E-003
2	1	0	1	0	1,510236636301167E+005	1,7963095E+000	1,7957565E+000	4,451052353937675E-001	1,000000000000000E+000	-4,1430861E-002	40	7,9930061E-004
2	1	0	1	0	1,510636472363733E+005	1,8163013E+000	1,8157423E+000	2,216925904065029E-001	1,000000000000000E+000	-2,8338410E-002	40	4,0253659E-004
2	1	0	1	0	1,511036310426295E+005	1,8362933E+000	1,8357562E+000	9,540256522314938E-002	1,000000000000000E+000	-2,2369845E-002	40	1,7513585E-004
2	1	0	1	0	1,511436146488860E+005	1,8562851E+000	1,8557438E+000	5,594461783397439E-002	1,000000000000000E+000	-1,9487826E-002	40	1,0381888E-004
2	1	0	1	0	1,511835983551424E+005	1,8762770E+000	1,8757035E+000	4,149229247296171E-002	1,000000000000000E+000	-1,7564768E-002	41	7,7827237E-005
2	1	0	1	0	1,512235823613983E+005	1,8962688E+000	1,8957031E+000	3,383911426518335E-002	1,000000000000000E+000	-1,6058272E-002	41	6,4148910E-005
2	1	0	1	0	1,512635659676548E+005	1,9162606E+000	1,9157078E+000	2,842838987181245E-002	1,000000000000000E+000	-1,4804389E-002	41	5,4460488E-005
2	1	0	1	0	1,513035495739104E+005	1,9362524E+000	1,9356903E+000	2,411988977270185E-002	1,000000000000000E+000	-1,3746246E-002	41	4,6688638E-005
2	1	0	1	0	1,513435333801666E+005	1,9562445E+000	1,9556930E+000	2,110143659180819E-002	1,000000000000000E+000	-1,2832482E-002	41	4,1267933E-005
2	1	0	1	0	1,513835170864211E+005	1,9762362E+000	1,9756873E+000	1,854534583539613E-002	1,000000000000000E+000	-1,2027874E-002	41	3,6639805E-005
2	1	0	1	0	1,514235008926771E+005	1,9962281E+000	1,9956787E+000	1,683314106652062E-002	1,000000000000000E+000	-1,1311573E-002	41	3,3593540E-005
2	1	0	1	0	1,514634848989330E+005	2,0162199E+000	2,0156825E+000	1,587935868052590E-002	1,000000000000000E+000	-1,0645650E-002	41	3,2007745E-005
2	1	0	1	0	1,515034683051882E+005	2,0362117E+000	2,0356631E+000	1,515352422936217E-002	1,000000000000000E+000	-1,0012984E-002	41	3,0847470E-005
2	1	0	1	0	1,515434521114440E+005	2,0562036E+000	2,0556562E+000	1,448231389533959E-002	1,000000000000000E+000	-9,4082663E-003	41	2,9770657E-005
2	1	0	1	0	1,515834359176997E+005	2,0761955E+000	2,0756471E+000	1,384072907412323E-002	1,000000000000000E+000	-8,8297259E-003	41	2,8728469E-005
2	1	0	1	0	1,516234198239555E+005	2,0961874E+000	2,0956223E+000	1,315518051524261E-002	1,000000000000000E+000	-8,2777990E-003	41	2,7568291E-005
2	1	0	1	0	1,516634033302111E+005	2,1161790E+000	2,1156437E+000	1,231653692279720E-002	1,000000000000000E+000	-7,7554579E-003	41	2,6057403E-005
2	1	0	1	0	1,517033871364670E+005	2,1361709E+000	2,1356528E+000	1,156320108488912E-002	1,000000000000000E+000	-7,2672465E-003	41	2,4694982E-005
2	1	0	1	0	1,517433708427232E+005	2,1561627E+000	2,1556306E+000	1,084754538944427E-002	1,000000000000000E+000	-6,8061789E-003	41	2,3383300E-005
2	1	0	1	0	1,517833545489791E+005	2,1761546E+000	2,1756124E+000	1,028019252182805E-002	1,000000000000000E+000	-6,3735615E-003	41	2,2365715E-005
2	1	0	1	0	1,518233387552355E+005	2,1961465E+000	2,1956255E+000	9,999857247642123E-003	1,000000000000000E+000	-5,9560598E-003	41	2,1955942E-005
2	1	0	1	0	1,518633224614915E+005	2,2161384E+000	2,2156131E+000	9,776856720186026E-003	1,000000000000000E+000	-5,5488250E-003	41	2,1661732E-005
2	1	0	1	0	1,519033059677477E+005	2,2361300E+000	2,2356191E+000	9,579000186999614E-003	1,000000000000000E+000	-5,1502343E-003	41	2,1414995E-005
2	1	0	1	0	1,519432897740044E+005	2,2561221E+000	2,2555997E+000	9,379885202422313E-003	1,000000000000000E+000	-4,7595566E-003	41	2,1157266E-005
2	1	0	1	0	1,519832735802601E+005	2,2761137E+000	2,2755857E+000	9,195494373685963E-003	1,000000000000000E+000	-4,3763914E-003	41	2,0925136E-005
2	1	0	1	0	1,520232575865155E+005	2,2961059E+000	2,2955866E+000	9,032168121616918E-003	1,000000000000000E+000	-4,0001101E-003	41	2,0734124E-005
2	1	0	1	0	1,520632411927711E+005	2,3160973E+000	2,3155861E+000	8,870177962629719E-003	1,000000000000000E+000	-3,6305778E-003	41	2,0539661E-005
2	1	0	1	0	1,521032249990283E+005	2,3360894E+000	2,3355680E+000	8,731844453465587E-003	1,000000000000000E+000	-3,2675236E-003	41	2,0393816E-005
2	1	0	1	0	1,521432087052846E+005	2,3560812E+000	2,3555863E+000	8,574011978258078E-003	1,000000000000000E+000	-2,9100992E-003	41	2,0196825E-005
2	1	0	1	0	1,521831924115410E+005	2,3760729E+000	2,3755276E+000	8,460580187140257E-003	1,000000000000000E+000	-2,5579282E-003	41	2,0098341E-005
2	1	0	1	0	1,522231766177965E+005	2,3960648E+000	2,3955503E+000	8,366846736877098E-003	1,000000000000000E+000	-2,2100874E-003	41	2,0043202E-005
2	1	0	1	0	1,522631603240520E+005	2,4160566E+000	2,4155092E+000	8,271785701864154E-003	1,000000000000000E+000	-1,8659612E-003	41	1,9980575E-005
2	1	0	1	0	1,523031438303078E+005	2,4360487E+000	2,4355309E+000	8,185964833625548E-003	1,000000000000000E+000	-1,5253720E-003	41	1,9937170E-005
2	1	0	1	0	1,523431276365640E+005	2,4560406E+000	2,4555314E+000	8,139745585747843E-003	1,000000000000000E+000	-1,1875961E-003	41	1,9987401E-005
2	1	0	1	0	1,523831114428202E+005	2,4760325E+000	2,4754982E+000	8,069266763521030E-003	1,000000000000000E+000	-8,5206190E-004	41	1,9975456E-005
2	1	0	1	0	1,524230952490754E+005	2,4960241E+000	2,4955297E+000	8,072602671715244E-003	1,000000000000000E+000	-5,1789859E-004	41	2,0145419E-005
2	1	0	1	0	1,524630790553314E+005	2,5160155E+000	2,5154958E+000	8,060309039728882E-003	1,000000000000000E+000	-1,8421217E-004	41	2,0275673E-005
2	1	0	1	0	1,525030628615869E+005	2,5360079E+000	2,5355003E+000	8,070055460254737E-003	1,000000000000000E+000	1,4913657E-004	41	2,0461628E-005
2	1	0	1	0	1,525430465678426E+005	2,5559993E+000	2,5554497E+000	8,088905229310744E-003	1,000000000000000E+000	4,8295845E-004	41	2,0670790E-005
2	1	0	1	0	1,525830302740983E+005	2,5759912E+000	2,5754807E+000	8,118841889655809E-003	1,000000000000000E+000	8,1811671E-004	41	2,0909920E-005
2	1	0	1	0	1,526230144803540E+005	2,5959830E+000	2,5954723E+000	8,180031797400900E-003	1,000000000000000E+000	1,1550389E-003	41	2,1231046E-005
2	1	0	1	0	1,526629981866099E+005	2,6159754E+000	2,6155252E+000	8,267092394022110E-003	1,000000000000000E+000	1,4946784E-003	41	2,1622789E-005
2	1	0	1	0	1,527029816928655E+005	2,6359668E+000	2,6354687E+000	8,338597772305376E-003	1,000000000000000E+000	1,8375660E-003	41	2,1976113E-005
2	1	0	1	0	1,527429654991215E+005	2,6559591E+000	2,6554608E+000	8,447315555820361E-003	1,000000000000000E+000	2,1843975E-003	41	2,2431515E-005
2	1	0	1	0	1,527829493053774E+005	2,6759508E+000	2,6754377E+000	8,572775183349507E-003	1,000000000000000E+000	2,5355532E-003	41	2,2935927E-005
2	1	0	1	0	1,528229331116336E+005	2,6959424E+000	2,6954553E+000	8,703119466622555E-003	1,000000000000000E+000	2,8919543E-003	41	2,3458870E-005
2	1	0	1	1	1,528601182174529E+005	2,6854470E+000	2,6848857E+000	4,915067047097026E-003	1,000000000000000E+000	3,1327712E-003	42	1,3196393E-005
2	1	0	1	1	1,529001019237079E+005	2,6654549E+000	2,6649268E+000	3,174805958076822E-003	1,000000000000000E+000	3,2804497E-003	42	8,4606254E-006
2	1	0	1	1	1,529400857299641E+005	2,6454630E+000	2,6449325E+000	2,125101882392783E-003	1,000000000000000E+000	3,3749803E-003	42	5,6207509E-006
2	1	0	1	1	1,529800694362205E+005	2,6254714E+000	2,6249599E+000	1,422067529944916E-003	1,000000000000000E+000	3,4351309E-003	42	3,7328703E-006
2	1	0	1	1	1,530200532424767E+005	2,6054792E+000	2,6049759E+000	8,594475568925661E-004	1,000000000000000E+000	3,4704376E-003	42	2,2388401E-006
2	1	0	1	1	1,530600369487330E+005	2,5854874E+000	2,5849652E+000	4,480831425237499E-004	1,000000000000000E+000	3,4864035E-003	42	1,1582794E-006
2	1	0	1	1	1,531000203549890E+005	2,5654955E+000	2,5649865E+000	1,145510517580428E-004	1,000000000000000E+000	3,4874110E-003	42	2,9382190E-007
2	0	0	1	1	1,531402041612756E+005	2,5454037E+000	2,5449040E+000	-3,059785822778947E-004	1,000000000000000E+000	3,4754272E-003	43	-7,7868611E-007
2	0	0	1	1	1,531801877675310E+005	2,5254118E+000	2,5248907E+000	-4,650692438250689E-004	1,000000000000000E+000	3,4522372E-003	42	-1,1742490E-006
2	0	0	1	1	1,532201713737866E+005	2,5054202E+000	2,5049291E+000	-6,782575293977650E-004	1,000000000000000E+000	3,4193737E-003	42	-1,6989870E-006
2	0	0	1	1	1,532601551800424E+005	2,4854283E+000	2,4849083E+000	-9,024793583440969E-004	1,000000000000000E+000	3,3776436E-003	42	-2,2425784E-006
2	0	0	1	1	1,533001388862981E+005	2,4654365E+000	2,4649065E+000	-1,088892393290828E-003	1,000000000000000E+000	3,3278845E-003	42	-2,6840180E-006
2	0	0	1	1	1,533401223925536E+005	2,4454446E+000	2,4449525E+000	-1,262653100922016E-003	1,000000000000000E+000	3,2709006E-003	42	-3,0871267E-006
2	0	0	1	1	1,533801061988093E+005	2,4254529E+000	2,4249527E+000	-1,417554783846600E-003	1,000000000000000E+000	3,2075064E-003	42	-3,4375034E-006
2	0	0	1	1	1,534200899050653E+005	2,4054611E+000	2,4049599E+000	-1,577305560738363E-003	1,000000000000000E+000	3,1376018E-003	42	-3,7933567E-006
2	0	0	1	1	1,534600737113217E+005	2,3854692E+000	2,3850014E+000	-1,727402999645525E-003	1,000000000000000E+000	3,0615299E-003	42	-4,1198587E-006
2	0	0	1	1	1,535000573175778E+005	2,3654773E+000	2,3649831E+000	-1,875582811809814E-003	1,000000000000000E+000	2,9794970E-003	42	-4,4357216E-006
2	0	0	1	1	1,535400411238340E+005	2,3454857E+000	2,3449917E+000	-2,024284744171132E-003	1,000000000000000E+000	2,8914099E-003	42	-4,7469307E-006
2	0	0	1	1	1,535800246300902E+005	2,3254938E+000	2,3249695E+000	-2,161676807955537E-003	1,000000000000000E+000	2,7974173E-003	42	-5,0258327E-006
2	0	0	1	1	1,536200084363464E+005	2,3055019E+000	2,3050106E+000	-2,328454468390844E-003	1,000000000000000E+000	2,6971651E-003	42	-5,3671120E-006
2	0	0	1	1	1,536599920426011E+005	2,2855101E+000	2,2850029E+000	-2,509342045437465E-003	1,000000000000000E+000	2,5902882E-003	42	-5,7338539E-006
2	0	0	1	1	1,536999758488573E+005	2,2655182E+000	2,2650266E+000	-2,676585457483434E-003	1,000000000000000E+000	2,4767176E-003	42	-6,0625371E-006
2	0	0	1	1	1,537399592551142E+005	2,2455263E+000	2,2450078E+000	-2,848439495770343E-003	1,000000000000000E+000	2,3560484E-003	42	-6,3947687E-006
2	0	0	1	1	1,537799430613704E+005	2,2255342E+000	2,2250233E+000	-3,036723245102655E-003	1,000000000000000E+000	2,2282314E-003	42	-6,7567798E-006
2	0	0	1	1	1,538199268676266E+005	2,2055426E+000	2,2050734E+000	-3,231331844640209E-003	1,000000000000000E+000	2,0926564E-003	42	-7,1253239E-006
2	0	0	1	1	1,538599105738830E+005	2,1855509E+000	2,1850626E+000	-3,433843298969799E-003	1,000000000000000E+000	1,9488103E-003	42	-7,5031626E-006
2	0	0	1	1	1,538998942801384E+005	2,1655588E+000	2,1650698E+000	-3,649947844927275E-003	1,000000000000000E+000	1,7966017E-003	42	-7,9023921E-006
2	0	0	1	1	1,539398779863939E+005	2,1455669E+000	2,1450822E+000	-3,885746238759059E-003	1,000000000000000E+000	1,6352735E-003	42	-8,3352452E-006
2	0	0	1	1	1,539798614926497E+005	2,1255753E+000	2,1250763E+000	-4,127368392915887E-003	1,000000000000000E+000	1,4644469E-003	42	-8,7709732E-006
2	0	0	1	1	1,540198452989059E+005	2,1055837E+000	2,1051171E+000	-4,397471633433681E-003	1,000000000000000E+000	1,2836840E-003	42	-9,2571927E-006
2	0	0	1	1	1,540598291051616E+005	2,0855916E+000	2,0850713E+000	-4,659727079613082E-003	1,000000000000000E+000	1,0923552E-003	42	-9,7158636E-006
2	0	0	1	1	1,540998127114172E+005	2,0655999E+000	2,0651016E+000	-4,948727993033156E-003	1,000000000000000E+000	8,8974851E-004	42	-1,0219626E-005
2	0	0	1	1	1,541397962176725E+005	2,0456078E+000	2,0451045E+000	-5,268671943013739E-003	1,000000000000000E+000	6,7518838E-004	42	-1,0774985E-005
2	0	0	1	1	1,541797799239284E+005	2,0256159E+000	2,0251014E+000	-5,591656330396655E-003	1,000000000000000E+000	4,4768685E-004	42	-1,1323671E-005
2	0	0	1	1	1,542197637301844E+005	2,0056241E+000	2,0051425E+000	-5,967294731218965E-003	1,000000000000000E+000	2,0580023E-004	42	-1,1965276E-005
2	0	0	1	1	1,542597476364400E+005	1,9856322E+000	1,9851328E+000	-6,411834691263212E-003	1,000000000000000E+000	-5,2113184E-005	42	-1,2728344E-005
2	0	0	1	1	1,542997312426956E+005	1,9656405E+000	1,9651546E+000	-6,897054840177330E-003	1,000000000000000E+000	-3,2803643E-004	42	-1,3553779E-005
2	0	0	1	1	1,543397149489520E+005	1,9456484E+000	1,9451523E+000	-7,406942119043112E-003	1,000000000000000E+000	-6,2401599E-004	42	-1,4407630E-005
2	0	0	1	1	1,543796985552078E+005	1,9256568E+000	1,9251845E+000	-7,965804305913662E-003	1,000000000000000E+000	-9,4187341E-004	42	-1,5335643E-005
2	0	0	1	1	1,544196822614637E+005	1,9056649E+000	1,9052105E+000	-8,552197470263534E-003	1,000000000000000E+000	-1,2829152E-003	42	-1,6293736E-005
2	0	0	1	1	1,544596660677199E+005	1,8856730E+000	1,8851411E+000	-9,200878929832873E-003	1,000000000000000E+000	-1,6488638E-003	41	-1,7344955E-005
2	0	0	1	1	1,544972506736012E+005	1,8668809E+000	1,8662682E+000	-9,900709195949903E-003	2,000000000000000E+000	-2,0185006E-003	41	-1,8477378E-005
2	0	0	1	1	1,545372342798568E+005	1,8468889E+000	1,8463224E+000	-1,070390830107743E-002	2,000000000000000E+000	-2,4415930E-003	41	-1,9762865E-005
2	0	0	1	1	1,545772180861125E+005	1,8268970E+000	1,8263321E+000	-1,153172819613583E-002	2,000000000000000E+000	-2,8981981E-003	41	-2,1060765E-005
2	0	0	1	1	1,546172017923682E+005	1,8069052E+000	1,8063356E+000	-1,235317028409191E-002	2,000000000000000E+000	-3,3882139E-003	41	-2,2313970E-005
2	0	0	1	1	1,546571853986238E+005	1,7869133E+000	1,7863525E+000	-1,319193702224647E-002	2,000000000000000E+000	-3,9117076E-003	41	-2,3565450E-005
2	0	0	1	1	1,546971689048796E+005	1,7669216E+000	1,7663674E+000	-1,406580360869056E-002	2,000000000000000E+000	-4,4691782E-003	41	-2,4845378E-005
2	0	0	1	1	1,547371527111356E+005	1,7469298E+000	1,7463413E+000	-1,487895537127654E-002	2,000000000000000E+000	-5,0599473E-003	41	-2,5983734E-005
2	0	0	1	1	1,547771365173915E+005	1,7269379E+000	1,7263650E+000	-1,559895543698676E-002	2,000000000000000E+000	-5,6814104E-003	41	-2,6929491E-005
2	0	0	1	1	1,548171201236472E+005	1,7069460E+000	1,7063943E+000	-1,643231133424548E-002	2,000000000000000E+000	-6,3334126E-003	41	-2,8040002E-005
2	0	0	1	1	1,548571038299031E+005	1,6869541E+000	1,6864027E+000	-1,765422723624890E-002	2,000000000000000E+000	-7,0249853E-003	41	-2,9772136E-005
2	0	0	1	1	1,548970875361594E+005	1,6669625E+000	1,6664021E+000	-1,945739458295204E-002	2,000000000000000E+000	-7,7760355E-003	41	-3,2423843E-005
2	0	0	1	1	1,549370713424161E+005	1,6469704E+000	1,6463810E+000	-2,233850987198566E-002	2,000000000000000E+000	-8,6202035E-003	41	-3,6777699E-005
2	0	0	1	1	1,549770549486713E+005	1,6269786E+000	1,6263947E+000	-2,669130903278316E-002	2,000000000000000E+000	-9,6073598E-003	41	-4,3410604E-005
2	0	0	1	1	1,550170387549279E+005	1,6069869E+000	1,6064606E+000	-3,302743314130824E-002	2,000000000000000E+000	-1,0807296E-002	41	-5,3057269E-005
2	0	0	1	1	1,550570224611834E+005	1,5869948E+000	1,5864643E+000	-4,209936552366234E-002	2,000000000000000E+000	-1,2312454E-002	41	-6,6789136E-005
2	0	0	1	1	1,550970059674401E+005	1,5670033E+000	1,5664738E+000	-5,492455040332000E-002	2,000000000000000E+000	-1,4247747E-002	41	-8,6037871E-005
2	0	0	1	1	1,551369897736963E+005	1,5470111E+000	1,5465395E+000	-7,765033404736665E-002	2,000000000000000E+000	-1,6852558E-002	41	-1,2008931E-004
2	0	0	1	1	1,551769733799528E+005	1,5270194E+000	1,5264536E+000	-1,462228735110127E-001	2,000000000000000E+000	-2,1125650E-002	40	-2,2320243E-004
2	0	0	1	1	1,552169571862090E+005	1,5070276E+000	1,5064951E+000	-2,312495387851636E-001	2,000000000000000E+000	-2,8771535E-002	40	-3,4837631E-004
2	0	0	1	1	1,552569408924645E+005	1,4870356E+000	1,4864982E+000	-2,873230777532640E-001	2,000000000000000E+000	-3,9256211E-002	40	-4,2710526E-004
2	0	0	1	1	1,552969244987210E+005	1,4670438E+000	1,4665173E+000	-3,152333295247898E-001	2,000000000000000E+000	-5,1404733E-002	40	-4,6229514E-004
2	0	0	1	1	1,553369081049757E+005	1,4470520E+000	1,4465450E+000	-3,210481235405398E-001	2,000000000000000E+000	-6,4203903E-002	40	-4,6441055E-004
2	0	0	1	1	1,553768918112316E+005	1,4270602E+000	1,4265083E+000	-3,122883605714186E-001	2,000000000000000E+000	-7,6913588E-002	40	-4,4548194E-004
2	0	0	1	1	1,554168756174874E+005	1,4070683E+000	1,4065205E+000	-2,955124648048513E-001	2,000000000000000E+000	-8,9091457E-002	40	-4,1564435E-004
2	0	0	1	1	1,554568592237427E+005	1,3870766E+000	1,3865221E+000	-2,763960331047648E-001	2,000000000000000E+000	-1,0053846E-001	40	-3,8322920E-004
2	0	0	1	1	1,554968429299984E+005	1,3670846E+000	1,3665273E+000	-2,581511738803021E-001	2,000000000000000E+000	-1,1122623E-001	40	-3,5277064E-004
2	0	0	1	1	1,555368265362545E+005	1,3470927E+000	1,3464918E+000	-2,421049855981705E-001	2,000000000000000E+000	-1,2123315E-001	40	-3,2599238E-004
2	0	0	1	1	1,555768102425099E+005	1,3271009E+000	1,3265578E+000	-2,273456313358195E-001	2,000000000000000E+000	-1,3062464E-001	40	-3,0158710E-004
2	0	0	1	1	1,556167940487654E+005	1,3071090E+000	1,3065250E+000	-2,136520962329511E-001	2,000000000000000E+000	-1,3944957E-001	40	-2,7914179E-004
2	0	0	1	1	1,556567776550213E+005	1,2871172E+000	1,2865618E+000	-2,007680875263076E-001	2,000000000000000E+000	-1,4774053E-001	40	-2,5830057E-004
2	0	0	1	1	1,556967612612778E+005	1,2671255E+000	1,2665327E+000	-1,880382749950948E-001	2,000000000000000E+000	-1,5552166E-001	40	-2,3815662E-004
2	0	0	1	1	1,557367450675336E+005	1,2471336E+000	1,2465323E+000	-1,755563123874957E-001	2,000000000000000E+000	-1,6279894E-001	40	-2,1883662E-004
2	0	0	1	1	1,557767287737899E+005	1,2271416E+000	1,2265525E+000	-1,633033124517815E-001	2,000000000000000E+000	-1,6957873E-001	40	-2,0030008E-004
2	0	0	1	1	1,558167124800454E+005	1,2071500E+000	1,2065777E+000	-1,515938237609520E-001	2,000000000000000E+000	-1,7588012E-001	40	-1,8290972E-004
2	0	0	1	1	1,558566961863018E+005	1,1871579E+000	1,1865921E+000	-1,401888367884241E-001	2,000000000000000E+000	-1,8171857E-001	40	-1,6634696E-004
2	0	0	1	1	1,558966796925585E+005	1,1671662E+000	1,1665913E+000	-1,295294938430436E-001	2,000000000000000E+000	-1,8711571E-001	40	-1,5110798E-004
2	0	0	1	1	1,559366634988133E+005	1,1471744E+000	1,1465549E+000	-1,192297800253984E-001	2,000000000000000E+000	-1,9209288E-001	40	-1,3670350E-004
2	0	0	1	1	1,559766472050697E+005	1,1271825E+000	1,1265758E+000	-1,097917366654202E-001	2,000000000000000E+000	-1,9667478E-001	40	-1,2368872E-004
2	0	0	1	1	1,560166308113262E+005	1,1071907E+000	1,1065918E+000	-1,010375469761337E-001	2,000000000000000E+000	-2,0089230E-001	40	-1,1180732E-004
2	0	0	1	1	1,560566146175824E+005	1,0871987E+000	1,0865508E+000	-9,315913548683374E-002	2,000000000000000E+000	-2,0477657E-001	40	-1,0122213E-004
2	0	0	1	1	1,560965981238382E+005	1,0672071E+000	1,0665922E+000	-8,632437526259773E-002	2,000000000000000E+000	-2,0836595E-001	40	-9,2072907E-005
2	0	0	1	1	1,561365819300953E+005	1,0472151E+000	1,0465815E+000	-8,057907304646789E-002	2,000000000000000E+000	-2,1170385E-001	40	-8,4332569E-005
2	0	0	1	1	1,561765656363508E+005	1,0272233E+000	1,0266237E+000	-7,604070014298263E-002	2,000000000000000E+000	-2,1483536E-001	40	-7,8065190E-005
2	0	0	1	1	1,562165492426064E+005	1,0072314E+000	1,0066081E+000	-7,287803654791203E-002	2,000000000000000E+000	-2,1781339E-001	40	-7,3359624E-005
2	0	0	1	1	1,562541347484854E+005	1,0115298E+000	1,0108969E+000	-5,519254540379792E-002	2,000000000000000E+000	-2,2028530E-001	40	-5,5793975E-005
2	0	0	1	1	1,562941185547416E+005	1,0315216E+000	1,0309620E+000	-4,093574001483503E-002	2,000000000000000E+000	-2,2217955E-001	41	-4,2203192E-005
2	0	0	1	1	1,563341022609975E+005	1,0515134E+000	1,0509366E+000	-3,117889996967382E-002	2,000000000000000E+000	-2,2360554E-001	41	-3,2767046E-005
2	0	0	1	1	1,563740858672541E+005	1,0715052E+000	1,0709089E+000	-2,392512617476883E-002	2,000000000000000E+000	-2,2469468E-001	41	-2,5621630E-005
2	0	0	1	1	1,564140696735103E+005	1,0914971E+000	1,0909204E+000	-1,834924811938499E-002	2,000000000000000E+000	-2,2552918E-001	41	-2,0017569E-005
2	0	0	1	1	1,564540532797659E+005	1,1114889E+000	1,1108876E+000	-1,403622966275132E-002	2,000000000000000E+000	-2,2616789E-001	41	-1,5592674E-005
2	0	0	1	1	1,564940369860223E+005	1,1314808E+000	1,1308935E+000	-1,062214527710711E-002	2,000000000000000E+000	-2,2665322E-001	41	-1,2012515E-005
2	0	0	1	1	1,565340207922785E+005	1,1514727E+000	1,1508477E+000	-7,920665574069584E-003	2,000000000000000E+000	-2,2701642E-001	41	-9,1154798E-006
2	0	0	1	1	1,565740043985350E+005	1,1714644E+000	1,1708663E+000	-5,704580246903034E-003	2,000000000000000E+000	-2,2728191E-001	41	-6,6793004E-006
2	0	0	1	1	1,566139883047901E+005	1,1914563E+000	1,1908715E+000	-3,903357823720893E-003	2,000000000000000E+000	-2,2746725E-001	42	-4,6483974E-006
2	0	0	1	1	1,566539720110465E+005	1,2114482E+000	1,2108696E+000	-2,365008577248924E-003	2,000000000000000E+000	-2,2758628E-001	42	-2,8637169E-006
2	0	0	1	1	1,566939557173019E+005	1,2314398E+000	1,2308210E+000	-1,098476197564733E-003	2,000000000000000E+000	-2,2765020E-001	42	-1,3520275E-006
2	0	0	1	1	1,567339394235583E+005	1,2514317E+000	1,2508372E+000	5,627650788342356E-006	2,000000000000000E+000	-2,2766687E-001	43	7,0392749E-009
2	1	0	1	1	1,567739231298137E+005	1,2714235E+000	1,2708120E+000	9,332633979953243E-004	2,000000000000000E+000	-2,2764318E-001	42	1,1860024E-006
2	1	0	1	1	1,568139068360692E+005	1,2914156E+000	1,2907870E+000	1,790153806021250E-003	2,000000000000000E+000	-2,2758313E-001	42	2,3107073E-006
2	1	0	1	1	1,568538906423249E+005	1,3114073E+000	1,3107507E+000	2,587236222411421E-003	2,000000000000000E+000	-2,2749029E-001	42	3,3912218E-006
2	1	0	1	1	1,568938744485804E+005	1,3313992E+000	1,3307332E+000	3,338116631561895E-003	2,000000000000000E+000	-2,2736657E-001	42	4,4421427E-006
2	1	0	1	1	1,569338580548365E+005	1,3513911E+000	1,3507365E+000	4,103919601286511E-003	2,000000000000000E+000	-2,2721262E-001	42	5,5433138E-006
2	1	0	1	1	1,569738417610922E+005	1,3713828E+000	1,3707416E+000	4,919686608143917E-003	2,000000000000000E+000	-2,2702755E-001	42	6,7436190E-006
2	1	0	1	1	1,570138255673475E+005	1,3913747E+000	1,3907042E+000	5,784723271644018E-003	2,000000000000000E+000	-2,2680894E-001	42	8,0448390E-006
2	1	0	1	1	1,570538092736036E+005	1,4113666E+000	1,4107108E+000	6,809719494974151E-003	2,000000000000000E+000	-2,2655268E-001	42	9,6065451E-006
2	1	0	1	1	1,570937930798596E+005	1,4313586E+000	1,4306651E+000	7,993195107205087E-003	2,000000000000000E+000	-2,2625248E-001	42	1,1435585E-005
2	1	0	1	1	1,571337767861155E+005	1,4513501E+000	1,4506801E+000	9,400801242386625E-003	2,000000000000000E+000	-2,2590011E-001	42	1,3637556E-005
2	1	0	1	1	1,571737604923714E+005	1,4713422E+000	1,4707001E+000	1,105822873310031E-002	2,000000000000000E+000	-2,2548598E-001	41	1,6263339E-005
2	1	0	1	1	1,572137442986276E+005	1,4913340E+000	1,4907306E+000	1,305205292784063E-002	2,000000000000000E+000	-2,2500013E-001	41	1,9457095E-005
2	1	0	1	1	1,572537281048833E+005	1,5113260E+000	1,5106698E+000	1,580915972470118E-002	2,000000000000000E+000	-2,2442161E-001	41	2,3882421E-005
2	1	0	1	1	1,572937118111397E+005	1,5313177E+000	1,5307080E+000	2,024128466131361E-002	2,000000000000000E+000	-2,2370274E-001	41	3,0983494E-005
2	1	0	1	1	1,573336954173963E+005	1,5513093E+000	1,5506431E+000	2,782877494791935E-002	2,000000000000000E+000	-2,2275035E-001	41	4,3152497E-005
2	1	0	1	1	1,573736791236512E+005	1,5713013E+000	1,5706332E+000	4,021988471419738E-002	2,000000000000000E+000	-2,2140279E-001	41	6,3170686E-005
2	1	0	1	1	1,574136629299074E+005	1,5912932E+000	1,5905994E+000	7,737178696053970E-002	2,000000000000000E+000	-2,1922751E-001	41	1,2306753E-004
2	1	0	1	1	1,574536467361636E+005	1,6112851E+000	1,6106489E+000	1,511500761957112E-001	2,000000000000000E+000	-2,1468689E-001	40	2,4344970E-004
2	1	0	1	1	1,574936303424211E+005	1,6312768E+000	1,6306133E+000	2,343375940143781E-001	2,000000000000000E+000	-2,0700784E-001	40	3,8211400E-004
2	1	0	1	1	1,575336141486773E+005	1,6512688E+000	1,6506094E+000	3,359219756438356E-001	2,000000000000000E+000	-1,9568029E-001	40	5,5447593E-004
2	1	0	1	1	1,575735977549329E+005	1,6712606E+000	1,6705403E+000	4,726261241248206E-001	2,000000000000000E+000	-1,7964138E-001	40	7,8954099E-004
2	1	0	1	1	1,576135817611888E+005	1,6912524E+000	1,6905237E+000	6,565418525163942E-001	2,000000000000000E+000	-1,5720771E-001	40	1,1098996E-003
2	1	0	1	1	1,576535653674444E+005	1,7112443E+000	1,7105576E+000	8,589167255020005E-001	2,000000000000000E+000	-1,2678738E-001	40	1,4692266E-003
2	1	0	1	1	1,576935491737006E+005	1,7312361E+000	1,7305299E+000	9,326747341722967E-001	2,000000000000000E+000	-9,0150081E-002	40	1,6140215E-003
2	1	0	1	1	1,577335329799568E+005	1,7512280E+000	1,7505239E+000	7,045679489429979E-001	2,000000000000000E+000	-5,6439660E-002	40	1,2333631E-003
2	1	0	1	1	1,577735165862115E+005	1,7712198E+000	1,7705674E+000	3,526018039099919E-001	2,000000000000000E+000	-3,5428267E-002	40	6,2430528E-004
2	1	0	1	1	1,578135003924672E+005	1,7912115E+000	1,7905568E+000	1,291996547809743E-001	2,000000000000000E+000	-2,6449379E-002	40	2,3133932E-004
2	1	0	1	1	1,578534840987229E+005	1,8112035E+000	1,8105872E+000	6,836591668934551E-002	2,000000000000000E+000	-2,2768058E-002	40	1,2378245E-004
2	1	0	1	1	1,578934678049784E+005	1,8311952E+000	1,8305410E+000	4,818228466381069E-002	2,000000000000000E+000	-2,0474346E-002	40	8,8199646E-005
2	1	0	1	1	1,579334516112346E+005	1,8511872E+000	1,8505535E+000	3,856038914439830E-002	2,000000000000000E+000	-1,8740531E-002	41	7,1358067E-005
2	1	0	1	1	1,579734352174897E+005	1,8711789E+000	1,8705580E+000	3,246585947040520E-002	2,000000000000000E+000	-1,7311506E-002	41	6,0729275E-005
2	1	0	1	1	1,580134190237455E+005	1,8911710E+000	1,8905302E+000	2,735676266512556E-002	2,000000000000000E+000	-1,6100341E-002	41	5,1718787E-005
2	1	0	1	1	1,580534028300019E+005	1,9111630E+000	1,9105502E+000	2,349243671606226E-002	2,000000000000000E+000	-1,5072162E-002	41	4,4883480E-005
2	1	0	1	1	1,580933865362578E+005	1,9311544E+000	1,9305376E+000	2,070139943023647E-002	2,000000000000000E+000	-1,4173455E-002	41	3,9964831E-005
2	1	0	1	1	1,581333702425133E+005	1,9511464E+000	1,9505345E+000	1,819064773219264E-002	2,000000000000000E+000	-1,3382905E-002	41	3,5481484E-005
2	1	0	1	1	1,581733539487696E+005	1,9711381E+000	1,9705232E+000	1,693285788104743E-002	2,000000000000000E+000	-1,2667403E-002	41	3,3366588E-005
2	1	0	1	1	1,582133377550258E+005	1,9911301E+000	1,9905642E+000	1,611405810026163E-002	2,000000000000000E+000	-1,1991228E-002	41	3,2076066E-005
2	1	0	1	1	1,582533215612820E+005	2,0111220E+000	2,0105221E+000	1,537086242477007E-002	2,000000000000000E+000	-1,1346268E-002	41	3,0903459E-005
2	1	0	1	1	1,582933053675382E+005	2,0311139E+000	2,0305476E+000	1,466660010938460E-002	2,000000000000000E+000	-1,0729943E-002	41	2,9781229E-005
2	1	0	1	1	1,583332888737945E+005	2,0511055E+000	2,0505064E+000	1,389838802418369E-002	2,000000000000000E+000	-1,0143075E-002	41	2,8498733E-005
2	1	0	1	1	1,583732726800498E+005	2,0710974E+000	2,0705042E+000	1,291264162573971E-002	2,000000000000000E+000	-9,5897773E-003	41	2,6735679E-005
2	1	0	1	1	1,584132565863058E+005	2,0910892E+000	2,0904953E+000	1,225493476515637E-002	2,000000000000000E+000	-9,0721827E-003	41	2,5618883E-005
2	1	0	1	1	1,584532402925622E+005	2,1110811E+000	2,1104898E+000	1,161334842150659E-002	2,000000000000000E+000	-8,5787233E-003	41	2,4509854E-005
2	1	0	1	1	1,584932240988193E+005	2,1310730E+000	2,1304696E+000	1,084867834401521E-002	2,000000000000000E+000	-8,1168413E-003	41	2,3112780E-005
2	1	0	1	1	1,585332078050748E+005	2,1510649E+000	2,1504641E+000	1,050529514164408E-002	2,000000000000000E+000	-7,6744813E-003	41	2,2591259E-005
2	1	0	1	1	1,585731916113310E+005	2,1710565E+000	2,1704552E+000	1,027809241145694E-002	2,000000000000000E+000	-7,2432691E-003	41	2,2308139E-005
2	1	0	1	1	1,586131754175872E+005	2,1910486E+000	2,1904631E+000	1,004000116053745E-002	2,000000000000000E+000	-6,8220478E-003	41	2,1992251E-005
2	1	0	1	1	1,586531592238424E+005	2,2110405E+000	2,2104499E+000	9,785524846601640E-003	2,000000000000000E+000	-6,4099012E-003	41	2,1630412E-005
2	1	0	1	1	1,586931430300986E+005	2,2310324E+000	2,2304697E+000	9,598779474503027E-003	2,000000000000000E+000	-6,0068988E-003	41	2,1409787E-005
2	1	0	1	1	1,587331265363544E+005	2,2510240E+000	2,2504320E+000	9,390504466124910E-003	2,000000000000000E+000	-5,6120204E-003	41	2,1132691E-005
2	1	0	1	1	1,587731102426096E+005	2,2710159E+000	2,2704194E+000	9,211446679794622E-003	2,000000000000000E+000	-5,2250982E-003	41	2,0913847E-005
2	1	0	1	1	1,588130944488656E+005	2,2910078E+000	2,2903862E+000	9,010669054553916E-003	2,000000000000000E+000	-4,8457491E-003	41	2,0637912E-005
2	1	0	1	1	1,588530781551213E+005	2,3109996E+000	2,3104184E+000	8,849521690405399E-003	2,000000000000000E+000	-4,4736648E-003	41	2,0446098E-005
2	1	0	1	1	1,588930619613768E+005	2,3309913E+000	2,3303461E+000	8,687278876957416E-003	2,000000000000000E+000	-4,1078939E-003	41	2,0244366E-005
2	1	0	1	1	1,589330456676329E+005	2,3509831E+000	2,3503766E+000	8,556359703059763E-003	2,000000000000000E+000	-3,7478616E-003	41	2,0110667E-005
2	1	0	1	1	1,589730294738882E+005	2,3709753E+000	2,3703549E+000	8,444923984400651E-003	2,000000000000000E+000	-3,3928247E-003	41	2,0017467E-005
2	1	0	1	1	1,590130132801440E+005	2,3909669E+000	2,3903930E+000	8,353214969443329E-003	2,000000000000000E+000	-3,0419265E-003	41	1,9967467E-005
2	1	0	1	1	1,590529970863999E+005	2,4109588E+000	2,4103680E+000	8,266102485112024E-003	2,000000000000000E+000	-2,6945218E-003	41	1,9924348E-005
2	1	0	1	1	1,590929808926559E+005	2,4309509E+000	2,4303668E+000	8,212865085211629E-003	2,000000000000000E+000	-2,3500030E-003	41	1,9960275E-005
2	1	0	1	1	1,591329643989117E+005	2,4509425E+000	2,4503450E+000	8,161957142274107E-003	2,000000000000000E+000	-2,0076036E-003	41	1,9999612E-005
2	1	0	1	1	1,591729481051681E+005	2,4709342E+000	2,4703317E+000	8,126881112325846E-003	2,000000000000000E+000	-1,6666742E-003	41	2,0076091E-005
2	1	0	1	1	1,592129323114236E+005	2,4909260E+000	2,4903297E+000	8,125639470210579E-003	2,000000000000000E+000	-1,3264784E-003	41	2,0235522E-005
2	1	0	1	1	1,592529160176800E+005	2,5109179E+000	2,5103409E+000	8,141695500685095E-003	2,000000000000000E+000	-9,8621286E-004	41	2,0438432E-005
2	1	0	1	1	1,592928998239362E+005	2,5309095E+000	2,5303402E+000	8,181934151648078E-003	2,000000000000000E+000	-6,4508867E-004	41	2,0703077E-005
2	1	0	1	1	1,593328835301921E+005	2,5509017E+000	2,5503242E+000	8,224194789910662E-003	2,000000000000000E+000	-3,0276270E-004	41	2,0974363E-005
2	1	0	1	1	1,593728671364486E+005	2,5708935E+000	2,5702829E+000	8,298915086079134E-003	2,000000000000000E+000	4,2130108E-005	41	2,1330559E-005
2	1	0	1	1	1,594128511427045E+005	2,5908856E+000	2,5902870E+000	8,378109697139077E-003	2,000000000000000E+000	3,9007017E-004	41	2,1701708E-005
2	1	0	1	1	1,594528349489607E+005	2,6108773E+000	2,6102693E+000	8,466310941008665E-003	2,000000000000000E+000	7,4180454E-004	41	2,2099352E-005
2	1	0	1	1	1,594928187552169E+005	2,6308692E+000	2,6302662E+000	8,595946498395540E-003	2,000000000000000E+000	1,0981986E-003	41	2,2609627E-005
2	1	0	1	1	1,595328022614727E+005	2,6508608E+000	2,6502349E+000	8,747216461362672E-003	2,000000000000000E+000	1,4597976E-003	41	2,3182180E-005
2	1	0	1	1	1,595727859677291E+005	2,6708524E+000	2,6702554E+000	8,939574009622503E-003	2,000000000000000E+000	1,8281121E-003	41	2,3870945E-005
2	1	0	1	1	1,596127701739846E+005	2,6908445E+000	2,6902490E+000	9,147378625223841E-003	2,000000000000000E+000	2,2042303E-003	41	2,4608726E-005
2	1	0	1	0	1,596501548798329E+005	2,6904447E+000	2,6898608E+000	5,960106147736510E-003	2,000000000000000E+000	2,5046808E-003	41	1,6031856E-005
2	1	0	1	0	1,596901385860885E+005	2,6704531E+000	2,6698327E+000	3,676950547106851E-003	2,000000000000000E+000	2,6774250E-003	42	9,8168430E-006
2	1	0	1	0	1,597301223923441E+005	2,6504610E+000	2,6498573E+000	2,413093455187379E-003	2,000000000000000E+000	2,7837814E-003	42	6,3943535E-006
2	1	0	1	0	1,597701060985997E+005	2,6304693E+000	2,6298740E+000	1,589701342364705E-003	2,000000000000000E+000	2,8493002E-003	42	4,1807143E-006
2	1	0	1	0	1,598100899048557E+005	2,6104772E+000	2,6098769E+000	9,794440302177913E-004	2,000000000000000E+000	2,8864921E-003	42	2,5562283E-006
2	1	0	1	0	1,598500736111118E+005	2,5904853E+000	2,5898595E+000	4,914770871041153E-004	2,000000000000000E+000	2,9022628E-003	42	1,2728566E-006
2	1	0	1	0	1,598900570173683E+005	2,5704937E+000	2,5699010E+000	1,260207830773353E-004	2,000000000000000E+000	2,9011909E-003	42	3,2386095E-007
2	1	0	1	0	1,599300408236240E+005	2,5505018E+000	2,5498879E+000	-1,828091277229385E-004	2,000000000000000E+000	2,8863705E-003	42	-4,6614278E-007
2	0	0	1	0	1,599700246298802E+005	2,5305099E+000	2,5299160E+000	-4,729085617820586E-004	2,000000000000000E+000	2,8599349E-003	42	-1,1964189E-006
2	0	0	1	0	1,600100081361365E+005	2,5105183E+000	2,5099306E+000	-7,243404668593190E-004	2,000000000000000E+000	2,8231090E-003	42	-1,8180443E-006
2	0	0	1	0	1,600499918423928E+005	2,4905262E+000	2,4899414E+000	-9,197670910553318E-004	2,000000000000000E+000	2,7771923E-003	42	-2,2901661E-006
2	0	0	1	0	1,600899755486483E+005	2,4705346E+000	2,4699626E+000	-1,117786058383467E-003	2,000000000000000E+000	2,7230964E-003	42	-2,7608899E-006
2	0	0	1	0	1,601299592549047E+005	2,4505427E+000	2,4499798E+000	-1,296941151276383E-003	2,000000000000000E+000	2,6614661E-003	42	-3,1774796E-006
2	0	0	1	0	1,601699430611609E+005	2,4305508E+000	2,4299793E+000	-1,479803229192066E-003	2,000000000000000E+000	2,5927944E-003	42	-3,5958913E-006
2	0	0	1	0	1,602099267674172E+005	2,4105589E+000	2,4099922E+000	-1,630431823747946E-003	2,000000000000000E+000	2,5174383E-003	42	-3,9293282E-006
2	0	0	1	0	1,602499105736734E+005	2,3905671E+000	2,3899956E+000	-1,796421150793637E-003	2,000000000000000E+000	2,4355871E-003	42	-4,2934385E-006
2	0	0	1	0	1,602898939799294E+005	2,3705752E+000	2,3700025E+000	-1,942625020065418E-003	2,000000000000000E+000	2,3475559E-003	42	-4,6040263E-006
2	0	0	1	0	1,603298776861848E+005	2,3505836E+000	2,3500183E+000	-2,101634168357096E-003	2,000000000000000E+000	2,2532884E-003	42	-4,9388786E-006
2	0	0	1	0	1,603698614924410E+005	2,3305914E+000	2,3300223E+000	-2,274215437341656E-003	2,000000000000000E+000	2,1525363E-003	42	-5,2989726E-006
2	0	0	1	0	1,604098449986968E+005	2,3105996E+000	2,3100569E+000	-2,405132972122526E-003	2,000000000000000E+000	2,0453508E-003	42	-5,5559940E-006
2	0	0	1	0	1,604498288049519E+005	2,2906079E+000	2,2900219E+000	-2,606458276683807E-003	2,000000000000000E+000	1,9314191E-003	42	-5,9688464E-006
2	0	0	1	0	1,604898124112075E+005	2,2706161E+000	2,2700510E+000	-2,783770594869582E-003	2,000000000000000E+000	1,8104756E-003	42	-6,3193011E-006
2	0	0	1	0	1,605297962174630E+005	2,2506242E+000	2,2500637E+000	-2,969206376088995E-003	2,000000000000000E+000	1,6822360E-003	42	-6,6809034E-006
2	0	0	1	0	1,605697799237189E+005	2,2306323E+000	2,2300889E+000	-3,155854252838455E-003	2,000000000000000E+000	1,5463514E-003	42	-7,0378355E-006
2	0	0	1	0	1,606097637299749E+005	2,2106404E+000	2,2101047E+000	-3,389435381994193E-003	2,000000000000000E+000	1,4025592E-003	42	-7,4910072E-006
2	0	0	1	0	1,606497474362303E+005	2,1906486E+000	2,1900926E+000	-3,574355430699276E-003	2,000000000000000E+000	1,2502056E-003	42	-7,8281691E-006
2	0	0	1	0	1,606897309424863E+005	2,1706569E+000	2,1700823E+000	-3,826450544430377E-003	2,000000000000000E+000	1,0889897E-003	42	-8,3037130E-006
2	0	0	1	0	1,607297146487422E+005	2,1506650E+000	2,1501148E+000	-4,048606812604019E-003	2,000000000000000E+000	9,1831695E-004	42	-8,7049693E-006
2	0	0	1	0	1,607696983549981E+005	2,1306732E+000	2,1301389E+000	-4,305071644832131E-003	2,000000000000000E+000	7,3788204E-004	42	-9,1704005E-006
2	0	0	1	0	1,608096819612538E+005	2,1106813E+000	2,1101620E+000	-4,595841267277317E-003	2,000000000000000E+000	5,4677197E-004	42	-9,6979693E-006
2	0	0	1	0	1,608496656675101E+005	2,0906894E+000	2,0901294E+000	-4,883948035698193E-003	2,000000000000000E+000	3,4432363E-004	42	-1,0208083E-005
2	0	0	1	0	1,608896493737660E+005	2,0706975E+000	2,0701542E+000	-5,193545396572748E-003	2,000000000000000E+000	1,2978108E-004	42	-1,0751440E-005
2	0	0	1	0	1,609296330800224E+005	2,0507057E+000	2,0501654E+000	-5,520124170145455E-003	2,000000000000000E+000	-9,7582772E-005	42	-1,1317167E-005
2	0	0	1	0	1,609696168862786E+005	2,0307140E+000	2,0302038E+000	-5,903410967294076E-003	2,000000000000000E+000	-3,3925293E-004	42	-1,1985127E-005
2	0	0	1	0	1,610096005925350E+005	2,0107219E+000	2,0101991E+000	-6,331524163443500E-003	2,000000000000000E+000	-5,9701002E-004	42	-1,2727624E-005
2	0	0	1	0	1,610495843987912E+005	1,9907302E+000	1,9902339E+000	-6,807794412947210E-003	2,000000000000000E+000	-8,7277777E-004	42	-1,3549104E-005
2	0	0	1	0	1,610895679050470E+005	1,9707385E+000	1,9702129E+000	-7,350991248140815E-003	2,000000000000000E+000	-1,1685679E-003	42	-1,4483018E-005
2	0	0	1	0	1,611295517113032E+005	1,9507465E+000	1,9502543E+000	-7,891207830004444E-003	2,000000000000000E+000	-1,4862764E-003	42	-1,5389862E-005
2	0	0	1	0	1,611695354175586E+005	1,9307548E+000	1,9302480E+000	-8,478383744266779E-003	2,000000000000000E+000	-1,8272564E-003	42	-1,6365384E-005
2	0	0	1	0	1,612095190238152E+005	1,9107629E+000	1,9101757E+000	-9,062328643957368E-003	2,000000000000000E+000	-2,1924765E-003	41	-1,7310640E-005
2	0	0	1	0	1,612495028300714E+005	1,8907709E+000	1,8901452E+000	-9,722517860708595E-003	2,000000000000000E+000	-2,5825379E-003	41	-1,8376970E-005
2	0	0	0	0	1,612679580329563E+005	1,8815254E+000	1,8809052E+000	-1,007410889556899E-002	2,000000000000000E+000	-2,7716842E-003	41	-1,8948444E-005