File: Dati/201027/CV_LTO-C_Al_slurrymia_01_1mVs_09_CV_C03.mpt
EC-Lab ASCII FILE
Nb header lines : 63

Cyclic Voltammetry

Run on channel : 3 (SN 6807)
User :
Electrode connection : standard
Ewe ctrl range : min = 0,00 V, max = 5,00 V
Ewe,I filtering : 50 kHz
Safety Limits :
	Do not start on E overload
Channel : Grounded
Acquisition started on : 10/27/2020 18:19:16
Saved on :
	File : CV_LTO-C_Al_slurrymia_01_1mVs_09_CV_C03.mpr
	Directory : C:\Users\labsuperfici\Desktop\Biologic\Users\Prisca Viviani\201027\
	Host : 10.78.33.0
Device : VSP-300 (SN 0638)
Address : USB
EC-Lab for windows v11.31 (software)
Internet server v11.30 (firmware)
Command interpretor v11.31 (firmware)
Electrode material :
Initial state :
Electrolyte :
Comments :
Cable : standard
Reference electrode : SCE Saturated Calomel Electrode (0,241 V)
Electrode surface area : 0,001 cm²
Characteristic mass : 0,001 g
Equivalent Weight : 0,000 g/eq.
Density : 0,000 g/cm3
Cycle Definition : Charge/Discharge alternance
Ei (V)              0,000
vs.                 Eoc
dE/dt               0,900
dE/dt unit          mV/s
E1 (V)              1,000
vs.                 Ref
Step percent        50
N                   10
E range min (V)     0,000
E range max (V)     5,000
I Range             Auto
I Range min         Unset
I Range max         Unset
I Range init        Unset
Bandwidth           8
E2 (V)              3,000
vs.                 Ref
nc cycles           2
Reverse Scan        1
Ef (V)              0,000
vs.                 Eoc

Modify on : 10/28/2020 10:35
nc cycles           1

Modify on : 10/28/2020 10:37
E2 (V)              2,700

mode	ox/red	error	control changes	counter inc.	time/s	control/V	Ewe/V	<I>/mA	cycle number	(Q-Qo)/C	I Range	P/W
2	0	0	1	0	1,908165794561857E+005	1,8815254E+000	1,8809738E+000	-1,562061347067356E-002	1,000000000000000E+000	0,0000000E+000	41	-2,9381965E-005
2	0	0	1	0	1,908382928595850E+005	1,8619826E+000	1,8613774E+000	-1,540665039033805E-002	1,000000000000000E+000	-3,2721795E-004	41	-2,8677590E-005
2	0	0	1	0	1,908605059630582E+005	1,8419908E+000	1,8414025E+000	-1,690062687600772E-002	1,000000000000000E+000	-6,9607055E-004	41	-3,1120857E-005
2	0	0	1	0	1,908827191665342E+005	1,8219991E+000	1,8214054E+000	-1,846226526941136E-002	1,000000000000000E+000	-1,0986989E-003	41	-3,3627271E-005
2	0	0	1	0	1,909049322700109E+005	1,8020071E+000	1,8014119E+000	-1,992585167144648E-002	1,000000000000000E+000	-1,5348103E-003	41	-3,5894667E-005
2	0	0	1	0	1,909271454734840E+005	1,7820154E+000	1,7814391E+000	-2,142739101108657E-002	1,000000000000000E+000	-2,0038087E-003	41	-3,8171591E-005
2	0	0	1	0	1,909493586769608E+005	1,7620236E+000	1,7614547E+000	-2,299294540406632E-002	1,000000000000000E+000	-2,5065779E-003	41	-4,0501032E-005
2	0	0	1	0	1,909715717804371E+005	1,7420318E+000	1,7414669E+000	-2,454611706354404E-002	1,000000000000000E+000	-3,0438779E-003	41	-4,2746251E-005
2	0	0	1	0	1,909937848839101E+005	1,7220399E+000	1,7214967E+000	-2,617112407440550E-002	1,000000000000000E+000	-3,6163083E-003	41	-4,5053504E-005
2	0	0	1	0	1,910159980873876E+005	1,7020481E+000	1,7015013E+000	-2,799754660189274E-002	1,000000000000000E+000	-4,2268466E-003	41	-4,7637859E-005
2	0	0	1	0	1,910382112908629E+005	1,6820562E+000	1,6814955E+000	-3,053798114965137E-002	1,000000000000000E+000	-4,8849327E-003	41	-5,1349478E-005
2	0	0	1	0	1,910604244943373E+005	1,6620642E+000	1,6614870E+000	-3,428688873803565E-002	1,000000000000000E+000	-5,6113210E-003	41	-5,6967219E-005
2	0	0	1	0	1,910826376978147E+005	1,6420724E+000	1,6415265E+000	-3,991248234570366E-002	1,000000000000000E+000	-6,4413710E-003	41	-6,5517394E-005
2	0	0	1	0	1,911048508012895E+005	1,6220809E+000	1,6215105E+000	-4,807609512704036E-002	1,000000000000000E+000	-7,4234637E-003	41	-7,7955890E-005
2	0	0	1	0	1,911270640047644E+005	1,6020889E+000	1,6015662E+000	-5,921804946197301E-002	1,000000000000000E+000	-8,6188894E-003	41	-9,4841627E-005
2	0	0	1	0	1,911492771082418E+005	1,5820969E+000	1,5815824E+000	-7,415697151311174E-002	1,000000000000000E+000	-1,0102687E-002	41	-1,1728537E-004
2	0	0	1	0	1,911714903117153E+005	1,5621049E+000	1,5616186E+000	-9,490405824762532E-002	1,000000000000000E+000	-1,1976642E-002	41	-1,4820394E-004
2	0	0	1	0	1,911937035151910E+005	1,5421131E+000	1,5415329E+000	-1,309526923287572E-001	1,000000000000000E+000	-1,4450552E-002	40	-2,0186788E-004
2	0	0	1	0	1,912159167186678E+005	1,5221212E+000	1,5215631E+000	-2,203788163169686E-001	1,000000000000000E+000	-1,8237583E-002	40	-3,3532028E-004
2	0	0	1	0	1,912381298221415E+005	1,5021297E+000	1,5015848E+000	-3,248569000432759E-001	1,000000000000000E+000	-2,4360679E-002	40	-4,8780016E-004
2	0	0	1	0	1,912603430256182E+005	1,4821379E+000	1,4816117E+000	-3,937897792610077E-001	1,000000000000000E+000	-3,2421879E-002	40	-5,8344356E-004
2	0	0	1	0	1,912825561290937E+005	1,4621459E+000	1,4616053E+000	-4,284014051333522E-001	1,000000000000000E+000	-4,1623514E-002	40	-6,2615378E-004
2	0	0	1	0	1,913047693325675E+005	1,4421540E+000	1,4416341E+000	-4,367901461312895E-001	1,000000000000000E+000	-5,1284764E-002	40	-6,2969152E-004
2	0	0	1	0	1,913269825360448E+005	1,4221622E+000	1,4216368E+000	-4,282371866146208E-001	1,000000000000000E+000	-6,0926311E-002	40	-6,0879777E-004
2	0	0	1	0	1,913491957395198E+005	1,4021703E+000	1,4016523E+000	-4,103138602746386E-001	1,000000000000000E+000	-7,0260994E-002	40	-5,7511736E-004
2	0	0	1	0	1,913714089429949E+005	1,3821783E+000	1,3816147E+000	-3,885659028648480E-001	1,000000000000000E+000	-7,9146996E-002	40	-5,3684838E-004
2	0	0	1	0	1,913936220464720E+005	1,3621867E+000	1,3616366E+000	-3,657847027235086E-001	1,000000000000000E+000	-8,7534621E-002	40	-4,9806584E-004
2	0	0	1	0	1,914158351499462E+005	1,3421948E+000	1,3415948E+000	-3,436943376201249E-001	1,000000000000000E+000	-9,5421806E-002	40	-4,6109853E-004
2	0	0	1	0	1,914380483534219E+005	1,3222030E+000	1,3216053E+000	-3,229690289354457E-001	1,000000000000000E+000	-1,0283259E-001	40	-4,2683759E-004
2	0	0	1	0	1,914602615568992E+005	1,3022112E+000	1,3016173E+000	-3,039156661700977E-001	1,000000000000000E+000	-1,0980105E-001	40	-3,9558188E-004
2	0	0	1	0	1,914824747603722E+005	1,2822193E+000	1,2816199E+000	-2,865106888981979E-001	1,000000000000000E+000	-1,1636424E-001	40	-3,6719779E-004
2	0	0	1	0	1,915046879638486E+005	1,2622275E+000	1,2616501E+000	-2,705556242791030E-001	1,000000000000000E+000	-1,2255758E-001	40	-3,4134652E-004
2	0	0	1	0	1,915269010673254E+005	1,2422355E+000	1,2416236E+000	-2,561851598771785E-001	1,000000000000000E+000	-1,2841363E-001	40	-3,1808554E-004
2	0	0	1	0	1,915491141707981E+005	1,2222437E+000	1,2216487E+000	-2,430518249524769E-001	1,000000000000000E+000	-1,3396397E-001	40	-2,9692394E-004
2	0	0	1	0	1,915713273742752E+005	1,2022518E+000	1,2016424E+000	-2,310774346375071E-001	1,000000000000000E+000	-1,3923608E-001	40	-2,7767243E-004
2	0	0	1	0	1,915935405777511E+005	1,1822600E+000	1,1816807E+000	-2,202465282739690E-001	1,000000000000000E+000	-1,4425480E-001	40	-2,6026106E-004
2	0	0	1	0	1,916157537812248E+005	1,1622680E+000	1,1616483E+000	-2,104282745150097E-001	1,000000000000000E+000	-1,4904360E-001	40	-2,4444365E-004
2	0	0	1	0	1,916379668847017E+005	1,1422764E+000	1,1416646E+000	-2,015384081152471E-001	1,000000000000000E+000	-1,5362389E-001	40	-2,3008927E-004
2	0	0	1	0	1,916601799881770E+005	1,1222847E+000	1,1216553E+000	-1,934901164696079E-001	1,000000000000000E+000	-1,5801603E-001	40	-2,1702923E-004
2	0	0	1	0	1,916823931916519E+005	1,1022928E+000	1,1016937E+000	-1,864102143055950E-001	1,000000000000000E+000	-1,6223991E-001	40	-2,0536697E-004
2	0	0	1	0	1,917046063951289E+005	1,0823009E+000	1,0816823E+000	-1,800894506848785E-001	1,000000000000000E+000	-1,6631468E-001	40	-1,9479958E-004
2	0	0	1	0	1,917268195986035E+005	1,0623090E+000	1,0617075E+000	-1,746087955680073E-001	1,000000000000000E+000	-1,7025833E-001	40	-1,8538347E-004
2	0	0	1	0	1,917490327020790E+005	1,0423172E+000	1,0417211E+000	-1,698995081428004E-001	1,000000000000000E+000	-1,7408852E-001	40	-1,7698790E-004
2	0	0	1	0	1,917712458055560E+005	1,0223254E+000	1,0217199E+000	-1,661002541799381E-001	1,000000000000000E+000	-1,7782387E-001	40	-1,6970794E-004
2	0	0	1	0	1,917934590090294E+005	1,0023335E+000	1,0017239E+000	-1,631271179226719E-001	1,000000000000000E+000	-1,8148400E-001	40	-1,6340833E-004
2	0	0	1	0	1,918144512123150E+005	1,0165278E+000	1,0159322E+000	-1,332862558696091E-001	1,000000000000000E+000	-1,8455908E-001	40	-1,3540981E-004
2	0	0	1	0	1,918366643157904E+005	1,0365196E+000	1,0358945E+000	-1,155690086854537E-001	1,000000000000000E+000	-1,8730570E-001	40	-1,1971730E-004
2	0	0	1	0	1,918588775192648E+005	1,0565114E+000	1,0559111E+000	-1,023572692598100E-001	1,000000000000000E+000	-1,8971513E-001	40	-1,0808017E-004
2	0	0	1	0	1,918810906227422E+005	1,0765032E+000	1,0759059E+000	-9,175087333465870E-002	1,000000000000000E+000	-1,9186276E-001	40	-9,8715311E-005
2	0	0	1	0	1,919033038262166E+005	1,0964952E+000	1,0958991E+000	-8,290348628184385E-002	1,000000000000000E+000	-1,9379532E-001	40	-9,0853857E-005
2	0	0	1	0	1,919255170296917E+005	1,1164869E+000	1,1158755E+000	-7,528374666036730E-002	1,000000000000000E+000	-1,9554572E-001	40	-8,4007290E-005
2	0	0	1	0	1,919477302331692E+005	1,1364787E+000	1,1358601E+000	-6,863588733425940E-002	1,000000000000000E+000	-1,9713809E-001	40	-7,7960765E-005
2	0	0	1	0	1,919699434366426E+005	1,1564707E+000	1,1558566E+000	-6,269964130884675E-002	1,000000000000000E+000	-1,9859114E-001	40	-7,2471797E-005
2	0	0	1	0	1,919921565401184E+005	1,1764624E+000	1,1758437E+000	-5,737048709017928E-002	1,000000000000000E+000	-1,9991902E-001	40	-6,7458728E-005
2	0	0	1	0	1,920143696435951E+005	1,1964542E+000	1,1958241E+000	-5,244151028216604E-002	1,000000000000000E+000	-2,0113325E-001	40	-6,2710824E-005
2	0	0	1	0	1,920365828470686E+005	1,2164460E+000	1,2158506E+000	-4,786836573653042E-002	1,000000000000000E+000	-2,0224309E-001	41	-5,8200781E-005
2	0	0	1	0	1,920587960505455E+005	1,2364380E+000	1,2358422E+000	-4,369018283432363E-002	1,000000000000000E+000	-2,0325562E-001	41	-5,3994172E-005
2	0	0	1	0	1,920810092540211E+005	1,2564298E+000	1,2558279E+000	-3,984581003148419E-002	1,000000000000000E+000	-2,0417909E-001	41	-5,0039482E-005
2	0	0	1	0	1,921032223574950E+005	1,2764217E+000	1,2758274E+000	-3,621394220160204E-002	1,000000000000000E+000	-2,0501907E-001	41	-4,6202738E-005
2	0	0	1	0	1,921254354609721E+005	1,2964134E+000	1,2958342E+000	-3,274948685397205E-002	1,000000000000000E+000	-2,0578034E-001	41	-4,2437903E-005
2	0	0	1	0	1,921476486644470E+005	1,3164052E+000	1,3158224E+000	-2,945270604150407E-002	1,000000000000000E+000	-2,0646667E-001	41	-3,8754530E-005
2	0	0	1	0	1,921698618679224E+005	1,3363971E+000	1,3357904E+000	-2,627418250493624E-002	1,000000000000000E+000	-2,0708111E-001	41	-3,5096800E-005
2	0	0	1	0	1,921920751713994E+005	1,3563889E+000	1,3557794E+000	-2,314623968617802E-002	1,000000000000000E+000	-2,0762548E-001	41	-3,1381194E-005
2	0	0	1	0	1,922142883748738E+005	1,3763808E+000	1,3758090E+000	-2,001624782840136E-002	1,000000000000000E+000	-2,0810047E-001	41	-2,7538534E-005
2	0	0	1	0	1,922365014783492E+005	1,3963727E+000	1,3957452E+000	-1,684809900219869E-002	1,000000000000000E+000	-2,0850581E-001	41	-2,3515653E-005
2	0	0	1	0	1,922587146818265E+005	1,4163647E+000	1,4157516E+000	-1,357285632531244E-002	1,000000000000000E+000	-2,0883979E-001	41	-1,9215793E-005
2	0	0	1	0	1,922809278852995E+005	1,4363565E+000	1,4357334E+000	-1,004615197553288E-002	1,000000000000000E+000	-2,0909832E-001	41	-1,4423596E-005
2	0	0	1	0	1,923031409887759E+005	1,4563483E+000	1,4557407E+000	-6,221986790762919E-003	1,000000000000000E+000	-2,0927556E-001	41	-9,0575995E-006
2	0	0	1	0	1,923253540922524E+005	1,4763399E+000	1,4757378E+000	-1,907949028167460E-003	1,000000000000000E+000	-2,0936246E-001	42	-2,8156326E-006
2	1	0	1	0	1,923475672957255E+005	1,4963318E+000	1,4957107E+000	3,115976917060344E-003	1,000000000000000E+000	-2,0934683E-001	42	4,6606001E-006
2	1	0	1	0	1,923697804992025E+005	1,5163236E+000	1,5156337E+000	9,487225983820152E-003	1,000000000000000E+000	-2,0920648E-001	42	1,4379159E-005
2	1	0	1	0	1,923919938026788E+005	1,5363154E+000	1,5356770E+000	1,826514413183555E-002	1,000000000000000E+000	-2,0889907E-001	41	2,8049360E-005
2	1	0	1	0	1,924142070061523E+005	1,5563077E+000	1,5556661E+000	3,099416155167745E-002	1,000000000000000E+000	-2,0835701E-001	41	4,8216567E-005
2	1	0	1	0	1,924364201096290E+005	1,5762993E+000	1,5756207E+000	5,034511663549746E-002	1,000000000000000E+000	-2,0746675E-001	41	7,9324804E-005
2	1	0	1	0	1,924586333131045E+005	1,5962913E+000	1,5956715E+000	1,049476221302801E-001	1,000000000000000E+000	-2,0585310E-001	40	1,6746193E-004
2	1	0	1	0	1,924808465165792E+005	1,6162831E+000	1,6156442E+000	1,932661746839246E-001	1,000000000000000E+000	-2,0254992E-001	40	3,1224938E-004
2	1	0	1	0	1,925030596200563E+005	1,6362749E+000	1,6356287E+000	2,892317874905297E-001	1,000000000000000E+000	-1,9720182E-001	40	4,7307581E-004
2	1	0	1	0	1,925252728235312E+005	1,6562667E+000	1,6555907E+000	3,995758014932750E-001	1,000000000000000E+000	-1,8957859E-001	40	6,6153397E-004
2	1	0	1	0	1,925474859270063E+005	1,6762584E+000	1,6755614E+000	5,346975829230658E-001	1,000000000000000E+000	-1,7924953E-001	40	8,9591864E-004
2	1	0	1	0	1,925696992304833E+005	1,6962504E+000	1,6955481E+000	7,056134909138745E-001	1,000000000000000E+000	-1,6553394E-001	40	1,1964015E-003
2	1	0	1	0	1,925919125339570E+005	1,7162422E+000	1,7155373E+000	9,128841358111703E-001	1,000000000000000E+000	-1,4760245E-001	40	1,5660868E-003
2	1	0	1	0	1,926141257374330E+005	1,7362339E+000	1,7356381E+000	1,134286154518894E+000	1,000000000000000E+000	-1,2483455E-001	39	1,9687102E-003
2	1	0	1	0	1,926363389409096E+005	1,7562261E+000	1,7556387E+000	1,299051062473978E+000	1,000000000000000E+000	-9,7575665E-002	39	2,2806644E-003
2	1	0	1	0	1,926585520443833E+005	1,7762178E+000	1,7755945E+000	1,251814659942752E+000	1,000000000000000E+000	-6,8660818E-002	39	2,2227152E-003
2	1	0	1	0	1,926807651478597E+005	1,7962095E+000	1,7956321E+000	8,903734685728237E-001	1,000000000000000E+000	-4,4399425E-002	39	1,5987832E-003
2	1	0	1	0	1,927029783513360E+005	1,8162013E+000	1,8155428E+000	4,496035930439763E-001	1,000000000000000E+000	-2,9688837E-002	40	8,1627455E-004
2	1	0	1	0	1,927251915548090E+005	1,8361931E+000	1,8355809E+000	2,004379821573679E-001	1,000000000000000E+000	-2,2908097E-002	40	3,6792015E-004
2	1	0	1	0	1,927474046582864E+005	1,8561852E+000	1,8555527E+000	1,198170222520256E-001	1,000000000000000E+000	-1,9507449E-002	40	2,2232679E-004
2	1	0	1	0	1,927696178617622E+005	1,8761770E+000	1,8755499E+000	8,799170323584615E-002	1,000000000000000E+000	-1,7228557E-002	40	1,6503283E-004
2	1	0	1	0	1,927918311652360E+005	1,8961689E+000	1,8955272E+000	7,025007755465873E-002	1,000000000000000E+000	-1,5475917E-002	40	1,3316094E-004
2	1	0	1	0	1,928140443687134E+005	1,9161608E+000	1,9155685E+000	5,943483402910915E-002	1,000000000000000E+000	-1,4033996E-002	40	1,1385149E-004
2	1	0	1	0	1,928362575721885E+005	1,9361527E+000	1,9355340E+000	5,210533964103137E-002	1,000000000000000E+000	-1,2787396E-002	40	1,0085166E-004
2	1	0	1	0	1,928585817756797E+005	1,9562443E+000	1,9555933E+000	4,607983495010104E-002	1,000000000000000E+000	-1,1682836E-002	41	9,0113419E-005
2	1	0	1	0	1,928807949791568E+005	1,9762360E+000	1,9756042E+000	4,137062521775714E-002	1,000000000000000E+000	-1,0702480E-002	41	8,1731981E-005
2	1	0	1	0	1,929030080826329E+005	1,9962281E+000	1,9956318E+000	3,746777796407061E-002	1,000000000000000E+000	-9,8165497E-003	41	7,4771888E-005
2	1	0	1	0	1,929252213861067E+005	2,0162196E+000	2,0155962E+000	3,357851102722054E-002	1,000000000000000E+000	-9,0158703E-003	41	6,7680718E-005
2	1	0	1	0	1,929474344895843E+005	2,0362120E+000	2,0356064E+000	2,999271791309024E-002	1,000000000000000E+000	-8,3002392E-003	41	6,1053368E-005
2	1	0	1	0	1,929696476930589E+005	2,0562036E+000	2,0555556E+000	2,729127213381924E-002	1,000000000000000E+000	-7,6539097E-003	41	5,6098728E-005
2	1	0	1	0	1,929918608965338E+005	2,0761955E+000	2,0755756E+000	2,490427699564880E-002	1,000000000000000E+000	-7,0631239E-003	41	5,1690709E-005
2	1	0	1	0	1,930140741000115E+005	2,0961874E+000	2,0955644E+000	2,264888477214272E-002	1,000000000000000E+000	-6,5256204E-003	41	4,7462196E-005
2	1	0	1	0	1,930362872034847E+005	2,1161788E+000	2,1155772E+000	2,120521538088049E-002	1,000000000000000E+000	-6,0289190E-003	41	4,4861270E-005
2	1	0	1	0	1,930585004069604E+005	2,1361706E+000	2,1355565E+000	2,014906941135525E-002	1,000000000000000E+000	-5,5586798E-003	41	4,3029475E-005
2	1	0	1	0	1,930807136104372E+005	2,1561625E+000	2,1555691E+000	1,919636064970764E-002	1,000000000000000E+000	-5,1107104E-003	41	4,1379080E-005
2	1	0	1	0	1,931029268139107E+005	2,1761546E+000	2,1755445E+000	1,825196014898245E-002	1,000000000000000E+000	-4,6837842E-003	41	3,9707953E-005
2	1	0	1	0	1,931251400173871E+005	2,1961462E+000	2,1955378E+000	1,714155781475663E-002	1,000000000000000E+000	-4,2797555E-003	41	3,7634938E-005
2	1	0	1	0	1,931473532208633E+005	2,2161386E+000	2,2155337E+000	1,626379716056475E-002	1,000000000000000E+000	-3,8989782E-003	41	3,6032990E-005
2	1	0	1	0	1,931695663243369E+005	2,2361302E+000	2,2355249E+000	1,557257015453426E-002	1,000000000000000E+000	-3,5344556E-003	41	3,4812867E-005
2	1	0	1	0	1,931917795278142E+005	2,2561221E+000	2,2554874E+000	1,475264764643262E-002	1,000000000000000E+000	-3,1871267E-003	41	3,3274413E-005
2	1	0	1	0	1,932139927312895E+005	2,2761137E+000	2,2754996E+000	1,427669076912697E-002	1,000000000000000E+000	-2,8541882E-003	41	3,2486605E-005
2	1	0	1	0	1,932362059347641E+005	2,2961054E+000	2,2954848E+000	1,396929391099231E-002	1,000000000000000E+000	-2,5295177E-003	41	3,2066302E-005
2	1	0	1	0	1,932584190382413E+005	2,3160970E+000	2,3154933E+000	1,370223026790268E-002	1,000000000000000E+000	-2,2116415E-003	41	3,1727424E-005
2	1	0	1	0	1,932806322417157E+005	2,3360891E+000	2,3355074E+000	1,345183886889851E-002	1,000000000000000E+000	-1,8996128E-003	41	3,1416868E-005
2	1	0	1	0	1,933028454451910E+005	2,3560810E+000	2,3554728E+000	1,322745758887728E-002	1,000000000000000E+000	-1,5927632E-003	41	3,1156917E-005
2	1	0	1	0	1,933250586486685E+005	2,3760729E+000	2,3754935E+000	1,302554773980688E-002	1,000000000000000E+000	-1,2901763E-003	41	3,0942105E-005
2	1	0	1	0	1,933472718521417E+005	2,3960648E+000	2,3954747E+000	1,291714215412237E-002	1,000000000000000E+000	-9,9118100E-004	41	3,0942687E-005
2	1	0	1	0	1,933694850556179E+005	2,4160569E+000	2,4154782E+000	1,277843798655043E-002	1,000000000000000E+000	-6,9532823E-004	41	3,0866038E-005
2	1	0	1	0	1,933916982590947E+005	2,4360483E+000	2,4354784E+000	1,265780574476402E-002	1,000000000000000E+000	-4,0215821E-004	41	3,0827814E-005
2	1	0	1	0	1,934139113625679E+005	2,4560401E+000	2,4554489E+000	1,256666289921779E-002	1,000000000000000E+000	-1,1116348E-004	41	3,0856798E-005
2	1	0	1	0	1,934361245660446E+005	2,4760320E+000	2,4754376E+000	1,252490167006279E-002	1,000000000000000E+000	1,7798707E-004	41	3,1004613E-005
2	1	0	1	0	1,934583376695206E+005	2,4960237E+000	2,4954419E+000	1,248910494904795E-002	1,000000000000000E+000	4,6608929E-004	41	3,1165837E-005
2	1	0	1	0	1,934805508729937E+005	2,5160158E+000	2,5154288E+000	1,247428414334323E-002	1,000000000000000E+000	7,5382885E-004	41	3,1378175E-005
2	1	0	1	0	1,935027640764712E+005	2,5360076E+000	2,5354483E+000	1,251109705811489E-002	1,000000000000000E+000	1,0415551E-003	41	3,1721240E-005
2	1	0	1	0	1,935249772799467E+005	2,5559995E+000	2,5554323E+000	1,251849898158575E-002	1,000000000000000E+000	1,3299461E-003	41	3,1990177E-005
2	1	0	1	0	1,935471904834211E+005	2,5759914E+000	2,5754220E+000	1,262214956130788E-002	1,000000000000000E+000	1,6197317E-003	41	3,2507363E-005
2	1	0	1	0	1,935694036868981E+005	2,5959833E+000	2,5953903E+000	1,274433691998461E-002	1,000000000000000E+000	1,9116646E-003	41	3,3076529E-005
2	1	0	1	0	1,935916169903735E+005	2,6159751E+000	2,6154118E+000	1,287392756459413E-002	1,000000000000000E+000	2,2064599E-003	41	3,3670622E-005
2	1	0	1	0	1,936138300938483E+005	2,6359668E+000	2,6353903E+000	1,307773511552157E-002	1,000000000000000E+000	2,5049376E-003	41	3,4464934E-005
2	1	0	1	0	1,936360432973253E+005	2,6559584E+000	2,6553793E+000	1,326422811344857E-002	1,000000000000000E+000	2,8079553E-003	41	3,5221557E-005
2	1	0	1	0	1,936582564007994E+005	2,6759508E+000	2,6753693E+000	1,357232753440193E-002	1,000000000000000E+000	3,1162282E-003	41	3,6310987E-005
2	1	0	1	0	1,936804695042751E+005	2,6959424E+000	2,6953838E+000	1,386763197846139E-002	1,000000000000000E+000	3,4309481E-003	41	3,7378592E-005
2	1	0	1	1	1,937011281075063E+005	2,6854470E+000	2,6848521E+000	7,626091438565394E-003	1,000000000000000E+000	3,6399157E-003	41	2,0474929E-005
2	1	0	1	1	1,937233413109835E+005	2,6654549E+000	2,6648397E+000	4,979184846327232E-003	1,000000000000000E+000	3,7672850E-003	42	1,3268730E-005
2	1	0	1	1	1,937455545144584E+005	2,6454628E+000	2,6448445E+000	3,442378225423173E-003	1,000000000000000E+000	3,8504405E-003	42	9,1045549E-006
2	1	0	1	1	1,937677677179337E+005	2,6254711E+000	2,6248736E+000	2,376039463617946E-003	1,000000000000000E+000	3,9051848E-003	42	6,2368035E-006
2	1	0	1	1	1,937899809214107E+005	2,6054790E+000	2,6048863E+000	1,538689774165256E-003	1,000000000000000E+000	3,9393436E-003	42	4,0081118E-006
2	1	0	1	1	1,938121941248844E+005	2,5854874E+000	2,5848892E+000	8,950765812303467E-004	1,000000000000000E+000	3,9573577E-003	42	2,3136738E-006
2	1	0	1	1	1,938344072283604E+005	2,5654960E+000	2,5649159E+000	3,294357448542857E-004	1,000000000000000E+000	3,9622318E-003	42	8,4497498E-007
2	1	0	1	1	1,938566204318376E+005	2,5455036E+000	2,5449462E+000	-1,146824234755733E-004	1,000000000000000E+000	3,9558234E-003	42	-2,9186060E-007
2	0	0	1	1	1,938788336353106E+005	2,5255120E+000	2,5249419E+000	-5,609946322710155E-004	1,000000000000000E+000	3,9393855E-003	42	-1,4164789E-006
2	0	0	1	1	1,939010466387871E+005	2,5055199E+000	2,5049543E+000	-9,394616494306091E-004	1,000000000000000E+000	3,9138193E-003	42	-2,3533084E-006
2	0	0	1	1	1,939232598422635E+005	2,4855285E+000	2,4849474E+000	-1,301222538517784E-003	1,000000000000000E+000	3,8798612E-003	42	-3,2334697E-006
2	0	0	1	1	1,939454730457366E+005	2,4655366E+000	2,4650004E+000	-1,663957125634268E-003	1,000000000000000E+000	3,8382232E-003	42	-4,1016551E-006
2	0	0	1	1	1,939676862492138E+005	2,4455447E+000	2,4450085E+000	-1,969505944131297E-003	1,000000000000000E+000	3,7892342E-003	42	-4,8154589E-006
2	0	0	1	1	1,939898994526896E+005	2,4255528E+000	2,4250281E+000	-2,277329383886768E-003	1,000000000000000E+000	3,7334752E-003	42	-5,5225878E-006
2	0	0	1	1	1,940121124561636E+005	2,4055610E+000	2,4050565E+000	-2,552230664193533E-003	1,000000000000000E+000	3,6711837E-003	42	-6,1382589E-006
2	0	0	1	1	1,940343256596406E+005	2,3855693E+000	2,3850417E+000	-2,823681342933283E-003	1,000000000000000E+000	3,6026738E-003	42	-6,7345977E-006
2	0	0	1	1	1,940565386631158E+005	2,3655772E+000	2,3650417E+000	-3,095198401165554E-003	1,000000000000000E+000	3,5283829E-003	42	-7,3202732E-006
2	0	0	1	1	1,940787518665908E+005	2,3455856E+000	2,3450718E+000	-3,343950513479554E-003	1,000000000000000E+000	3,4482828E-003	42	-7,8418043E-006
2	0	0	1	1	1,941009650700679E+005	2,3255937E+000	2,3250597E+000	-3,597706388600554E-003	1,000000000000000E+000	3,3625287E-003	42	-8,3648820E-006
2	0	0	1	1	1,941231781735416E+005	2,3056018E+000	2,3050840E+000	-3,880166641734361E-003	1,000000000000000E+000	3,2711180E-003	42	-8,9441100E-006
2	0	0	1	1	1,941453913770175E+005	2,2856100E+000	2,2850769E+000	-4,144392710594677E-003	1,000000000000000E+000	3,1738246E-003	42	-9,4702555E-006
2	0	0	1	1	1,941676045804941E+005	2,2656183E+000	2,2650998E+000	-4,387854276619030E-003	1,000000000000000E+000	3,0706020E-003	42	-9,9389281E-006
2	0	0	1	1	1,941898177839676E+005	2,2456262E+000	2,2450974E+000	-4,701520674198288E-003	1,000000000000000E+000	2,9612384E-003	42	-1,0555372E-005
2	0	0	1	1	1,942120308874442E+005	2,2256343E+000	2,2251184E+000	-4,965486263650509E-003	1,000000000000000E+000	2,8455174E-003	42	-1,1048794E-005
2	0	0	1	1	1,942342440909203E+005	2,2056425E+000	2,2051339E+000	-5,283184502404448E-003	1,000000000000000E+000	2,7232107E-003	42	-1,1650130E-005
2	0	0	1	1	1,942564570943937E+005	2,1856508E+000	2,1851478E+000	-5,607756403844880E-003	1,000000000000000E+000	2,5937902E-003	42	-1,2253777E-005
2	0	0	1	1	1,942786702978709E+005	2,1656590E+000	2,1651406E+000	-5,954502336151024E-003	1,000000000000000E+000	2,4570478E-003	42	-1,2892335E-005
2	0	0	1	1	1,943008835013467E+005	2,1456671E+000	2,1451635E+000	-6,297524761494325E-003	1,000000000000000E+000	2,3125180E-003	42	-1,3509220E-005
2	0	0	1	1	1,943230967048209E+005	2,1256754E+000	2,1251755E+000	-6,678959281406244E-003	1,000000000000000E+000	2,1598160E-003	42	-1,4193961E-005
2	0	0	1	1	1,943453098082978E+005	2,1056833E+000	2,1052086E+000	-7,083111260063266E-003	1,000000000000000E+000	1,9984995E-003	42	-1,4911427E-005
2	0	0	1	1	1,943675230117729E+005	2,0856915E+000	2,0851853E+000	-7,532639941454720E-003	1,000000000000000E+000	1,8280145E-003	42	-1,5706950E-005
2	0	0	1	1	1,943897361152477E+005	2,0656998E+000	2,0652041E+000	-7,963940501826729E-003	1,000000000000000E+000	1,6478994E-003	42	-1,6447162E-005
2	0	0	1	1	1,944119492187253E+005	2,0457077E+000	2,0451989E+000	-8,451756069952738E-003	1,000000000000000E+000	1,4575236E-003	42	-1,7285522E-005
2	0	0	1	1	1,944341624221988E+005	2,0257158E+000	2,0251412E+000	-8,915630528768786E-003	1,000000000000000E+000	1,2559851E-003	41	-1,8055411E-005
2	0	0	1	1	1,944563756256744E+005	2,0057240E+000	2,0051382E+000	-9,480566703894546E-003	1,000000000000000E+000	1,0420230E-003	41	-1,9009845E-005
2	0	0	1	1	1,944785888291514E+005	1,9857323E+000	1,9851227E+000	-1,012272771913968E-002	1,000000000000000E+000	8,1477506E-004	41	-2,0094856E-005
2	0	0	1	1	1,945008019326250E+005	1,9657406E+000	1,9651438E+000	-1,084206559302095E-002	1,000000000000000E+000	5,7241577E-004	41	-2,1306218E-005
2	0	0	1	1	1,945230151361011E+005	1,9457488E+000	1,9451507E+000	-1,163812394626604E-002	1,000000000000000E+000	3,1309776E-004	41	-2,2637905E-005
2	0	0	1	1	1,945452283395776E+005	1,9257569E+000	1,9251785E+000	-1,255518039975859E-002	1,000000000000000E+000	3,4818371E-005	41	-2,4170964E-005
2	0	0	1	1	1,945674414430507E+005	1,9057648E+000	1,9051690E+000	-1,350682617828082E-002	1,000000000000000E+000	-2,6439966E-004	41	-2,5732787E-005
2	0	0	1	1	1,945896546465277E+005	1,8857729E+000	1,8851961E+000	-1,456856196804449E-002	1,000000000000000E+000	-5,8608688E-004	41	-2,7464595E-005
2	0	0	1	1	1,946106460498110E+005	1,8668808E+000	1,8662552E+000	-1,566705464749756E-002	2,000000000000000E+000	-9,1256388E-004	41	-2,9238721E-005
2	0	0	1	1	1,946328592532878E+005	1,8468889E+000	1,8463258E+000	-1,692350990798661E-002	2,000000000000000E+000	-1,2839143E-003	41	-3,1246313E-005
2	0	0	1	1	1,946550724567641E+005	1,8268970E+000	1,8263240E+000	-1,829576768601204E-002	2,000000000000000E+000	-1,6847695E-003	41	-3,3413999E-005
2	0	0	1	1	1,946772856602371E+005	1,8069052E+000	1,8063083E+000	-1,965463527504605E-002	2,000000000000000E+000	-2,1163963E-003	41	-3,5502329E-005
2	0	0	1	1	1,946994987637145E+005	1,7869134E+000	1,7863297E+000	-2,106528907384708E-002	2,000000000000000E+000	-2,5787100E-003	41	-3,7629554E-005
2	0	0	1	1	1,947217118671900E+005	1,7669215E+000	1,7663484E+000	-2,255540039870002E-002	2,000000000000000E+000	-3,0733000E-003	41	-3,9840696E-005
2	0	0	1	1	1,947439250706637E+005	1,7469296E+000	1,7463689E+000	-2,408583416930896E-002	2,000000000000000E+000	-3,6012204E-003	41	-4,2062751E-005
2	0	0	1	1	1,947661382741411E+005	1,7269378E+000	1,7263744E+000	-2,562695162162471E-002	2,000000000000000E+000	-4,1633691E-003	41	-4,4241711E-005
2	0	0	1	1	1,947883513776166E+005	1,7069461E+000	1,7063879E+000	-2,737414980516961E-002	2,000000000000000E+000	-4,7614384E-003	41	-4,6710917E-005
2	0	0	1	1	1,948105645810915E+005	1,6869544E+000	1,6864107E+000	-2,973283668399831E-002	2,000000000000000E+000	-5,4040174E-003	41	-5,0141774E-005
2	0	0	1	1	1,948327777845685E+005	1,6669625E+000	1,6663755E+000	-3,317609118544607E-002	2,000000000000000E+000	-6,1095194E-003	41	-5,5283825E-005
2	0	0	1	1	1,948549909880427E+005	1,6469707E+000	1,6463825E+000	-3,830765853342910E-002	2,000000000000000E+000	-6,9096065E-003	41	-6,3069056E-005
2	0	0	1	1	1,948772040915182E+005	1,6269786E+000	1,6264187E+000	-4,584327694741561E-002	2,000000000000000E+000	-7,8493217E-003	41	-7,4560361E-005
2	0	0	1	1	1,948994172949949E+005	1,6069868E+000	1,6064550E+000	-5,624593158381475E-002	2,000000000000000E+000	-8,9870179E-003	41	-9,0356560E-005
2	0	0	1	1	1,949216304984684E+005	1,5869950E+000	1,5864526E+000	-7,023971213642133E-002	2,000000000000000E+000	-1,0395372E-002	41	-1,1143197E-004
2	0	0	1	1	1,949438437019449E+005	1,5670031E+000	1,5665110E+000	-8,920430320700268E-002	2,000000000000000E+000	-1,2165066E-002	41	-1,3973952E-004
2	0	0	1	1	1,949660569054210E+005	1,5470113E+000	1,5464350E+000	-1,198580862307501E-001	2,000000000000000E+000	-1,4466670E-002	40	-1,8535274E-004
2	0	0	1	1	1,949882699088943E+005	1,5270195E+000	1,5264554E+000	-1,940755108346895E-001	2,000000000000000E+000	-1,7830387E-002	40	-2,9624760E-004
2	0	0	1	1	1,950104831123715E+005	1,5070276E+000	1,5064780E+000	-3,047825679613101E-001	2,000000000000000E+000	-2,3415672E-002	40	-4,5914823E-004
2	0	0	1	1	1,950326963158469E+005	1,4870358E+000	1,4865063E+000	-3,828474447114756E-001	2,000000000000000E+000	-3,1136982E-002	40	-5,6910515E-004
2	0	0	1	1	1,950549095193213E+005	1,4670438E+000	1,4665231E+000	-4,246334918247872E-001	2,000000000000000E+000	-4,0177990E-002	40	-6,2273478E-004
2	0	0	1	1	1,950771226227984E+005	1,4470522E+000	1,4465287E+000	-4,374652720638395E-001	2,000000000000000E+000	-4,9809027E-002	40	-6,3280604E-004
2	0	0	1	1	1,950993358262735E+005	1,4270602E+000	1,4265296E+000	-4,312479814374899E-001	2,000000000000000E+000	-5,9493862E-002	40	-6,1518804E-004
2	0	0	1	1	1,951215490297487E+005	1,4070684E+000	1,4065497E+000	-4,144264562670053E-001	2,000000000000000E+000	-6,8909787E-002	40	-5,8291142E-004
2	0	0	1	1	1,951437621332256E+005	1,3870765E+000	1,3865658E+000	-3,927383715867189E-001	2,000000000000000E+000	-7,7889629E-002	40	-5,4455758E-004
2	0	0	1	1	1,951659753366997E+005	1,3670846E+000	1,3665414E+000	-3,698267211005106E-001	2,000000000000000E+000	-8,6370014E-002	40	-5,0538353E-004
2	0	0	1	1	1,951881885401751E+005	1,3470926E+000	1,3465507E+000	-3,473204318155099E-001	2,000000000000000E+000	-9,4342969E-002	40	-4,6768459E-004
2	0	0	1	1	1,952104017436523E+005	1,3271009E+000	1,3265685E+000	-3,261121814968826E-001	2,000000000000000E+000	-1,0182942E-001	40	-4,3261013E-004
2	0	0	1	1	1,952326149471258E+005	1,3071090E+000	1,3065510E+000	-3,066425662495655E-001	2,000000000000000E+000	-1,0886347E-001	40	-4,0064414E-004
2	0	0	1	1	1,952548280506018E+005	1,2871172E+000	1,2865692E+000	-2,887058179394879E-001	2,000000000000000E+000	-1,1548152E-001	40	-3,7144002E-004
2	0	0	1	1	1,952770411540782E+005	1,2671254E+000	1,2665755E+000	-2,725048666339495E-001	2,000000000000000E+000	-1,2172095E-001	40	-3,4514797E-004
2	0	0	1	1	1,952992543575517E+005	1,2471336E+000	1,2465980E+000	-2,576989505389597E-001	2,000000000000000E+000	-1,2761593E-001	40	-3,2124700E-004
2	0	0	1	1	1,953214675610284E+005	1,2271417E+000	1,2265841E+000	-2,442344319159164E-001	2,000000000000000E+000	-1,3319713E-001	40	-2,9957408E-004
2	0	0	1	1	1,953436807645042E+005	1,2071497E+000	1,2065687E+000	-2,320689883872673E-001	2,000000000000000E+000	-1,3849342E-001	40	-2,8000720E-004
2	0	0	1	1	1,953658938679786E+005	1,1871581E+000	1,1865737E+000	-2,209732968906203E-001	2,000000000000000E+000	-1,4353079E-001	40	-2,6220112E-004
2	0	0	1	1	1,953881069714553E+005	1,1671664E+000	1,1665733E+000	-2,109402637045168E-001	2,000000000000000E+000	-1,4833267E-001	40	-2,4607728E-004
2	0	0	1	1	1,954103201749306E+005	1,1471744E+000	1,1465803E+000	-2,018883553892739E-001	2,000000000000000E+000	-1,5292279E-001	40	-2,3148122E-004
2	0	0	1	1	1,954325333784057E+005	1,1271826E+000	1,1266080E+000	-1,937587563025140E-001	2,000000000000000E+000	-1,5732199E-001	40	-2,1829017E-004
2	0	0	1	1	1,954547464818831E+005	1,1071908E+000	1,1066074E+000	-1,864759087652850E-001	2,000000000000000E+000	-1,6154975E-001	40	-2,0635563E-004
2	0	0	1	1	1,954769596853568E+005	1,0871990E+000	1,0866086E+000	-1,800974040495198E-001	2,000000000000000E+000	-1,6562583E-001	40	-1,9569539E-004
2	0	0	1	1	1,954991727888324E+005	1,0672071E+000	1,0666107E+000	-1,745148816672248E-001	2,000000000000000E+000	-1,6956846E-001	40	-1,8613944E-004
2	0	0	1	1	1,955213859923095E+005	1,0472152E+000	1,0466086E+000	-1,697338933272863E-001	2,000000000000000E+000	-1,7339580E-001	40	-1,7764495E-004
2	0	0	1	1	1,955435991957826E+005	1,0272232E+000	1,0266093E+000	-1,657494287762153E-001	2,000000000000000E+000	-1,7712547E-001	40	-1,7015991E-004
2	0	0	1	1	1,955658123992591E+005	1,0072314E+000	1,0065924E+000	-1,626837838738867E-001	2,000000000000000E+000	-1,8077721E-001	40	-1,6375625E-004
2	0	0	1	1	1,955866934025255E+005	1,0115296E+000	1,0109235E+000	-1,380216776595284E-001	2,000000000000000E+000	-1,8396604E-001	40	-1,3952935E-004
2	0	0	1	1	1,956089066060017E+005	1,0315214E+000	1,0308888E+000	-1,185470216744786E-001	2,000000000000000E+000	-1,8679476E-001	40	-1,2220880E-004
2	0	0	1	1	1,956311198094781E+005	1,0515133E+000	1,0509293E+000	-1,045975637318259E-001	2,000000000000000E+000	-1,8926117E-001	40	-1,0992464E-004
2	0	0	1	1	1,956533330129515E+005	1,0715052E+000	1,0709021E+000	-9,358894089267671E-002	2,000000000000000E+000	-1,9145302E-001	40	-1,0022459E-004
2	0	0	1	1	1,956755462164284E+005	1,0914971E+000	1,0909038E+000	-8,447900433624909E-002	2,000000000000000E+000	-1,9342254E-001	40	-9,2158465E-005
2	0	0	1	1	1,956977593199043E+005	1,1114891E+000	1,1108843E+000	-7,668428508218605E-002	2,000000000000000E+000	-1,9520541E-001	40	-8,5187370E-005
2	0	0	1	1	1,957199725233780E+005	1,1314808E+000	1,1308802E+000	-6,989065742727707E-002	2,000000000000000E+000	-1,9682696E-001	40	-7,9037964E-005
2	0	0	1	1	1,957421857268551E+005	1,1514727E+000	1,1508586E+000	-6,391114243198093E-002	2,000000000000000E+000	-1,9830705E-001	40	-7,3552692E-005
2	0	0	1	1	1,957643988303305E+005	1,1714643E+000	1,1708583E+000	-5,848940932576718E-002	2,000000000000000E+000	-1,9966094E-001	40	-6,8482805E-005
2	0	0	1	1	1,957866120338051E+005	1,1914562E+000	1,1908247E+000	-5,357382446463751E-002	2,000000000000000E+000	-2,0090023E-001	40	-6,3797037E-005
2	0	0	1	1	1,958088252372821E+005	1,2114482E+000	1,2108485E+000	-4,909725872640171E-002	2,000000000000000E+000	-2,0203507E-001	40	-5,9449339E-005
2	0	0	1	1	1,958310384407565E+005	1,2314399E+000	1,2308627E+000	-4,481186579540186E-002	2,000000000000000E+000	-2,0307225E-001	41	-5,5157256E-005
2	0	0	1	1	1,958532516442320E+005	1,2514318E+000	1,2508614E+000	-4,096217418487402E-002	2,000000000000000E+000	-2,0402001E-001	41	-5,1238003E-005
2	0	0	1	1	1,958754647477092E+005	1,2714237E+000	1,2708205E+000	-3,729305442492467E-002	2,000000000000000E+000	-2,0488441E-001	41	-4,7392779E-005
2	0	0	1	1	1,958976778511829E+005	1,2914153E+000	1,2908641E+000	-3,384459798601108E-002	2,000000000000000E+000	-2,0566984E-001	41	-4,3688779E-005
2	0	0	1	1	1,959198910546586E+005	1,3114073E+000	1,3108385E+000	-3,053234570649915E-002	2,000000000000000E+000	-2,0638026E-001	41	-4,0022973E-005
2	0	0	1	1	1,959421042581354E+005	1,3313993E+000	1,3307981E+000	-2,735673557851437E-002	2,000000000000000E+000	-2,0701866E-001	41	-3,6406294E-005
2	0	0	1	1	1,959643174616089E+005	1,3513911E+000	1,3507916E+000	-2,423836084143521E-002	2,000000000000000E+000	-2,0758705E-001	41	-3,2740973E-005
2	0	0	1	1	1,959865306650853E+005	1,3713830E+000	1,3707899E+000	-2,113645153007787E-002	2,000000000000000E+000	-2,0808651E-001	41	-2,8973634E-005
2	0	0	1	1	1,960087438685615E+005	1,3913748E+000	1,3907690E+000	-1,798294310624371E-002	2,000000000000000E+000	-2,0851679E-001	41	-2,5010120E-005
2	0	0	1	1	1,960309570720349E+005	1,4113666E+000	1,4107727E+000	-1,473981917669018E-002	2,000000000000000E+000	-2,0887628E-001	41	-2,0794534E-005
2	0	0	1	1	1,960531702755119E+005	1,4313585E+000	1,4307476E+000	-1,133783762514295E-002	2,000000000000000E+000	-2,0916192E-001	41	-1,6221584E-005
2	0	0	1	1	1,960753833789877E+005	1,4513503E+000	1,4507087E+000	-7,591272888152284E-003	2,000000000000000E+000	-2,0936826E-001	41	-1,1012726E-005
2	0	0	1	1	1,960975965824623E+005	1,4713422E+000	1,4707639E+000	-3,399809579468459E-003	2,000000000000000E+000	-2,0948672E-001	42	-5,0003173E-006
2	1	0	1	1	1,961198096859395E+005	1,4913338E+000	1,4907318E+000	1,414148298526322E-003	2,000000000000000E+000	-2,0950632E-001	42	2,1081160E-006
2	1	0	1	1	1,961420228894139E+005	1,5113257E+000	1,5106245E+000	7,352029034955972E-003	2,000000000000000E+000	-2,0940776E-001	42	1,1106155E-005
2	1	0	1	1	1,961642361928893E+005	1,5313177E+000	1,5306914E+000	1,546286185790888E-002	2,000000000000000E+000	-2,0915453E-001	41	2,3668870E-005
2	1	0	1	1	1,961864492963667E+005	1,5513095E+000	1,5506738E+000	2,709536899728343E-002	2,000000000000000E+000	-2,0868570E-001	41	4,2016080E-005
2	1	0	1	1	1,962086624998399E+005	1,5713015E+000	1,5706434E+000	4,449659578989109E-002	2,000000000000000E+000	-2,0789848E-001	41	6,9888287E-005
2	1	0	1	1	1,962308757033159E+005	1,5912931E+000	1,5906191E+000	8,695137611446535E-002	2,000000000000000E+000	-2,0653629E-001	41	1,3830652E-004
2	1	0	1	1	1,962530889067929E+005	1,6112850E+000	1,6106628E+000	1,741868081272615E-001	2,000000000000000E+000	-2,0365816E-001	40	2,8055621E-004
2	1	0	1	1	1,962753020102661E+005	1,6312768E+000	1,6306003E+000	2,702165648163284E-001	2,000000000000000E+000	-1,9872990E-001	40	4,4061523E-004
2	1	0	1	1	1,962975152137428E+005	1,6512687E+000	1,6506081E+000	3,785545357898119E-001	2,000000000000000E+000	-1,9154701E-001	40	6,2484515E-004
2	1	0	1	1	1,963197283172188E+005	1,6712605E+000	1,6705610E+000	5,088747553458361E-001	2,000000000000000E+000	-1,8173073E-001	40	8,5010630E-004
2	1	0	1	1	1,963419416206921E+005	1,6912526E+000	1,6905686E+000	6,717729527158403E-001	2,000000000000000E+000	-1,6867281E-001	40	1,1356783E-003
2	1	0	1	1	1,963641549241694E+005	1,7112443E+000	1,7105385E+000	8,703982550814420E-001	2,000000000000000E+000	-1,5159169E-001	40	1,4888498E-003
2	1	0	1	1	1,963863680276452E+005	1,7312363E+000	1,7306607E+000	1,089133229095502E+000	2,000000000000000E+000	-1,2981854E-001	39	1,8849201E-003
2	1	0	1	1	1,964085812311189E+005	1,7512282E+000	1,7506316E+000	1,270815732196591E+000	2,000000000000000E+000	-1,0343423E-001	39	2,2247301E-003
2	1	0	1	1	1,964307943345963E+005	1,7712197E+000	1,7706120E+000	1,278839525311934E+000	2,000000000000000E+000	-7,4603014E-002	39	2,2643285E-003
2	1	0	1	1	1,964530075380714E+005	1,7912116E+000	1,7905959E+000	9,724236050708441E-001	2,000000000000000E+000	-4,9041890E-002	39	1,7412177E-003
2	1	0	1	1	1,964752207415460E+005	1,8112035E+000	1,8106184E+000	5,226483443111141E-001	2,000000000000000E+000	-3,2483760E-002	39	9,4631669E-004
2	1	0	1	1	1,964974339450235E+005	1,8311952E+000	1,8305637E+000	2,314482293153137E-001	2,000000000000000E+000	-2,4546528E-002	40	4,2368073E-004
2	1	0	1	1	1,965196471484974E+005	1,8511872E+000	1,8505633E+000	1,302449533981016E-001	2,000000000000000E+000	-2,0736428E-002	40	2,4102653E-004
2	1	0	1	1	1,965418602519733E+005	1,8711790E+000	1,8705838E+000	9,335573987339996E-002	2,000000000000000E+000	-1,8294198E-002	40	1,7462973E-004
2	1	0	1	1	1,965640735554500E+005	1,8911710E+000	1,8905761E+000	7,367815694431112E-002	2,000000000000000E+000	-1,6446877E-002	40	1,3929416E-004
2	1	0	1	1	1,965862867589234E+005	1,9111627E+000	1,9105771E+000	6,161821927943578E-002	2,000000000000000E+000	-1,4944251E-002	40	1,1772635E-004
2	1	0	1	1	1,966084998623999E+005	1,9311547E+000	1,9305615E+000	5,391138538689455E-002	2,000000000000000E+000	-1,3654640E-002	40	1,0407925E-004
2	1	0	1	1	1,966308240658944E+005	1,9512465E+000	1,9505935E+000	4,774350981609382E-002	2,000000000000000E+000	-1,2511325E-002	41	9,3128176E-005
2	1	0	1	1	1,966530372693678E+005	1,9712383E+000	1,9705931E+000	4,265187083634558E-002	2,000000000000000E+000	-1,1498207E-002	41	8,4049483E-005
2	1	0	1	1	1,966752504728438E+005	1,9912302E+000	1,9906137E+000	3,861902779362947E-002	2,000000000000000E+000	-1,0585641E-002	41	7,6875564E-005
2	1	0	1	1	1,966974637763202E+005	2,0112219E+000	2,0105944E+000	3,492322011024318E-002	2,000000000000000E+000	-9,7576687E-003	41	7,0216433E-005
2	1	0	1	1	1,967196768797939E+005	2,0312138E+000	2,0305893E+000	3,111061959854022E-002	2,000000000000000E+000	-9,0133678E-003	41	6,3172891E-005
2	1	0	1	1	1,967418899832704E+005	2,0512056E+000	2,0505855E+000	2,813914300559062E-002	2,000000000000000E+000	-8,3455909E-003	41	5,7701720E-005
2	1	0	1	1	1,967641034867466E+005	2,0711975E+000	2,0705829E+000	2,571298968221555E-002	2,000000000000000E+000	-7,7370787E-003	41	5,3240878E-005
2	1	0	1	1	1,967863166902200E+005	2,0911894E+000	2,0905759E+000	2,331561317995384E-002	2,000000000000000E+000	-7,1816030E-003	41	4,8743059E-005
2	1	0	1	1	1,968085296936971E+005	2,1111810E+000	2,1105764E+000	2,148934260246445E-002	2,000000000000000E+000	-6,6743861E-003	41	4,5354900E-005
2	1	0	1	1	1,968307428971725E+005	2,1311729E+000	2,1305680E+000	2,033631377433320E-002	2,000000000000000E+000	-6,1995159E-003	41	4,3327898E-005
2	1	0	1	1	1,968529561006471E+005	2,1511650E+000	2,1505744E+000	1,934937909156892E-002	2,000000000000000E+000	-5,7480228E-003	41	4,1612278E-005
2	1	0	1	1	1,968751693041241E+005	2,1711566E+000	2,1705496E+000	1,838501424277017E-002	2,000000000000000E+000	-5,3179124E-003	41	3,9905586E-005
2	1	0	1	1	1,968973825075990E+005	2,1911485E+000	2,1905680E+000	1,732852629266268E-002	2,000000000000000E+000	-4,9101342E-003	41	3,7959315E-005
2	1	0	1	1	1,969195957110741E+005	2,2111406E+000	2,2105556E+000	1,635541472366214E-002	2,000000000000000E+000	-4,5264475E-003	41	3,6154554E-005
2	1	0	1	1	1,969418087145514E+005	2,2311323E+000	2,2305512E+000	1,563137733629555E-002	2,000000000000000E+000	-4,1604615E-003	41	3,4866589E-005
2	1	0	1	1	1,969640221180250E+005	2,2511241E+000	2,2505326E+000	1,483534549594062E-002	2,000000000000000E+000	-3,8105182E-003	41	3,3387430E-005
2	1	0	1	1	1,969862353215007E+005	2,2711155E+000	2,2705197E+000	1,428889009091035E-002	2,000000000000000E+000	-3,4767515E-003	41	3,2443208E-005
2	1	0	1	1	1,970084483249779E+005	2,2911077E+000	2,2904875E+000	1,393098232248924E-002	2,000000000000000E+000	-3,1526629E-003	41	3,1908741E-005
2	1	0	1	1	1,970306615284514E+005	2,3110995E+000	2,3105299E+000	1,365988195533449E-002	2,000000000000000E+000	-2,8355501E-003	41	3,1561565E-005
2	1	0	1	1	1,970528747319274E+005	2,3310912E+000	2,3304818E+000	1,342315174345038E-002	2,000000000000000E+000	-2,5244898E-003	41	3,1282409E-005
2	1	0	1	1	1,970750879354039E+005	2,3510833E+000	2,3504987E+000	1,317536388003662E-002	2,000000000000000E+000	-2,2186472E-003	41	3,0968677E-005
2	1	0	1	1	1,970973011388774E+005	2,3710752E+000	2,3704956E+000	1,299442189492880E-002	2,000000000000000E+000	-1,9174329E-003	41	3,0803218E-005
2	1	0	1	1	1,971195143423540E+005	2,3910670E+000	2,3904846E+000	1,283724198782346E-002	2,000000000000000E+000	-1,6201128E-003	41	3,0687228E-005
2	1	0	1	1	1,971417275458300E+005	2,4110589E+000	2,4104722E+000	1,271612429650851E-002	2,000000000000000E+000	-1,3258797E-003	41	3,0651863E-005
2	1	0	1	1	1,971639407493041E+005	2,4310508E+000	2,4304426E+000	1,259342257355031E-002	2,000000000000000E+000	-1,0344248E-003	41	3,0607589E-005
2	1	0	1	1	1,971861539527809E+005	2,4510424E+000	2,4504228E+000	1,251508611399726E-002	2,000000000000000E+000	-7,4521813E-004	41	3,0667252E-005
2	1	0	1	1	1,972083671562560E+005	2,4710343E+000	2,4704618E+000	1,242960480803579E-002	2,000000000000000E+000	-4,5790614E-004	41	3,0706866E-005
2	1	0	1	1	1,972305803597313E+005	2,4910262E+000	2,4904261E+000	1,239337882735116E-002	2,000000000000000E+000	-1,7194009E-004	41	3,0864794E-005
2	1	0	1	1	1,972527933632082E+005	2,5110180E+000	2,5104058E+000	1,238426778579096E-002	2,000000000000000E+000	1,1337257E-004	41	3,1089538E-005
2	1	0	1	1	1,972750065666824E+005	2,5310099E+000	2,5303805E+000	1,238331852060169E-002	2,000000000000000E+000	3,9863514E-004	41	3,1334508E-005
2	1	0	1	1	1,972972197701579E+005	2,5510018E+000	2,5504024E+000	1,243662842069446E-002	2,000000000000000E+000	6,8448082E-004	41	3,1718406E-005
2	1	0	1	1	1,973194329736354E+005	2,5709937E+000	2,5703974E+000	1,249996885544094E-002	2,000000000000000E+000	9,7140548E-004	41	3,2129887E-005
2	1	0	1	1	1,973416461771084E+005	2,5909853E+000	2,5904202E+000	1,259968185526547E-002	2,000000000000000E+000	1,2603718E-003	41	3,2638472E-005
2	1	0	1	1	1,973638594805846E+005	2,6109772E+000	2,6103749E+000	1,272817991706660E-002	2,000000000000000E+000	1,5520072E-003	41	3,3225322E-005
2	1	0	1	1	1,973860725840614E+005	2,6309688E+000	2,6304009E+000	1,291665422592239E-002	2,000000000000000E+000	1,8472067E-003	41	3,3975979E-005
2	1	0	1	1	1,974082857875344E+005	2,6509607E+000	2,6503744E+000	1,312347724041193E-002	2,000000000000000E+000	2,1467113E-003	41	3,4782130E-005
2	1	0	1	1	1,974304989910115E+005	2,6709528E+000	2,6703606E+000	1,337768934094416E-002	2,000000000000000E+000	2,4513020E-003	41	3,5723253E-005
2	1	0	1	1	1,974527119944873E+005	2,6909447E+000	2,6903527E+000	1,369582468411716E-002	2,000000000000000E+000	2,7619039E-003	41	3,6846599E-005
2	1	0	1	0	1,974733705977206E+005	2,6904449E+000	2,6898801E+000	8,571729434675407E-003	2,000000000000000E+000	3,0055237E-003	41	2,3056924E-005
2	1	0	1	0	1,974955838011941E+005	2,6704531E+000	2,6698284E+000	5,442776342390585E-003	2,000000000000000E+000	3,1471585E-003	42	1,4531279E-005
2	1	0	1	0	1,975177970046698E+005	2,6504612E+000	2,6498606E+000	3,720386290009411E-003	2,000000000000000E+000	3,2383620E-003	42	9,8585051E-006
2	1	0	1	0	1,975400102081466E+005	2,6304693E+000	2,6298816E+000	2,556649215819023E-003	2,000000000000000E+000	3,2983422E-003	42	6,7236847E-006
2	1	0	1	0	1,975622234116201E+005	2,6104772E+000	2,6098862E+000	1,692320169535518E-003	2,000000000000000E+000	3,3363432E-003	42	4,4167632E-006
2	1	0	1	0	1,975844366150965E+005	2,5904856E+000	2,5899122E+000	1,014772405180182E-003	2,000000000000000E+000	3,3575629E-003	42	2,6281714E-006
2	1	0	1	0	1,976066496185726E+005	2,5704937E+000	2,5699186E+000	4,558674600278452E-004	2,000000000000000E+000	3,3649923E-003	42	1,1715423E-006
2	1	0	1	0	1,976288628220465E+005	2,5505018E+000	2,5499470E+000	-2,949037222374989E-005	2,000000000000000E+000	3,3608684E-003	42	-7,5198884E-008
2	0	0	1	0	1,976510760255232E+005	2,5305102E+000	2,5299230E+000	-4,824976750985018E-004	2,000000000000000E+000	3,3465063E-003	42	-1,2206820E-006
2	0	0	1	0	1,976732891289983E+005	2,5105181E+000	2,5099473E+000	-8,736102774424964E-004	2,000000000000000E+000	3,3229860E-003	42	-2,1927158E-006
2	0	0	1	0	1,976955023324736E+005	2,4905264E+000	2,4899538E+000	-1,226175342888314E-003	2,000000000000000E+000	3,2910004E-003	42	-3,0531198E-006
2	0	0	1	0	1,977177155359508E+005	2,4705343E+000	2,4699771E+000	-1,568658890509254E-003	2,000000000000000E+000	3,2511526E-003	42	-3,8745516E-006
2	0	0	1	0	1,977399287394248E+005	2,4505424E+000	2,4499614E+000	-1,901001532405536E-003	2,000000000000000E+000	3,2039292E-003	42	-4,6573805E-006
2	0	0	1	0	1,977621419429004E+005	2,4305506E+000	2,4299948E+000	-2,202026451336533E-003	2,000000000000000E+000	3,1498768E-003	42	-5,3509129E-006
2	0	0	1	0	1,977843549463777E+005	2,4105587E+000	2,4100115E+000	-2,499233158355277E-003	2,000000000000000E+000	3,0893164E-003	42	-6,0231805E-006
2	0	0	1	0	1,978065681498507E+005	2,3905668E+000	2,3900108E+000	-2,770427913024356E-003	2,000000000000000E+000	3,0224847E-003	42	-6,6213529E-006
2	0	0	1	0	1,978287812533271E+005	2,3705752E+000	2,3700058E+000	-3,022092286113436E-003	2,000000000000000E+000	2,9497831E-003	42	-7,1623763E-006
2	0	0	1	0	1,978509944568039E+005	2,3505833E+000	2,3500280E+000	-3,258232912121867E-003	2,000000000000000E+000	2,8713995E-003	42	-7,6569386E-006
2	0	0	1	0	1,978732076602769E+005	2,3305914E+000	2,3300452E+000	-3,526272697553338E-003	2,000000000000000E+000	2,7874056E-003	42	-8,2163751E-006
2	0	0	1	0	1,978954206637540E+005	2,3105998E+000	2,3100882E+000	-3,775010958506013E-003	2,000000000000000E+000	2,6978177E-003	42	-8,7206081E-006
2	0	0	1	0	1,979176338672298E+005	2,2906082E+000	2,2900529E+000	-4,031422963315583E-003	2,000000000000000E+000	2,6024198E-003	42	-9,2321716E-006
2	0	0	1	0	1,979398470707033E+005	2,2706158E+000	2,2700894E+000	-4,306007956278751E-003	2,000000000000000E+000	2,5012072E-003	42	-9,7750226E-006
2	0	0	1	0	1,979620602741807E+005	2,2506244E+000	2,2501206E+000	-4,614111584741155E-003	2,000000000000000E+000	2,3939332E-003	42	-1,0382308E-005
2	0	0	1	0	1,979842733776560E+005	2,2306321E+000	2,2301598E+000	-4,864077685583182E-003	2,000000000000000E+000	2,2804760E-003	42	-1,0847671E-005
2	0	0	1	0	1,980064865811304E+005	2,2106402E+000	2,2101190E+000	-5,179668574127466E-003	2,000000000000000E+000	2,1605357E-003	42	-1,1447684E-005
2	0	0	1	0	1,980286997846079E+005	2,1906486E+000	2,1901436E+000	-5,522794958950236E-003	2,000000000000000E+000	2,0337298E-003	42	-1,2095714E-005
2	0	0	1	0	1,980509128880822E+005	2,1706569E+000	2,1701522E+000	-5,801493132853747E-003	2,000000000000000E+000	1,8996448E-003	42	-1,2590123E-005
2	0	0	1	0	1,980731260915573E+005	2,1506650E+000	2,1501763E+000	-6,158562333513147E-003	2,000000000000000E+000	1,7580180E-003	42	-1,3241995E-005
2	0	0	1	0	1,980953391950345E+005	2,1306729E+000	2,1301856E+000	-6,547478569260544E-003	2,000000000000000E+000	1,6083096E-003	42	-1,3947345E-005
2	0	0	1	0	1,981175522985081E+005	2,1106813E+000	2,1101918E+000	-6,957629039001489E-003	2,000000000000000E+000	1,4501271E-003	42	-1,4681932E-005
2	0	0	1	0	1,981397655019845E+005	2,0906897E+000	2,0901871E+000	-7,369341169372004E-003	2,000000000000000E+000	1,2830476E-003	42	-1,5403302E-005
2	0	0	1	0	1,981619787054607E+005	2,0706975E+000	2,0701852E+000	-7,768027239567654E-003	2,000000000000000E+000	1,1063253E-003	42	-1,6081254E-005
2	0	0	1	0	1,981841917089340E+005	2,0507057E+000	2,0502398E+000	-8,261040425071642E-003	2,000000000000000E+000	9,1967039E-004	42	-1,6937114E-005
2	0	0	1	0	1,982064049124111E+005	2,0307140E+000	2,0302510E+000	-8,769090063462368E-003	2,000000000000000E+000	7,2222517E-004	42	-1,7803453E-005
2	0	0	1	0	1,982286181158866E+005	2,0107222E+000	2,0101752E+000	-9,280598850383778E-003	2,000000000000000E+000	5,1244634E-004	41	-1,8655630E-005
2	0	0	1	0	1,982508313193608E+005	1,9907304E+000	1,9901817E+000	-9,892732689138636E-003	2,000000000000000E+000	2,8983789E-004	41	-1,9688336E-005
2	0	0	1	0	1,982730444228379E+005	1,9707386E+000	1,9701591E+000	-1,058563343010269E-002	2,000000000000000E+000	5,2672756E-005	41	-2,0855381E-005
2	0	0	1	0	1,982952576263128E+005	1,9507465E+000	1,9501810E+000	-1,136912808622823E-002	2,000000000000000E+000	-2,0078302E-004	41	-2,2171858E-005
2	0	0	1	0	1,983174708297881E+005	1,9307547E+000	1,9301758E+000	-1,223597266650206E-002	2,000000000000000E+000	-4,7256841E-004	41	-2,3617578E-005
2	0	0	1	0	1,983396839332653E+005	1,9107629E+000	1,9101847E+000	-1,318680764704492E-002	2,000000000000000E+000	-7,6470891E-004	41	-2,5189238E-005
2	0	0	1	0	1,983618971367390E+005	1,8907712E+000	1,8901910E+000	-1,422170687505825E-002	2,000000000000000E+000	-1,0789124E-003	41	-2,6881742E-005
2	0	0	1	0	1,983721502383440E+005	1,8815254E+000	1,8809471E+000	-1,492132034538121E-002	2,000000000000000E+000	-1,2319421E-003	41	-2,8066215E-005