File: Dati/201027/CV_LTO-C_Al_slurrymia_01_1mVs_03_CV_C03.mpt
EC-Lab ASCII FILE
Nb header lines : 63

Cyclic Voltammetry

Run on channel : 3 (SN 6807)
User :
Electrode connection : standard
Ewe ctrl range : min = 0,00 V, max = 5,00 V
Ewe,I filtering : 50 kHz
Safety Limits :
	Do not start on E overload
Channel : Grounded
Acquisition started on : 10/27/2020 18:19:16
Saved on :
	File : CV_LTO-C_Al_slurrymia_01_1mVs_03_CV_C03.mpr
	Directory : C:\Users\labsuperfici\Desktop\Biologic\Users\Prisca Viviani\201027\
	Host : 10.78.33.0
Device : VSP-300 (SN 0638)
Address : USB
EC-Lab for windows v11.31 (software)
Internet server v11.30 (firmware)
Command interpretor v11.31 (firmware)
Electrode material :
Initial state :
Electrolyte :
Comments :
Cable : standard
Reference electrode : SCE Saturated Calomel Electrode (0,241 V)
Electrode surface area : 0,001 cm²
Characteristic mass : 0,001 g
Equivalent Weight : 0,000 g/eq.
Density : 0,000 g/cm3
Cycle Definition : Charge/Discharge alternance
Ei (V)              0,000
vs.                 Eoc
dE/dt               0,300
dE/dt unit          mV/s
E1 (V)              1,000
vs.                 Ref
Step percent        50
N                   10
E range min (V)     0,000
E range max (V)     5,000
I Range             Auto
I Range min         Unset
I Range max         Unset
I Range init        Unset
Bandwidth           8
E2 (V)              3,000
vs.                 Ref
nc cycles           2
Reverse Scan        1
Ef (V)              0,000
vs.                 Eoc

Modify on : 10/28/2020 10:35
nc cycles           1

Modify on : 10/28/2020 10:37
E2 (V)              2,700

mode	ox/red	error	control changes	counter inc.	time/s	control/V	Ewe/V	<I>/mA	cycle number	(Q-Qo)/C	I Range	P/W
2	0	0	1	0	1,080005443657590E+005	1,8815254E+000	1,8810196E+000	-4,609875846654177E-003	1,000000000000000E+000	0,0000000E+000	42	-8,6712671E-006
2	0	0	1	0	1,080656845503724E+005	1,8619828E+000	1,8614774E+000	-5,705492753654451E-003	1,000000000000000E+000	-3,4826071E-004	42	-1,0620645E-005
2	0	0	1	0	1,081323239346347E+005	1,8419909E+000	1,8415070E+000	-6,581569254948183E-003	1,000000000000000E+000	-7,6551369E-004	42	-1,2120006E-005
2	0	0	1	0	1,081989635188498E+005	1,8219990E+000	1,8215265E+000	-7,378546677923037E-003	1,000000000000000E+000	-1,2384173E-003	42	-1,3440219E-005
2	0	0	1	0	1,082656029030636E+005	1,8020072E+000	1,8015589E+000	-8,079264611899423E-003	1,000000000000000E+000	-1,7614948E-003	42	-1,4555270E-005
2	0	0	1	0	1,083322423873246E+005	1,7820152E+000	1,7815654E+000	-8,742231695329547E-003	1,000000000000000E+000	-2,3302543E-003	42	-1,5574858E-005
2	0	0	1	0	1,083988819715825E+005	1,7620236E+000	1,7615892E+000	-9,370361560537679E-003	1,000000000000000E+000	-2,9422885E-003	42	-1,6506727E-005
2	0	0	1	0	1,084655213557936E+005	1,7420317E+000	1,7414694E+000	-9,932188066135716E-003	1,000000000000000E+000	-3,5943030E-003	41	-1,7296601E-005
2	0	0	1	0	1,085321607400135E+005	1,7220399E+000	1,7215348E+000	-1,035192430502924E-002	1,000000000000000E+000	-4,2787516E-003	41	-1,7821198E-005
2	0	0	1	0	1,085988003242761E+005	1,7020483E+000	1,7014974E+000	-1,081808582280908E-002	1,000000000000000E+000	-4,9919165E-003	41	-1,8406945E-005
2	0	0	1	0	1,086654399085261E+005	1,6820562E+000	1,6815219E+000	-1,144452998859724E-002	1,000000000000000E+000	-5,7402398E-003	41	-1,9244228E-005
2	0	0	1	0	1,087320793927379E+005	1,6620643E+000	1,6614974E+000	-1,247480514717944E-002	1,000000000000000E+000	-6,5425662E-003	41	-2,0726855E-005
2	0	0	1	0	1,087987189769669E+005	1,6420724E+000	1,6415247E+000	-1,406872649643631E-002	1,000000000000000E+000	-7,4304282E-003	41	-2,3094162E-005
2	0	0	1	0	1,088653583612285E+005	1,6220807E+000	1,6215146E+000	-1,655908354876579E-002	1,000000000000000E+000	-8,4537687E-003	41	-2,6850796E-005
2	0	0	1	0	1,089319979454684E+005	1,6020888E+000	1,6015425E+000	-2,021730304864398E-002	1,000000000000000E+000	-9,6800849E-003	41	-3,2378870E-005
2	0	0	1	0	1,089986373296806E+005	1,5820968E+000	1,5815809E+000	-2,530681467489754E-002	1,000000000000000E+000	-1,1196175E-002	41	-4,0024774E-005
2	0	0	1	0	1,090652768139192E+005	1,5621052E+000	1,5615721E+000	-3,263451591224359E-002	1,000000000000000E+000	-1,3121071E-002	41	-5,0961149E-005
2	0	0	1	0	1,091319163981820E+005	1,5421133E+000	1,5416001E+000	-4,558768572597671E-002	1,000000000000000E+000	-1,5678558E-002	41	-7,0277980E-005
2	0	0	1	0	1,091985557824131E+005	1,5221213E+000	1,5216763E+000	-7,807025098845499E-002	1,000000000000000E+000	-1,9700481E-002	41	-1,1879765E-004
2	0	0	1	0	1,092651951666235E+005	1,5021296E+000	1,5015842E+000	-1,153116753510647E-001	1,000000000000000E+000	-2,6188182E-002	40	-1,7315018E-004
2	0	0	1	0	1,093318347508707E+005	1,4821377E+000	1,4815985E+000	-1,444114771716678E-001	1,000000000000000E+000	-3,4899943E-002	40	-2,1395982E-004
2	0	0	1	0	1,093984743351331E+005	1,4621460E+000	1,4615986E+000	-1,650689507866732E-001	1,000000000000000E+000	-4,5267906E-002	40	-2,4126456E-004
2	0	0	1	0	1,094651138193572E+005	1,4421540E+000	1,4416424E+000	-1,781335696789048E-001	1,000000000000000E+000	-5,6756489E-002	40	-2,5680489E-004
2	0	0	1	0	1,095317532035680E+005	1,4221624E+000	1,4216118E+000	-1,842135700225382E-001	1,000000000000000E+000	-6,8876371E-002	40	-2,6188020E-004
2	0	0	1	0	1,095983925878233E+005	1,4021704E+000	1,4016393E+000	-1,843845498894154E-001	1,000000000000000E+000	-8,1196293E-002	40	-2,5844065E-004
2	0	0	1	0	1,096650321720848E+005	1,3821784E+000	1,3816288E+000	-1,801116157858127E-001	1,000000000000000E+000	-9,3369581E-002	40	-2,4884738E-004
2	0	0	1	0	1,097316716563004E+005	1,3621867E+000	1,3616594E+000	-1,727028840365836E-001	1,000000000000000E+000	-1,0514788E-001	40	-2,3516250E-004
2	0	0	1	0	1,097983110405158E+005	1,3421947E+000	1,3416650E+000	-1,635367616684253E-001	1,000000000000000E+000	-1,1636509E-001	40	-2,1941155E-004
2	0	0	1	0	1,098649506247758E+005	1,3222029E+000	1,3216575E+000	-1,535069024965252E-001	1,000000000000000E+000	-1,2693669E-001	40	-2,0288356E-004
2	0	0	1	0	1,099315900090323E+005	1,3022112E+000	1,3016590E+000	-1,446567671245669E-001	1,000000000000000E+000	-1,3686538E-001	40	-1,8829378E-004
2	0	0	1	0	1,099982295932437E+005	1,2822194E+000	1,2816528E+000	-1,364549239197733E-001	1,000000000000000E+000	-1,4623606E-001	40	-1,7488784E-004
2	0	0	1	0	1,100648690774657E+005	1,2622277E+000	1,2616698E+000	-1,278606227201520E-001	1,000000000000000E+000	-1,5504889E-001	40	-1,6131788E-004
2	0	0	1	0	1,101315084617289E+005	1,2422358E+000	1,2416612E+000	-1,188995665155699E-001	1,000000000000000E+000	-1,6327636E-001	40	-1,4763298E-004
2	0	0	1	0	1,101981478459769E+005	1,2222438E+000	1,2216636E+000	-1,097105508764615E-001	1,000000000000000E+000	-1,7089780E-001	40	-1,3402938E-004
2	0	0	1	0	1,102647874301869E+005	1,2022519E+000	1,2016673E+000	-1,005570088178982E-001	1,000000000000000E+000	-1,7790666E-001	40	-1,2083607E-004
2	0	0	1	0	1,103314270144170E+005	1,1822600E+000	1,1816831E+000	-9,166426687927531E-002	1,000000000000000E+000	-1,8431275E-001	40	-1,0831811E-004
2	0	0	1	0	1,103980665986803E+005	1,1622682E+000	1,1616757E+000	-8,323854898645633E-002	1,000000000000000E+000	-1,9014092E-001	40	-9,6696196E-005
2	0	0	1	0	1,104647058829216E+005	1,1422764E+000	1,1417298E+000	-7,535117851002521E-002	1,000000000000000E+000	-1,9542545E-001	40	-8,6030690E-005
2	0	0	1	0	1,105313452671320E+005	1,1222848E+000	1,1216924E+000	-6,817699184826298E-002	1,000000000000000E+000	-2,0020749E-001	40	-7,6473618E-005
2	0	0	1	0	1,105979848513695E+005	1,1022927E+000	1,1017209E+000	-6,177602023291445E-002	1,000000000000000E+000	-2,0453727E-001	40	-6,8059933E-005
2	0	0	1	0	1,106646244356316E+005	1,0823009E+000	1,0817286E+000	-5,621830528324345E-002	1,000000000000000E+000	-2,0846878E-001	40	-6,0812949E-005
2	0	0	1	0	1,107312638198636E+005	1,0623090E+000	1,0617408E+000	-5,147643610970554E-002	1,000000000000000E+000	-2,1205595E-001	40	-5,4654629E-005
2	0	0	1	0	1,107982365039953E+005	1,0422173E+000	1,0416565E+000	-4,759703801588555E-002	1,000000000000000E+000	-2,1537310E-001	41	-4,9579765E-005
2	0	0	1	0	1,108648760882443E+005	1,0222254E+000	1,0216701E+000	-4,473948826873858E-002	1,000000000000000E+000	-2,1844813E-001	41	-4,5708999E-005
2	0	0	1	0	1,109315154725073E+005	1,0022335E+000	1,0016795E+000	-4,280638569721140E-002	1,000000000000000E+000	-2,2136433E-001	41	-4,2878281E-005
2	0	0	1	0	1,109941572576815E+005	1,0165277E+000	1,0159761E+000	-2,948293082544259E-002	1,000000000000000E+000	-2,2358739E-001	41	-2,9953952E-005
2	0	0	1	0	1,110607967418919E+005	1,0365195E+000	1,0359595E+000	-2,148177540866902E-002	1,000000000000000E+000	-2,2526228E-001	41	-2,2254249E-005
2	0	0	1	0	1,111274363261345E+005	1,0565115E+000	1,0559652E+000	-1,592440769902126E-002	1,000000000000000E+000	-2,2649388E-001	41	-1,6815620E-005
2	0	0	1	0	1,111940757103970E+005	1,0765033E+000	1,0759715E+000	-1,183635429723762E-002	1,000000000000000E+000	-2,2740731E-001	41	-1,2735580E-005
2	0	0	1	0	1,112607152946256E+005	1,0964950E+000	1,0959371E+000	-8,778135599452813E-003	1,000000000000000E+000	-2,2808509E-001	41	-9,6202848E-006
2	0	0	1	0	1,113273550788364E+005	1,1164869E+000	1,1159346E+000	-6,428277241658925E-003	1,000000000000000E+000	-2,2858368E-001	41	-7,1735371E-006
2	0	0	1	0	1,113939946630874E+005	1,1364788E+000	1,1359680E+000	-4,594252129209636E-003	1,000000000000000E+000	-2,2894460E-001	42	-5,2189234E-006
2	0	0	1	0	1,114606341473493E+005	1,1564708E+000	1,1559355E+000	-3,169538301633010E-003	1,000000000000000E+000	-2,2919779E-001	42	-3,6637819E-006
2	0	0	1	0	1,115272739315680E+005	1,1764625E+000	1,1759069E+000	-2,041136454765308E-003	1,000000000000000E+000	-2,2936599E-001	42	-2,4001865E-006
2	0	0	1	0	1,115939133157813E+005	1,1964543E+000	1,1958724E+000	-1,112696211883812E-003	1,000000000000000E+000	-2,2946584E-001	42	-1,3306427E-006
2	0	0	1	0	1,116605529000394E+005	1,2164462E+000	1,2159047E+000	-3,434624896438924E-004	1,000000000000000E+000	-2,2950958E-001	43	-4,1761766E-007
2	1	0	1	0	1,117275259842207E+005	1,2365379E+000	1,2359310E+000	2,986254689497535E-004	1,000000000000000E+000	-2,2950749E-001	43	3,6908048E-007
2	1	0	1	0	1,117941653684325E+005	1,2565297E+000	1,2559043E+000	8,247615816539427E-004	1,000000000000000E+000	-2,2946653E-001	43	1,0358216E-006
2	1	0	1	0	1,118608049526504E+005	1,2765217E+000	1,2759055E+000	1,300280103720033E-003	1,000000000000000E+000	-2,2939087E-001	42	1,6590345E-006
2	1	0	1	0	1,119274449369129E+005	1,2965136E+000	1,2959428E+000	1,735156919619313E-003	1,000000000000000E+000	-2,2928543E-001	42	2,2486640E-006
2	1	0	1	0	1,119940843211645E+005	1,3165053E+000	1,3159062E+000	2,147172623453052E-003	1,000000000000000E+000	-2,2915225E-001	42	2,8254776E-006
2	1	0	1	0	1,120607237053763E+005	1,3364971E+000	1,3359091E+000	2,537376700145229E-003	1,000000000000000E+000	-2,2899222E-001	42	3,3897047E-006
2	1	0	1	0	1,121273635896028E+005	1,3564889E+000	1,3558675E+000	2,952296159638546E-003	1,000000000000000E+000	-2,2880542E-001	42	4,0029227E-006
2	1	0	1	0	1,121940031738649E+005	1,3764808E+000	1,3758876E+000	3,408159823575384E-003	1,000000000000000E+000	-2,2858967E-001	42	4,6892451E-006
2	1	0	1	0	1,122606427581080E+005	1,3964728E+000	1,3958329E+000	3,927183946114937E-003	1,000000000000000E+000	-2,2834127E-001	42	5,4816924E-006
2	1	0	1	0	1,123272825423193E+005	1,4164646E+000	1,4158516E+000	4,582819858044498E-003	1,000000000000000E+000	-2,2805423E-001	42	6,4885926E-006
2	1	0	1	0	1,123939218265558E+005	1,4364564E+000	1,4358002E+000	5,379353007954030E-003	1,000000000000000E+000	-2,2771958E-001	42	7,7236764E-006
2	1	0	1	0	1,124605614108178E+005	1,4564483E+000	1,4557861E+000	6,355725927822145E-003	1,000000000000000E+000	-2,2732578E-001	42	9,2525779E-006
2	1	0	1	0	1,125272013950510E+005	1,4764402E+000	1,4757981E+000	7,545013614130930E-003	1,000000000000000E+000	-2,2685969E-001	42	1,1134917E-005
2	1	0	1	0	1,125938407792624E+005	1,4964318E+000	1,4958138E+000	9,009992494137531E-003	1,000000000000000E+000	-2,2630559E-001	42	1,3477272E-005
2	1	0	1	0	1,126604803635078E+005	1,5164238E+000	1,5158589E+000	1,100853191916086E-002	1,000000000000000E+000	-2,2563782E-001	41	1,6687382E-005
2	1	0	1	0	1,127271200477707E+005	1,5364157E+000	1,5358411E+000	1,392076486862801E-002	1,000000000000000E+000	-2,2481053E-001	41	2,1380083E-005
2	1	0	1	0	1,127937596319962E+005	1,5564075E+000	1,5558197E+000	1,854812858007948E-002	1,000000000000000E+000	-2,2373573E-001	41	2,8857545E-005
2	1	0	1	0	1,128603992162067E+005	1,5763992E+000	1,5758154E+000	2,571074878890425E-002	1,000000000000000E+000	-2,2227457E-001	41	4,0515395E-005
2	1	0	1	0	1,129270390004590E+005	1,5963910E+000	1,5957897E+000	4,547134992478563E-002	1,000000000000000E+000	-2,2002555E-001	41	7,2562711E-005
2	1	0	1	0	1,129936783847215E+005	1,6163828E+000	1,6157104E+000	7,660569827631392E-002	1,000000000000000E+000	-2,1595451E-001	41	1,2377262E-004
2	1	0	1	0	1,130603178689389E+005	1,6363748E+000	1,6358132E+000	1,075134187796575E-001	1,000000000000000E+000	-2,0981340E-001	40	1,7587187E-004
2	1	0	1	0	1,131269578531527E+005	1,6563668E+000	1,6558063E+000	1,391642692441148E-001	1,000000000000000E+000	-2,0159985E-001	40	2,3042907E-004
2	1	0	1	0	1,131935974374120E+005	1,6763587E+000	1,6758057E+000	1,757670867972507E-001	1,000000000000000E+000	-1,9114839E-001	40	2,9455149E-004
2	1	0	1	0	1,132602370216693E+005	1,6963502E+000	1,6958044E+000	2,291390016160891E-001	1,000000000000000E+000	-1,7778166E-001	40	3,8857490E-004
2	1	0	1	0	1,133268768058823E+005	1,7163420E+000	1,7157500E+000	3,102245425077825E-001	1,000000000000000E+000	-1,5992853E-001	40	5,3226773E-004
2	1	0	1	0	1,133935162901023E+005	1,7363340E+000	1,7357227E+000	3,987342496124757E-001	1,000000000000000E+000	-1,3622572E-001	40	6,9209206E-004
2	1	0	1	0	1,134601556743648E+005	1,7563260E+000	1,7557223E+000	4,469135509617868E-001	1,000000000000000E+000	-1,0761797E-001	40	7,8465609E-004
2	1	0	1	0	1,135267956586138E+005	1,7763175E+000	1,7757360E+000	3,942017703314455E-001	1,000000000000000E+000	-7,9007402E-002	40	6,9999829E-004
2	1	0	1	0	1,135934352428240E+005	1,7963096E+000	1,7957474E+000	2,974541569763050E-001	1,000000000000000E+000	-5,6023628E-002	40	5,3415255E-004
2	1	0	1	0	1,136600746270537E+005	1,8163015E+000	1,8157358E+000	2,075246105683166E-001	1,000000000000000E+000	-3,9163578E-002	40	3,7680985E-004
2	1	0	1	0	1,137267145113163E+005	1,8362933E+000	1,8357531E+000	1,203296803102885E-001	1,000000000000000E+000	-2,8351041E-002	40	2,2089558E-004
2	1	0	1	0	1,137933538955590E+005	1,8562852E+000	1,8557248E+000	6,536234410010877E-002	1,000000000000000E+000	-2,2311594E-002	40	1,2129452E-004
2	1	0	1	0	1,138599934797691E+005	1,8762769E+000	1,8756964E+000	3,313855840293367E-002	1,000000000000000E+000	-1,9162290E-002	41	6,2157873E-005
2	1	0	1	0	1,139266334640051E+005	1,8962687E+000	1,8957033E+000	2,128304426603633E-002	1,000000000000000E+000	-1,7402200E-002	41	4,0346338E-005
2	1	0	1	0	1,139932728482681E+005	1,9162605E+000	1,9157133E+000	1,609713615061883E-002	1,000000000000000E+000	-1,6168816E-002	41	3,0837498E-005
2	1	0	1	0	1,140599121325021E+005	1,9362525E+000	1,9357040E+000	1,379078816510779E-002	1,000000000000000E+000	-1,5169607E-002	41	2,6694885E-005
2	1	0	1	0	1,141265521167130E+005	1,9562442E+000	1,9557270E+000	1,239100985819702E-002	1,000000000000000E+000	-1,4289049E-002	41	2,4233432E-005
2	1	0	1	0	1,141931917009579E+005	1,9762363E+000	1,9756967E+000	1,138396220531177E-002	1,000000000000000E+000	-1,3486657E-002	41	2,2491256E-005
2	1	0	1	0	1,142598310852202E+005	1,9962282E+000	1,9957045E+000	1,053735766782410E-002	1,000000000000000E+000	-1,2745519E-002	41	2,1029453E-005
2	1	0	1	0	1,143264713694453E+005	2,0162196E+000	2,0156987E+000	9,743530281206874E-003	1,000000000000000E+000	-1,2057863E-002	41	1,9640021E-005
2	1	0	1	0	1,143931105536568E+005	2,0362115E+000	2,0357020E+000	8,725128934830337E-003	1,000000000000000E+000	-1,1430512E-002	41	1,7761762E-005
2	1	0	1	0	1,144597501379109E+005	2,0562034E+000	2,0556769E+000	8,056595612843387E-003	1,000000000000000E+000	-1,0865176E-002	41	1,6561758E-005
2	1	0	1	0	1,145263901221720E+005	2,0761955E+000	2,0756681E+000	7,812430764001829E-003	1,000000000000000E+000	-1,0326670E-002	41	1,6216014E-005
2	1	0	1	0	1,145930297063875E+005	2,0961876E+000	2,0956683E+000	7,631596142743897E-003	1,000000000000000E+000	-9,8020416E-003	41	1,5993293E-005
2	1	0	1	0	1,146596688906024E+005	2,1161788E+000	2,1156807E+000	7,446642827354036E-003	1,000000000000000E+000	-9,2888363E-003	41	1,5754718E-005
2	1	0	1	0	1,147263087748624E+005	2,1361709E+000	2,1356521E+000	7,283688566056195E-003	1,000000000000000E+000	-8,7868236E-003	41	1,5555424E-005
2	1	0	1	0	1,147929483591211E+005	2,1561627E+000	2,1556327E+000	7,149174857622544E-003	1,000000000000000E+000	-8,2953414E-003	41	1,5410995E-005
2	1	0	1	0	1,148595879433325E+005	2,1761546E+000	2,1756337E+000	6,999029170569035E-003	1,000000000000000E+000	-7,8132087E-003	41	1,5227323E-005
2	1	0	1	0	1,149262279275520E+005	2,1961465E+000	2,1956332E+000	6,858923848895582E-003	1,000000000000000E+000	-7,3411753E-003	41	1,5059681E-005
2	1	0	1	0	1,149928674118142E+005	2,2161381E+000	2,2156198E+000	6,712345018322165E-003	1,000000000000000E+000	-6,8782507E-003	41	1,4872005E-005
2	1	0	1	0	1,150595065960640E+005	2,2361300E+000	2,2356193E+000	6,584531635778833E-003	1,000000000000000E+000	-6,4239730E-003	41	1,4720506E-005
2	1	0	1	0	1,151261465802756E+005	2,2561221E+000	2,2556317E+000	6,472615265961768E-003	1,000000000000000E+000	-5,9779831E-003	41	1,4599837E-005
2	1	0	1	0	1,151927861645042E+005	2,2761140E+000	2,2756116E+000	6,356453876218519E-003	1,000000000000000E+000	-5,5407430E-003	41	1,4464820E-005
2	1	0	1	0	1,152594257487664E+005	2,2961056E+000	2,2955873E+000	6,234525988371570E-003	1,000000000000000E+000	-5,1109558E-003	41	1,4311899E-005
2	1	0	1	0	1,153260653330074E+005	2,3160975E+000	2,3155706E+000	6,124492973790169E-003	1,000000000000000E+000	-4,6888492E-003	41	1,4181695E-005
2	1	0	1	0	1,153927048172191E+005	2,3360896E+000	2,3355846E+000	6,022224979448612E-003	1,000000000000000E+000	-4,2739008E-003	41	1,4065417E-005
2	1	0	1	0	1,154593444014575E+005	2,3560812E+000	2,3555379E+000	5,926615310533928E-003	1,000000000000000E+000	-3,8655899E-003	41	1,3960367E-005
2	1	0	1	0	1,155259843857195E+005	2,3760729E+000	2,3755379E+000	5,824743986403841E-003	1,000000000000000E+000	-3,4631991E-003	41	1,3836900E-005
2	1	0	1	0	1,155926239699508E+005	2,3960650E+000	2,3955593E+000	5,759479785843027E-003	1,000000000000000E+000	-3,0669898E-003	41	1,3797176E-005
2	1	0	1	0	1,156592634541614E+005	2,4160569E+000	2,4155736E+000	5,685486678212948E-003	1,000000000000000E+000	-2,6759754E-003	41	1,3733711E-005
2	1	0	1	0	1,157259030384088E+005	2,4360485E+000	2,4355395E+000	5,622092528366221E-003	1,000000000000000E+000	-2,2890691E-003	41	1,3692828E-005
2	1	0	1	0	1,157925426226722E+005	2,4560404E+000	2,4555600E+000	5,583119756614463E-003	1,000000000000000E+000	-1,9055365E-003	41	1,3709685E-005
2	1	0	1	0	1,158591822068959E+005	2,4760323E+000	2,4755414E+000	5,541669891217113E-003	1,000000000000000E+000	-1,5246614E-003	41	1,3718633E-005
2	1	0	1	0	1,159258217911060E+005	2,4960241E+000	2,4955420E+000	5,517156645640578E-003	1,000000000000000E+000	-1,1460594E-003	41	1,3768296E-005
2	1	0	1	0	1,159924613753603E+005	2,5160158E+000	2,5155261E+000	5,497568067144798E-003	1,000000000000000E+000	-7,6869113E-004	41	1,3829275E-005
2	1	0	1	0	1,160591008596226E+005	2,5360076E+000	2,5355067E+000	5,507827409990354E-003	1,000000000000000E+000	-3,9196244E-004	41	1,3965134E-005
2	1	0	1	0	1,161257408438390E+005	2,5559995E+000	2,5554960E+000	5,494332160283361E-003	1,000000000000000E+000	-1,5297388E-005	41	1,4040744E-005
2	1	0	1	0	1,161923804280530E+005	2,5759916E+000	2,5754933E+000	5,527118864656705E-003	1,000000000000000E+000	3,6187953E-004	41	1,4235058E-005
2	1	0	1	0	1,162590200123126E+005	2,5959835E+000	2,5954707E+000	5,542738566198246E-003	1,000000000000000E+000	7,4055872E-004	41	1,4386015E-005
2	1	0	1	0	1,163256598965698E+005	2,6159751E+000	2,6155035E+000	5,597807404896717E-003	1,000000000000000E+000	1,1215507E-003	41	1,4641085E-005
2	1	0	1	0	1,163922990807826E+005	2,6359673E+000	2,6354911E+000	5,651870077117496E-003	1,000000000000000E+000	1,5056417E-003	41	1,4895453E-005
2	1	0	1	0	1,164589386650036E+005	2,6559587E+000	2,6554902E+000	5,691219808624776E-003	1,000000000000000E+000	1,8926059E-003	41	1,5112978E-005
2	1	0	1	0	1,165255786492656E+005	2,6759508E+000	2,6754496E+000	5,745048376220058E-003	1,000000000000000E+000	2,2831857E-003	41	1,5370588E-005
2	1	0	1	0	1,165922178335137E+005	2,6959422E+000	2,6954622E+000	5,805610778456739E-003	1,000000000000000E+000	2,6774642E-003	41	1,5648804E-005
2	1	0	1	1	1,166541928188375E+005	2,6854467E+000	2,6849120E+000	3,242096762208366E-003	1,000000000000000E+000	2,9462744E-003	42	8,7047447E-006
2	1	0	1	1	1,167208324030514E+005	2,6654549E+000	2,6649740E+000	2,046109142128001E-003	1,000000000000000E+000	3,1085701E-003	42	5,4528277E-006
2	1	0	1	1	1,167874718873119E+005	2,6454632E+000	2,6449575E+000	1,329411961732817E-003	1,000000000000000E+000	3,2094803E-003	42	3,5162382E-006
2	1	0	1	1	1,168541114715699E+005	2,6254714E+000	2,6250010E+000	8,415995039121917E-004	1,000000000000000E+000	3,2714067E-003	42	2,2091995E-006
2	1	0	1	1	1,169207510557821E+005	2,6054795E+000	2,6049223E+000	4,601150917611561E-004	1,000000000000000E+000	3,3067216E-003	43	1,1985641E-006
2	1	0	1	1	1,169873902400026E+005	2,5854876E+000	2,5849626E+000	1,931551152151230E-004	1,000000000000000E+000	3,3220209E-003	43	4,9929878E-007
2	1	0	1	1	1,170540294242643E+005	2,5654955E+000	2,5649843E+000	-4,430467126975451E-006	1,000000000000000E+000	3,3220137E-003	43	-1,1364079E-008
2	0	0	1	1	1,171206689085129E+005	2,5455041E+000	2,5450263E+000	-1,786836629533958E-004	1,000000000000000E+000	3,3092827E-003	43	-4,5475463E-007
2	0	0	1	1	1,171873080927252E+005	2,5255120E+000	2,5250378E+000	-3,315283364278647E-004	1,000000000000000E+000	3,2859293E-003	43	-8,3712155E-007
2	0	0	1	1	1,172539472769559E+005	2,5055201E+000	2,5050786E+000	-4,755532299039033E-004	1,000000000000000E+000	3,2530304E-003	43	-1,1912982E-006
2	0	0	1	1	1,173205868612184E+005	2,4855282E+000	2,4850943E+000	-5,974462767813012E-004	1,000000000000000E+000	3,2116352E-003	43	-1,4847103E-006
2	0	0	1	1	1,173872260454572E+005	2,4655366E+000	2,4650879E+000	-6,511500685203931E-004	1,000000000000000E+000	3,1623836E-003	42	-1,6051422E-006
2	0	0	1	1	1,174538656296672E+005	2,4455447E+000	2,4450343E+000	-7,525107652476826E-004	1,000000000000000E+000	3,1059419E-003	42	-1,8399146E-006
2	0	0	1	1	1,175205051139067E+005	2,4255531E+000	2,4250793E+000	-8,587457282714771E-004	1,000000000000000E+000	3,0428465E-003	42	-2,0825266E-006
2	0	0	1	1	1,175871442981702E+005	2,4055610E+000	2,4050620E+000	-9,610215133754371E-004	1,000000000000000E+000	2,9731533E-003	42	-2,3113164E-006
2	0	0	1	1	1,176537838824021E+005	2,3855693E+000	2,3851135E+000	-1,051003841456320E-003	1,000000000000000E+000	2,8970165E-003	42	-2,5067634E-006
2	0	0	1	1	1,177204230666125E+005	2,3655772E+000	2,3650899E+000	-1,157515419206844E-003	1,000000000000000E+000	2,8143863E-003	42	-2,7376279E-006
2	0	0	1	1	1,177870622508588E+005	2,3455853E+000	2,3451111E+000	-1,252613644341437E-003	1,000000000000000E+000	2,7252212E-003	42	-2,9375183E-006
2	0	0	1	1	1,178537017351218E+005	2,3255935E+000	2,3251052E+000	-1,358729265455480E-003	1,000000000000000E+000	2,6293765E-003	42	-3,1591885E-006
2	0	0	1	1	1,179203409193454E+005	2,3056018E+000	2,3051388E+000	-1,457347225953039E-003	1,000000000000000E+000	2,5267729E-003	42	-3,3593876E-006
2	0	0	1	1	1,179869801035570E+005	2,2856100E+000	2,2851481E+000	-1,558468825078634E-003	1,000000000000000E+000	2,4171604E-003	42	-3,5613321E-006
2	0	0	1	1	1,180536196878122E+005	2,2656181E+000	2,2651315E+000	-1,674105242597618E-003	1,000000000000000E+000	2,3003013E-003	42	-3,7920686E-006
2	0	0	1	1	1,181202592720728E+005	2,2456264E+000	2,2451410E+000	-1,789598900307499E-003	1,000000000000000E+000	2,1760203E-003	42	-4,0179020E-006
2	0	0	1	1	1,181868984562886E+005	2,2256343E+000	2,2251668E+000	-1,901104003841570E-003	1,000000000000000E+000	2,0439855E-003	42	-4,2302736E-006
2	0	0	1	1	1,182535379405034E+005	2,2056425E+000	2,2051494E+000	-2,038430256892411E-003	1,000000000000000E+000	1,9038349E-003	42	-4,4950434E-006
2	0	0	1	1	1,183201771247648E+005	2,1856503E+000	2,1851707E+000	-2,160502320349800E-003	1,000000000000000E+000	1,7551294E-003	42	-4,7210660E-006
2	0	0	1	1	1,183868163090213E+005	2,1656587E+000	2,1651702E+000	-2,306079438483131E-003	1,000000000000000E+000	1,5973075E-003	42	-4,9930545E-006
2	0	0	1	1	1,184534558932325E+005	2,1456666E+000	2,1451976E+000	-2,447954094215953E-003	1,000000000000000E+000	1,4300548E-003	42	-5,2513451E-006
2	0	0	1	1	1,185200954774546E+005	2,1256750E+000	2,1251776E+000	-2,605798307033287E-003	1,000000000000000E+000	1,2527591E-003	42	-5,5377841E-006
2	0	0	1	1	1,185867341617169E+005	2,1056833E+000	2,1052310E+000	-2,768987204385336E-003	1,000000000000000E+000	1,0647920E-003	42	-5,8293576E-006
2	0	0	1	1	1,186533737459659E+005	2,0856915E+000	2,0852096E+000	-2,933407994587099E-003	1,000000000000000E+000	8,6570869E-004	42	-6,1167707E-006
2	0	0	1	1	1,187200133301765E+005	2,0656998E+000	2,0652306E+000	-3,116593319723117E-003	1,000000000000000E+000	6,5480929E-004	42	-6,4364840E-006
2	0	0	1	1	1,187866525144067E+005	2,0457077E+000	2,0452175E+000	-3,324630754782440E-003	1,000000000000000E+000	4,3145500E-004	42	-6,7995929E-006
2	0	0	1	1	1,188532920986691E+005	2,0257158E+000	2,0252557E+000	-3,540927926178730E-003	1,000000000000000E+000	1,9443165E-004	42	-7,1712843E-006
2	0	0	1	1	1,189199316829091E+005	2,0057240E+000	2,0052590E+000	-3,775579388125390E-003	1,000000000000000E+000	-5,7798414E-005	42	-7,5710145E-006
2	0	0	1	1	1,189865707671207E+005	1,9857326E+000	1,9852583E+000	-4,041991599139150E-003	1,000000000000000E+000	-3,2707705E-004	42	-8,0243972E-006
2	0	0	1	1	1,190532101513594E+005	1,9657404E+000	1,9652755E+000	-4,350802012005543E-003	1,000000000000000E+000	-6,1546545E-004	42	-8,5505244E-006
2	0	0	1	1	1,191198497356211E+005	1,9457487E+000	1,9452505E+000	-4,679898753972679E-003	1,000000000000000E+000	-9,2505506E-004	42	-9,1035754E-006
2	0	0	1	1	1,191864893198514E+005	1,9257567E+000	1,9252980E+000	-5,036535687665182E-003	1,000000000000000E+000	-1,2573650E-003	42	-9,6968315E-006
2	0	0	1	1	1,192531286040638E+005	1,9057647E+000	1,9052917E+000	-5,404353127710304E-003	1,000000000000000E+000	-1,6140582E-003	42	-1,0296869E-005
2	0	0	1	1	1,193197679883125E+005	1,8857731E+000	1,8853096E+000	-5,809656027994617E-003	1,000000000000000E+000	-1,9965384E-003	42	-1,0953000E-005
2	0	0	1	1	1,193827424734346E+005	1,8668808E+000	1,8664224E+000	-6,250372580564167E-003	2,000000000000000E+000	-2,3847711E-003	42	-1,1665836E-005
2	0	0	1	1	1,194493818576705E+005	1,8468889E+000	1,8464555E+000	-6,796131151880658E-003	2,000000000000000E+000	-2,8281598E-003	42	-1,2548753E-005
2	0	0	1	1	1,195160214418806E+005	1,8268971E+000	1,8264643E+000	-7,356741638878395E-003	2,000000000000000E+000	-3,3088876E-003	42	-1,3436826E-005
2	0	0	1	1	1,195826610261230E+005	1,8069052E+000	1,8064725E+000	-7,926015835200945E-003	2,000000000000000E+000	-3,8274506E-003	42	-1,4318130E-005
2	0	0	1	1	1,196493003103863E+005	1,7869133E+000	1,7864751E+000	-8,487855916265684E-003	2,000000000000000E+000	-4,3827845E-003	42	-1,5163343E-005
2	0	0	1	1	1,197159396946142E+005	1,7669216E+000	1,7664794E+000	-9,053777965620353E-003	2,000000000000000E+000	-4,9756942E-003	42	-1,5993312E-005
2	0	0	1	1	1,197825792788254E+005	1,7469296E+000	1,7465461E+000	-9,533428415598275E-003	2,000000000000000E+000	-5,6042634E-003	42	-1,6650572E-005
2	0	0	1	1	1,198492188630767E+005	1,7269379E+000	1,7264404E+000	-9,976759809651903E-003	2,000000000000000E+000	-6,2657301E-003	41	-1,7224282E-005
2	0	0	1	1	1,199158582473383E+005	1,7069460E+000	1,7064199E+000	-1,042624726697047E-002	2,000000000000000E+000	-6,9550648E-003	41	-1,7791557E-005
2	0	0	1	1	1,199824978315567E+005	1,6869541E+000	1,6863884E+000	-1,102670617184681E-002	2,000000000000000E+000	-7,6775327E-003	41	-1,8595309E-005
2	0	0	1	1	1,200491373157701E+005	1,6669624E+000	1,6664000E+000	-1,195120916593422E-002	2,000000000000000E+000	-8,4495340E-003	41	-1,9915495E-005
2	0	0	1	1	1,201157769000297E+005	1,6469705E+000	1,6464483E+000	-1,342876023665970E-002	2,000000000000000E+000	-9,2998827E-003	41	-2,2109758E-005
2	0	0	1	1	1,201824162842887E+005	1,6269785E+000	1,6264627E+000	-1,572042320518624E-002	2,000000000000000E+000	-1,0275375E-002	41	-2,5568683E-005
2	0	0	1	1	1,202490558685014E+005	1,6069866E+000	1,6064651E+000	-1,913161069390990E-002	2,000000000000000E+000	-1,1440624E-002	41	-3,0734263E-005
2	0	0	1	1	1,203156954527179E+005	1,5869949E+000	1,5864837E+000	-2,400209450050750E-002	2,000000000000000E+000	-1,2879155E-002	41	-3,8078932E-005
2	0	0	1	1	1,203823347369805E+005	1,5670031E+000	1,5664893E+000	-3,085804728934920E-002	2,000000000000000E+000	-1,4703545E-002	41	-4,8338803E-005
2	0	0	1	1	1,204489743212336E+005	1,5470111E+000	1,5465281E+000	-4,223685952992828E-002	2,000000000000000E+000	-1,7104894E-002	41	-6,5320492E-005
2	0	0	1	1	1,205156137054453E+005	1,5270194E+000	1,5265862E+000	-7,243894117356103E-002	2,000000000000000E+000	-2,0792713E-002	41	-1,1058429E-004
2	0	0	1	1	1,205822532896709E+005	1,5070275E+000	1,5064844E+000	-1,124060826917832E-001	2,000000000000000E+000	-2,6991021E-002	40	-1,6933800E-004
2	0	0	1	1	1,206488928739326E+005	1,4870359E+000	1,4865245E+000	-1,432482185718031E-001	2,000000000000000E+000	-3,5578359E-002	40	-2,1294199E-004
2	0	0	1	1	1,207155321581772E+005	1,4670440E+000	1,4665253E+000	-1,641453772122332E-001	2,000000000000000E+000	-4,5887828E-002	40	-2,4072336E-004
2	0	0	1	1	1,207821715423887E+005	1,4470521E+000	1,4465555E+000	-1,761994350516605E-001	2,000000000000000E+000	-5,7285927E-002	40	-2,5488227E-004
2	0	0	1	1	1,208488111266237E+005	1,4270602E+000	1,4265324E+000	-1,807279668849642E-001	2,000000000000000E+000	-6,9224752E-002	40	-2,5781430E-004
2	0	0	1	1	1,209154507108850E+005	1,4070685E+000	1,4065598E+000	-1,796489122212486E-001	2,000000000000000E+000	-8,1267647E-002	40	-2,5268694E-004
2	0	0	1	1	1,209820899951197E+005	1,3870764E+000	1,3865683E+000	-1,746611870335228E-001	2,000000000000000E+000	-9,3100429E-002	40	-2,4217967E-004
2	0	0	1	1	1,210487295793316E+005	1,3670847E+000	1,3665549E+000	-1,674504904869356E-001	2,000000000000000E+000	-1,0451718E-001	40	-2,2883028E-004
2	0	0	1	1	1,211153689635760E+005	1,3470929E+000	1,3465676E+000	-1,590468474355382E-001	2,000000000000000E+000	-1,1540779E-001	40	-2,1416733E-004
2	0	0	1	1	1,211820085478390E+005	1,3271010E+000	1,3265818E+000	-1,502646504457328E-001	2,000000000000000E+000	-1,2572406E-001	40	-1,9933836E-004
2	0	0	1	1	1,212486481320638E+005	1,3071092E+000	1,3065617E+000	-1,413484483254970E-001	2,000000000000000E+000	-1,3544793E-001	40	-1,8468047E-004
2	0	0	1	1	1,213152875162743E+005	1,2871172E+000	1,2865875E+000	-1,322184691690658E-001	2,000000000000000E+000	-1,4457060E-001	40	-1,7011062E-004
2	0	0	1	1	1,213819268005274E+005	1,2671256E+000	1,2665719E+000	-1,229108677394177E-001	2,000000000000000E+000	-1,5307757E-001	40	-1,5567544E-004
2	0	0	1	1	1,214485663847905E+005	1,2471336E+000	1,2465752E+000	-1,142629096904356E-001	2,000000000000000E+000	-1,6097838E-001	40	-1,4243732E-004
2	0	0	1	1	1,215152059690091E+005	1,2271419E+000	1,2265781E+000	-1,062056026975662E-001	2,000000000000000E+000	-1,6832766E-001	40	-1,3026947E-004
2	0	0	1	1	1,215818455532215E+005	1,2071500E+000	1,2065860E+000	-9,840407648861405E-002	2,000000000000000E+000	-1,7514859E-001	40	-1,1873298E-004
2	0	0	1	1	1,216484849374798E+005	1,1871581E+000	1,1866542E+000	-9,076125370067434E-002	2,000000000000000E+000	-1,8145449E-001	40	-1,0770222E-004
2	0	0	1	1	1,217151242217386E+005	1,1671664E+000	1,1666150E+000	-8,343201548156065E-002	2,000000000000000E+000	-1,8726158E-001	40	-9,7333039E-005
2	0	0	1	1	1,217817638059516E+005	1,1471744E+000	1,1466498E+000	-7,646400339470050E-002	2,000000000000000E+000	-1,9259082E-001	40	-8,7677436E-005
2	0	0	1	1	1,218484033901703E+005	1,1271825E+000	1,1266267E+000	-6,994764691065369E-002	2,000000000000000E+000	-1,9746970E-001	40	-7,8804886E-005
2	0	0	1	1	1,219150427744323E+005	1,1071907E+000	1,1066294E+000	-6,395529182928258E-002	2,000000000000000E+000	-2,0193155E-001	40	-7,0774804E-005
2	0	0	1	1	1,219816823586840E+005	1,0871987E+000	1,0866638E+000	-5,859943643820542E-002	2,000000000000000E+000	-2,0601609E-001	40	-6,3677886E-005
2	0	0	1	1	1,220483217428953E+005	1,0672070E+000	1,0666490E+000	-5,392650079010430E-002	2,000000000000000E+000	-2,0976634E-001	40	-5,7520647E-005
2	0	0	1	1	1,221149612271222E+005	1,0472151E+000	1,0466319E+000	-4,996003638446034E-002	2,000000000000000E+000	-2,1322712E-001	40	-5,2289768E-005
2	0	0	1	1	1,221816008113852E+005	1,0272233E+000	1,0266937E+000	-4,676014184840756E-002	2,000000000000000E+000	-2,1644902E-001	41	-4,8008344E-005
2	0	0	1	1	1,222482401956278E+005	1,0072315E+000	1,0067210E+000	-4,444504186919285E-002	2,000000000000000E+000	-2,1948762E-001	41	-4,4743760E-005
2	0	0	1	1	1,223108821807917E+005	1,0115297E+000	1,0109971E+000	-3,369204380941648E-002	2,000000000000000E+000	-2,2200070E-001	41	-3,4062556E-005
2	0	0	1	1	1,223775216650119E+005	1,0315216E+000	1,0309936E+000	-2,496254715868307E-002	2,000000000000000E+000	-2,2392899E-001	41	-2,5736226E-005
2	0	0	1	1	1,224441612492746E+005	1,0515136E+000	1,0509737E+000	-1,895182783530956E-002	2,000000000000000E+000	-2,2537713E-001	41	-1,9917872E-005
2	0	0	1	1	1,225108006335255E+005	1,0715052E+000	1,0709696E+000	-1,449501853067975E-002	2,000000000000000E+000	-2,2648038E-001	41	-1,5523723E-005
2	0	0	1	1	1,225774402177362E+005	1,0914972E+000	1,0909703E+000	-1,111989236130159E-002	2,000000000000000E+000	-2,2732490E-001	41	-1,2131472E-005
2	0	0	1	1	1,226440800019649E+005	1,1114889E+000	1,1109467E+000	-8,499575585275643E-003	2,000000000000000E+000	-2,2797090E-001	41	-9,4425750E-006
2	0	0	1	1	1,227107195862267E+005	1,1314808E+000	1,1309417E+000	-6,447961984723704E-003	2,000000000000000E+000	-2,2846213E-001	41	-7,2922694E-006
2	0	0	1	1	1,227773590704679E+005	1,1514727E+000	1,1509686E+000	-4,793496250284301E-003	2,000000000000000E+000	-2,2883064E-001	42	-5,5171636E-006
2	0	0	1	1	1,228439988546794E+005	1,1714644E+000	1,1709473E+000	-3,480988059016660E-003	2,000000000000000E+000	-2,2910127E-001	42	-4,0760538E-006
2	0	0	1	1	1,229106384389175E+005	1,1914564E+000	1,1909387E+000	-2,407749482246348E-003	2,000000000000000E+000	-2,2929238E-001	42	-2,8674820E-006
2	0	0	1	1	1,229772778231795E+005	1,2114482E+000	1,2109056E+000	-1,510296957588354E-003	2,000000000000000E+000	-2,2941811E-001	42	-1,8288270E-006
2	0	0	1	1	1,230439177074106E+005	1,2314399E+000	1,2308688E+000	-7,590464851141444E-004	2,000000000000000E+000	-2,2948909E-001	42	-9,3428667E-007
2	0	0	1	1	1,231105572916230E+005	1,2514319E+000	1,2509001E+000	-1,060959021164352E-004	2,000000000000000E+000	-2,2951359E-001	43	-1,3271539E-007
2	1	0	1	1	1,231771966758706E+005	1,2714237E+000	1,2708030E+000	4,607457368032551E-004	2,000000000000000E+000	-2,2949862E-001	43	5,8551706E-007
2	1	0	1	1	1,232438364601330E+005	1,2914156E+000	1,2908673E+000	9,630110745746951E-004	2,000000000000000E+000	-2,2944769E-001	42	1,2431195E-006
2	1	0	1	1	1,233104760443546E+005	1,3114074E+000	1,3108248E+000	1,425898592064628E-003	2,000000000000000E+000	-2,2936441E-001	42	1,8691031E-006
2	1	0	1	1	1,233771156285645E+005	1,3313993E+000	1,3308243E+000	1,879152847422635E-003	2,000000000000000E+000	-2,2925065E-001	42	2,5008221E-006
2	1	0	1	1	1,234437553128214E+005	1,3513911E+000	1,3508132E+000	2,328302262030598E-003	2,000000000000000E+000	-2,2910711E-001	42	3,1451013E-006
2	1	0	1	1	1,235103948970835E+005	1,3713830E+000	1,3708084E+000	2,799159269067680E-003	2,000000000000000E+000	-2,2893295E-001	42	3,8371109E-006
2	1	0	1	1	1,235770342812992E+005	1,3913748E+000	1,3907919E+000	3,330341222329572E-003	2,000000000000000E+000	-2,2872543E-001	42	4,6318114E-006
2	1	0	1	1	1,236436742655132E+005	1,4113666E+000	1,4107817E+000	3,935338598694840E-003	2,000000000000000E+000	-2,2848032E-001	42	5,5519040E-006
2	1	0	1	1	1,237103138497733E+005	1,4313585E+000	1,4307520E+000	4,672477808069453E-003	2,000000000000000E+000	-2,2819041E-001	42	6,6851571E-006
2	1	0	1	1	1,237769531340309E+005	1,4513503E+000	1,4507285E+000	5,568679836859512E-003	2,000000000000000E+000	-2,2784613E-001	42	8,0786431E-006
2	1	0	1	1	1,238435931182423E+005	1,4713422E+000	1,4707266E+000	6,674538074539715E-003	2,000000000000000E+000	-2,2743531E-001	42	9,8164210E-006
2	1	0	1	1	1,239102325024634E+005	1,4913341E+000	1,4907014E+000	8,002756349693302E-003	2,000000000000000E+000	-2,2694390E-001	42	1,1929720E-005
2	1	0	1	1	1,239768720867254E+005	1,5113260E+000	1,5106966E+000	9,739799673934180E-003	2,000000000000000E+000	-2,2635227E-001	42	1,4713883E-005
2	1	0	1	1	1,240435120709736E+005	1,5313178E+000	1,5307708E+000	1,225474896262890E-002	2,000000000000000E+000	-2,2561969E-001	41	1,8759212E-005
2	1	0	1	1	1,241101513551855E+005	1,5513093E+000	1,5507494E+000	1,622916561841224E-002	2,000000000000000E+000	-2,2467703E-001	41	2,5167370E-005
2	1	0	1	1	1,241767907394161E+005	1,5713013E+000	1,5707331E+000	2,241854628104556E-002	2,000000000000000E+000	-2,2339831E-001	41	3,5213550E-005
2	1	0	1	1	1,242434307236790E+005	1,5912932E+000	1,5907252E+000	3,619451551927533E-002	2,000000000000000E+000	-2,2153801E-001	41	5,7575526E-005
2	1	0	1	1	1,243100703079179E+005	1,6112849E+000	1,6106579E+000	6,537538621499750E-002	2,000000000000000E+000	-2,1817562E-001	41	1,0529738E-004
2	1	0	1	1	1,243767096921282E+005	1,6312770E+000	1,6306381E+000	9,640039067670481E-002	2,000000000000000E+000	-2,1278429E-001	41	1,5719415E-004
2	1	0	1	1	1,244433495763678E+005	1,6512688E+000	1,6507008E+000	1,302603900256940E-001	2,000000000000000E+000	-2,0525244E-001	40	2,1502093E-004
2	1	0	1	1	1,245099889606305E+005	1,6712606E+000	1,6707002E+000	1,734803136593714E-001	2,000000000000000E+000	-1,9520485E-001	40	2,8983358E-004
2	1	0	1	1	1,245766287448620E+005	1,6912525E+000	1,6907135E+000	2,377174539801175E-001	2,000000000000000E+000	-1,8164621E-001	40	4,0191211E-004
2	1	0	1	1	1,246432685290731E+005	1,7112445E+000	1,7106390E+000	3,280949866893115E-001	2,000000000000000E+000	-1,6288015E-001	40	5,6125206E-004
2	1	0	1	1	1,247099081133201E+005	1,7312363E+000	1,7306459E+000	4,214384716443567E-001	2,000000000000000E+000	-1,3778825E-001	40	7,2936073E-004
2	1	0	1	1	1,247765475975824E+005	1,7512279E+000	1,7506232E+000	4,618396449899725E-001	2,000000000000000E+000	-1,0783594E-001	40	8,0850720E-004
2	1	0	1	1	1,248431873818047E+005	1,7712197E+000	1,7706234E+000	3,956845296902589E-001	2,000000000000000E+000	-7,8739740E-002	40	7,0060830E-004
2	1	0	1	1	1,249098267660163E+005	1,7912115E+000	1,7906278E+000	3,001521265045881E-001	2,000000000000000E+000	-5,5653211E-002	40	5,3746073E-004
2	1	0	1	1	1,249764663502721E+005	1,8112035E+000	1,8106413E+000	2,123970146397043E-001	2,000000000000000E+000	-3,8521998E-002	40	3,8457481E-004
2	1	0	1	1	1,250431062345325E+005	1,8311954E+000	1,8306680E+000	1,168518407440446E-001	2,000000000000000E+000	-2,7556032E-002	40	2,1391692E-004
2	1	0	1	1	1,251097458187477E+005	1,8511872E+000	1,8506396E+000	5,011772228928213E-002	2,000000000000000E+000	-2,2289198E-002	40	9,2749840E-005
2	1	0	1	1	1,251763852029638E+005	1,8711791E+000	1,8706262E+000	2,791913526897982E-002	2,000000000000000E+000	-1,9822046E-002	41	5,2226267E-005
2	1	0	1	1	1,252430249872258E+005	1,8911710E+000	1,8906353E+000	1,985900277561375E-002	2,000000000000000E+000	-1,8253511E-002	41	3,7546131E-005
2	1	0	1	1	1,253096645714812E+005	1,9111629E+000	1,9106319E+000	1,551153289692364E-002	2,000000000000000E+000	-1,7075198E-002	41	2,9636829E-005
2	1	0	1	1	1,253763041556911E+005	1,9311546E+000	1,9306048E+000	1,336839917642649E-002	2,000000000000000E+000	-1,6108882E-002	41	2,5809095E-005
2	1	0	1	1	1,254429438399132E+005	1,9511464E+000	1,9506208E+000	1,211657569982079E-002	2,000000000000000E+000	-1,5250041E-002	41	2,3634844E-005
2	1	0	1	1	1,255095834241763E+005	1,9711384E+000	1,9705858E+000	1,118236790383016E-002	2,000000000000000E+000	-1,4462953E-002	41	2,2035816E-005
2	1	0	1	1	1,255762228084253E+005	1,9911301E+000	1,9906192E+000	1,041263344092344E-002	2,000000000000000E+000	-1,3731445E-002	41	2,0727588E-005
2	1	0	1	1	1,256428629926355E+005	2,0111217E+000	2,0105646E+000	9,672024242465504E-003	2,000000000000000E+000	-1,3049955E-002	41	1,9446230E-005
2	1	0	1	1	1,257095024768661E+005	2,0311141E+000	2,0306151E+000	8,788304447209308E-003	2,000000000000000E+000	-1,2421750E-002	41	1,7845663E-005
2	1	0	1	1	1,257761416611285E+005	2,0511055E+000	2,0505965E+000	7,988027282986317E-003	2,000000000000000E+000	-1,1850604E-002	41	1,6380221E-005
2	1	0	1	1	1,258427816453682E+005	2,0710971E+000	2,0705807E+000	7,646122027525439E-003	2,000000000000000E+000	-1,1319440E-002	41	1,5831913E-005
2	1	0	1	1	1,259094212295798E+005	2,0910892E+000	2,0905669E+000	7,434714600064195E-003	2,000000000000000E+000	-1,0805474E-002	41	1,5542768E-005
2	1	0	1	1	1,259760608138186E+005	2,1110811E+000	2,1105618E+000	7,261657763955723E-003	2,000000000000000E+000	-1,0304130E-002	41	1,5326177E-005
2	1	0	1	1	1,260427006980805E+005	2,1310730E+000	2,1305559E+000	7,114467900913080E-003	2,000000000000000E+000	-9,8134382E-003	41	1,5157771E-005
2	1	0	1	1	1,261093402823107E+005	2,1510649E+000	2,1505508E+000	6,955201389111126E-003	2,000000000000000E+000	-9,3332343E-003	41	1,4957514E-005
2	1	0	1	1	1,261759798665233E+005	2,1710567E+000	2,1705470E+000	6,806034667751391E-003	2,000000000000000E+000	-8,8630710E-003	41	1,4772818E-005
2	1	0	1	1	1,262426194507717E+005	2,1910484E+000	2,1905458E+000	6,661654221999130E-003	2,000000000000000E+000	-8,4024835E-003	41	1,4592659E-005
2	1	0	1	1	1,263092590350338E+005	2,2110403E+000	2,2105565E+000	6,540340507338052E-003	2,000000000000000E+000	-7,9510147E-003	41	1,4457793E-005
2	1	0	1	1	1,263758985192544E+005	2,2310321E+000	2,2305677E+000	6,404708788971980E-003	2,000000000000000E+000	-7,5083808E-003	41	1,4286136E-005
2	1	0	1	1	1,264425381034650E+005	2,2510238E+000	2,2505190E+000	6,282633194530275E-003	2,000000000000000E+000	-7,0744022E-003	41	1,4139186E-005
2	1	0	1	1	1,265091776877230E+005	2,2710159E+000	2,2704856E+000	6,161686402014414E-003	2,000000000000000E+000	-6,6486709E-003	41	1,3990020E-005
2	1	0	1	1	1,265758172719837E+005	2,2910078E+000	2,2904892E+000	6,042051856212025E-003	2,000000000000000E+000	-6,2305438E-003	41	1,3839254E-005
2	1	0	1	1	1,266424572561989E+005	2,3109994E+000	2,3104875E+000	5,923585551230293E-003	2,000000000000000E+000	-5,8199870E-003	41	1,3686370E-005
2	1	0	1	1	1,267090968404140E+005	2,3309915E+000	2,3304982E+000	5,836122021994086E-003	2,000000000000000E+000	-5,4166913E-003	41	1,3601072E-005
2	1	0	1	1	1,267757363246749E+005	2,3509831E+000	2,3504875E+000	5,745640249317563E-003	2,000000000000000E+000	-5,0197202E-003	41	1,3505055E-005
2	1	0	1	1	1,268423763089306E+005	2,3709755E+000	2,3704541E+000	5,658991936380475E-003	2,000000000000000E+000	-4,6288520E-003	41	1,3414380E-005
2	1	0	1	1	1,269090154931417E+005	2,3909667E+000	2,3904767E+000	5,565699546156676E-003	2,000000000000000E+000	-4,2435532E-003	41	1,3304675E-005
2	1	0	1	1	1,269756550773650E+005	2,4109585E+000	2,4104803E+000	5,500304215600410E-003	2,000000000000000E+000	-3,8633437E-003	41	1,3258375E-005
2	1	0	1	1	1,270422949616266E+005	2,4309506E+000	2,4304729E+000	5,431985570021648E-003	2,000000000000000E+000	-3,4878124E-003	41	1,3202293E-005
2	1	0	1	1	1,271089341458734E+005	2,4509425E+000	2,4504290E+000	5,357611737349222E-003	2,000000000000000E+000	-3,1167592E-003	41	1,3128447E-005
2	1	0	1	1	1,271755737300850E+005	2,4709342E+000	2,4704442E+000	5,284278658020222E-003	2,000000000000000E+000	-2,7514906E-003	41	1,3054516E-005
2	1	0	1	1	1,272422137143177E+005	2,4909260E+000	2,4904416E+000	5,207337320134856E-003	2,000000000000000E+000	-2,3914266E-003	41	1,2968570E-005
2	1	0	1	1	1,273088532985806E+005	2,5109181E+000	2,5104439E+000	5,169074967885354E-003	2,000000000000000E+000	-2,0351633E-003	41	1,2976673E-005
2	1	0	1	1	1,273754928828182E+005	2,5309100E+000	2,5304124E+000	5,117339437494248E-003	2,000000000000000E+000	-1,6819320E-003	41	1,2948979E-005
2	1	0	1	1	1,274421327670281E+005	2,5509019E+000	2,5504382E+000	5,098137417722526E-003	2,000000000000000E+000	-1,3312366E-003	41	1,3002485E-005
2	1	0	1	1	1,275087719512688E+005	2,5708933E+000	2,5704098E+000	5,108398836365951E-003	2,000000000000000E+000	-9,8107930E-004	41	1,3130678E-005
2	1	0	1	1	1,275754115355317E+005	2,5908852E+000	2,5903704E+000	5,122177304467512E-003	2,000000000000000E+000	-6,3000561E-004	41	1,3268336E-005
2	1	0	1	1	1,276420515197620E+005	2,6108770E+000	2,6104059E+000	5,178319284501453E-003	2,000000000000000E+000	-2,7648071E-004	41	1,3517515E-005
2	1	0	1	1	1,277086910039727E+005	2,6308694E+000	2,6304188E+000	5,234520692508932E-003	2,000000000000000E+000	8,0332546E-005	41	1,3768981E-005
2	1	0	1	1	1,277753301882208E+005	2,6508608E+000	2,6504073E+000	5,289629367501769E-003	2,000000000000000E+000	4,4044037E-004	41	1,4019673E-005
2	1	0	1	1	1,278419701724837E+005	2,6708524E+000	2,6703868E+000	5,340242344130861E-003	2,000000000000000E+000	8,0425385E-004	41	1,4260512E-005
2	1	0	1	1	1,279086097567050E+005	2,6908448E+000	2,6904128E+000	5,438602902868177E-003	2,000000000000000E+000	1,1725300E-003	41	1,4632086E-005
2	1	0	1	0	1,279709175419486E+005	2,6904447E+000	2,6899886E+000	3,439054012594249E-003	2,000000000000000E+000	1,4664568E-003	42	9,2510163E-006
2	1	0	1	0	1,280375571261898E+005	2,6704528E+000	2,6700242E+000	2,103666352309509E-003	2,000000000000000E+000	1,6361696E-003	42	5,6168401E-006
2	1	0	1	0	1,281041966104531E+005	2,6504612E+000	2,6500010E+000	1,344991310681609E-003	2,000000000000000E+000	1,7397139E-003	42	3,5642283E-006
2	1	0	1	0	1,281708361946819E+005	2,6304696E+000	2,6300058E+000	8,370439629586616E-004	2,000000000000000E+000	1,8025091E-003	42	2,2014306E-006
2	1	0	1	0	1,282374757788926E+005	2,6104774E+000	2,6099579E+000	4,505551176771952E-004	2,000000000000000E+000	1,8371841E-003	43	1,1759299E-006
2	1	0	1	0	1,283041149631420E+005	2,5904856E+000	2,5899870E+000	1,791564225134931E-004	2,000000000000000E+000	1,8513950E-003	43	4,6401280E-007
2	1	0	1	0	1,283707541474041E+005	2,5704932E+000	2,5700247E+000	-4,063881096561699E-005	2,000000000000000E+000	1,8495312E-003	43	-1,0444275E-007
2	0	0	1	0	1,284373937316246E+005	2,5505016E+000	2,5500503E+000	-2,073569426484416E-004	2,000000000000000E+000	1,8354359E-003	43	-5,2877061E-007
2	0	0	1	0	1,285040328158379E+005	2,5305099E+000	2,5300894E+000	-3,449271057416881E-004	2,000000000000000E+000	1,8109863E-003	43	-8,7269643E-007
2	0	0	1	0	1,285706720000959E+005	2,5105181E+000	2,5100996E+000	-4,834863213897386E-004	2,000000000000000E+000	1,7774653E-003	43	-1,2135988E-006
2	0	0	1	0	1,286373115843540E+005	2,4905262E+000	2,4901271E+000	-5,865521912191795E-004	2,000000000000000E+000	1,7361089E-003	43	-1,4605895E-006
2	0	0	1	0	1,287039507685672E+005	2,4705343E+000	2,4701393E+000	-6,822135263597874E-004	2,000000000000000E+000	1,6874794E-003	43	-1,6851624E-006
2	0	0	1	0	1,287705903527848E+005	2,4505427E+000	2,4500854E+000	-7,518075131940343E-004	2,000000000000000E+000	1,6319344E-003	42	-1,8419926E-006
2	0	0	1	0	1,288372298370483E+005	2,4305508E+000	2,4300947E+000	-8,457110254504168E-004	2,000000000000000E+000	1,5699463E-003	42	-2,0551579E-006
2	0	0	1	0	1,289038690213021E+005	2,4105592E+000	2,4101207E+000	-9,351107724686024E-004	2,000000000000000E+000	1,5017661E-003	42	-2,2537299E-006
2	0	0	1	0	1,289705086055123E+005	2,3905673E+000	2,3901212E+000	-1,023551997088340E-003	2,000000000000000E+000	1,4274137E-003	42	-2,4464134E-006
2	0	0	1	0	1,290371477897366E+005	2,3705752E+000	2,3701167E+000	-1,113642019285235E-003	2,000000000000000E+000	1,3468502E-003	42	-2,6394616E-006
2	0	0	1	0	1,291037869739998E+005	2,3505833E+000	2,3501210E+000	-1,210518880985008E-003	2,000000000000000E+000	1,2603322E-003	42	-2,8448658E-006
2	0	0	1	0	1,291704264582454E+005	2,3305917E+000	2,3301210E+000	-1,310780700596488E-003	2,000000000000000E+000	1,1677194E-003	42	-3,0542776E-006
2	0	0	1	0	1,292370656424570E+005	2,3105996E+000	2,3101459E+000	-1,398088768154167E-003	2,000000000000000E+000	1,0689091E-003	42	-3,2297889E-006
2	0	0	1	0	1,293037048266901E+005	2,2906079E+000	2,2901263E+000	-1,502440563666578E-003	2,000000000000000E+000	9,6353982E-004	42	-3,4407788E-006
2	0	0	1	0	1,293703444109519E+005	2,2706161E+000	2,2701502E+000	-1,601475214166637E-003	2,000000000000000E+000	8,5162709E-004	42	-3,6355893E-006
2	0	0	1	0	1,294369839951884E+005	2,2506239E+000	2,2501681E+000	-1,703401284462176E-003	2,000000000000000E+000	7,3275925E-004	42	-3,8329390E-006
2	0	0	1	0	1,295036231793996E+005	2,2306323E+000	2,2301731E+000	-1,814383156376692E-003	2,000000000000000E+000	6,0672319E-004	42	-4,0463883E-006
2	0	0	1	0	1,295702626636429E+005	2,2106407E+000	2,2101786E+000	-1,930502979261887E-003	2,000000000000000E+000	4,7339630E-004	42	-4,2667566E-006
2	0	0	1	0	1,296369022479048E+005	2,1906486E+000	2,1902068E+000	-2,047324958161290E-003	2,000000000000000E+000	3,3197642E-004	42	-4,4840649E-006
2	0	0	1	0	1,297035410321327E+005	2,1706567E+000	2,1702216E+000	-2,188816278205684E-003	2,000000000000000E+000	1,8210462E-004	42	-4,7502162E-006
2	0	0	1	0	1,297701806163432E+005	2,1506648E+000	2,1502285E+000	-2,324004438856722E-003	2,000000000000000E+000	2,3048769E-005	42	-4,9971404E-006
2	0	0	1	0	1,298368202005944E+005	2,1306727E+000	2,1302338E+000	-2,470201536930332E-003	2,000000000000000E+000	-1,4543625E-004	42	-5,2621067E-006
2	0	0	1	0	1,299034588848576E+005	2,1106813E+000	2,1102462E+000	-2,620227919701582E-003	2,000000000000000E+000	-3,2363637E-004	42	-5,5293258E-006
2	0	0	1	0	1,299700984690762E+005	2,0906894E+000	2,0902417E+000	-2,770435501896148E-003	2,000000000000000E+000	-5,1202503E-004	42	-5,7908796E-006
2	0	0	1	0	1,300367380532888E+005	2,0706975E+000	2,0702412E+000	-2,946796826466870E-003	2,000000000000000E+000	-7,1124925E-004	42	-6,1005803E-006
2	0	0	1	0	1,301033772375467E+005	2,0507057E+000	2,0502605E+000	-3,126634551453216E-003	2,000000000000000E+000	-9,2201401E-004	42	-6,4104156E-006
2	0	0	1	0	1,301700168218067E+005	2,0307138E+000	2,0302851E+000	-3,320563999171890E-003	2,000000000000000E+000	-1,1452038E-003	42	-6,7416918E-006
2	0	0	1	0	1,302366564060205E+005	2,0107219E+000	2,0102875E+000	-3,527648064350058E-003	2,000000000000000E+000	-1,3819867E-003	42	-7,0915867E-006
2	0	0	1	0	1,303032954902374E+005	1,9907304E+000	1,9903102E+000	-3,765666073931098E-003	2,000000000000000E+000	-1,6338232E-003	42	-7,4948434E-006
2	0	0	1	0	1,303699348744992E+005	1,9707384E+000	1,9702618E+000	-4,039117193604259E-003	2,000000000000000E+000	-1,9022501E-003	42	-7,9581187E-006
2	0	0	1	0	1,304365744587518E+005	1,9507465E+000	1,9503099E+000	-4,333691747507619E-003	2,000000000000000E+000	-2,1893270E-003	42	-8,4520416E-006
2	0	0	1	0	1,305032140429637E+005	1,9307545E+000	1,9303235E+000	-4,656993703144860E-003	2,000000000000000E+000	-2,4971245E-003	42	-8,9895047E-006
2	0	0	1	0	1,305698533271906E+005	1,9107628E+000	1,9103484E+000	-5,011496029794095E-003	2,000000000000000E+000	-2,8278907E-003	42	-9,5737032E-006
2	0	0	1	0	1,306364929114531E+005	1,8907710E+000	1,8903364E+000	-5,382769046439043E-003	2,000000000000000E+000	-3,1828699E-003	42	-1,0175244E-005
2	0	0	0	0	1,306672516041523E+005	1,8815254E+000	1,8810768E+000	-5,618252712069977E-003	2,000000000000000E+000	-3,3552151E-003	42	-1,0568365E-005