File: Dati/201027/CV_LTO-C_Al_slurrymia_01_1mVs_01_CV_C03.mpt
EC-Lab ASCII FILE
Nb header lines : 63

Cyclic Voltammetry

Run on channel : 3 (SN 6807)
User :
Electrode connection : standard
Ewe ctrl range : min = 0,00 V, max = 5,00 V
Ewe,I filtering : 50 kHz
Safety Limits :
	Do not start on E overload
Channel : Grounded
Acquisition started on : 10/27/2020 18:19:16
Saved on :
	File : CV_LTO-C_Al_slurrymia_01_1mVs_01_CV_C03.mpr
	Directory : C:\Users\labsuperfici\Desktop\Biologic\Users\Prisca Viviani\201027\
	Host : 10.78.33.0
Device : VSP-300 (SN 0638)
Address : USB
EC-Lab for windows v11.31 (software)
Internet server v11.30 (firmware)
Command interpretor v11.31 (firmware)
Electrode material :
Initial state :
Electrolyte :
Comments :
Cable : standard
Reference electrode : SCE Saturated Calomel Electrode (0,241 V)
Electrode surface area : 0,001 cm²
Characteristic mass : 0,001 g
Equivalent Weight : 0,000 g/eq.
Density : 0,000 g/cm3
Cycle Definition : Charge/Discharge alternance
Ei (V)              0,000
vs.                 Eoc
dE/dt               0,100
dE/dt unit          mV/s
E1 (V)              1,000
vs.                 Ref
Step percent        50
N                   10
E range min (V)     0,000
E range max (V)     5,000
I Range             Auto
I Range min         Unset
I Range max         Unset
I Range init        Unset
Bandwidth           8
E2 (V)              3,000
vs.                 Ref
nc cycles           2
Reverse Scan        1
Ef (V)              0,000
vs.                 Eoc

Modify on : 10/28/2020 10:35
nc cycles           1

Modify on : 10/28/2020 10:37
E2 (V)              2,700

mode	ox/red	error	control changes	counter inc.	time/s	control/V	Ewe/V	<I>/mA	cycle number	(Q-Qo)/C	I Range	P/W
2	0	1	0	0	0,000000000000000E+000	1,8815254E+000	1,8809624E+000	-2,858094230759889E-004	1,000000000000000E+000	0,0000000E+000	43	-5,3759675E-007
2	0	0	1	0	2,154110945582579E+002	1,8599837E+000	1,8594011E+000	-1,093729734495980E-003	1,000000000000000E+000	-1,9532595E-004	42	-2,0336822E-006
2	0	0	1	0	4,353209890028666E+002	1,8379925E+000	1,8374161E+000	-1,670716296546464E-003	1,000000000000000E+000	-5,2879914E-004	42	-3,0698009E-006
2	0	0	1	0	6,552303834474878E+002	1,8160015E+000	1,8154371E+000	-2,322397404527015E-003	1,000000000000000E+000	-9,9728489E-004	42	-4,2161664E-006
2	0	0	1	0	8,751402778920965E+002	1,7940105E+000	1,7934445E+000	-3,103472368474462E-003	1,000000000000000E+000	-1,6241977E-003	42	-5,5659057E-006
2	0	0	1	0	1,095049572336720E+003	1,7720196E+000	1,7714624E+000	-3,917574240286367E-003	1,000000000000000E+000	-2,4282017E-003	42	-6,9398357E-006
2	0	0	1	0	1,314958966781342E+003	1,7500286E+000	1,7494524E+000	-4,749156202265847E-003	1,000000000000000E+000	-3,4127140E-003	42	-8,3084224E-006
2	0	0	1	0	1,534868261225965E+003	1,7280374E+000	1,7274781E+000	-5,649676535730571E-003	1,000000000000000E+000	-4,5864838E-003	42	-9,7596931E-006
2	0	0	1	0	1,754777555670589E+003	1,7060465E+000	1,7055056E+000	-6,639155621001300E-003	1,000000000000000E+000	-5,9678354E-003	42	-1,1323117E-005
2	0	0	1	0	1,974687550115195E+003	1,6840554E+000	1,6835414E+000	-7,559915156035574E-003	1,000000000000000E+000	-7,5645475E-003	42	-1,2727431E-005
2	0	0	1	0	2,194597044559821E+003	1,6620643E+000	1,6615307E+000	-8,173085961368079E-003	1,000000000000000E+000	-9,3352413E-003	42	-1,3579834E-005
2	0	0	1	0	2,414506039004445E+003	1,6400733E+000	1,6395565E+000	-8,473293188667713E-003	1,000000000000000E+000	-1,1200096E-002	42	-1,3892443E-005
2	0	0	1	0	2,634415933449054E+003	1,6180823E+000	1,6175648E+000	-8,783287782524379E-003	1,000000000000000E+000	-1,3125190E-002	42	-1,4207537E-005
2	0	0	1	0	2,854325327893675E+003	1,5960913E+000	1,5954765E+000	-9,701033956063469E-003	1,000000000000000E+000	-1,5176284E-002	41	-1,5477772E-005
2	0	0	1	0	3,074235222338291E+003	1,5741001E+000	1,5734433E+000	-1,205091283766428E-002	1,000000000000000E+000	-1,7566150E-002	41	-1,8961427E-005
2	0	0	1	0	3,294144516782908E+003	1,5521094E+000	1,5514772E+000	-1,763139554902798E-002	1,000000000000000E+000	-2,0757629E-002	41	-2,7354708E-005
2	0	0	1	0	3,514053911227529E+003	1,5301182E+000	1,5295292E+000	-4,919505188657014E-002	1,000000000000000E+000	-2,7464990E-002	41	-7,5245269E-005
2	0	0	1	0	3,733963205672153E+003	1,5081271E+000	1,5076170E+000	-8,463274708662319E-002	1,000000000000000E+000	-4,2377908E-002	41	-1,2759377E-004
2	0	0	1	0	3,953873200116759E+003	1,4861362E+000	1,4855230E+000	-1,116082008531771E-001	1,000000000000000E+000	-6,4148813E-002	40	-1,6579655E-004
2	0	0	1	0	4,173782495584615E+003	1,4641452E+000	1,4635391E+000	-1,272104971716385E-001	1,000000000000000E+000	-9,0693705E-002	40	-1,8617754E-004
2	0	0	1	0	4,393692492922099E+003	1,4421540E+000	1,4415476E+000	-1,261919732583703E-001	1,000000000000000E+000	-1,1892074E-001	40	-1,8191175E-004
2	0	0	1	0	4,613600990259642E+003	1,4201630E+000	1,4195702E+000	-1,099733315488949E-001	1,000000000000000E+000	-1,4513201E-001	40	-1,5611487E-004
2	0	0	1	0	4,833510287597150E+003	1,3981720E+000	1,3975890E+000	-8,957512656906534E-002	1,000000000000000E+000	-1,6711508E-001	40	-1,2518921E-004
2	0	0	1	0	5,053419684934692E+003	1,3761810E+000	1,3755831E+000	-7,103902827912938E-002	1,000000000000000E+000	-1,8473943E-001	40	-9,7720083E-005
2	0	0	1	0	5,273329582272178E+003	1,3541899E+000	1,3535697E+000	-5,620177829266521E-002	1,000000000000000E+000	-1,9868080E-001	40	-7,6073025E-005
2	0	0	1	0	5,493238979609712E+003	1,3321990E+000	1,3316061E+000	-4,455070470257005E-002	1,000000000000000E+000	-2,0972577E-001	41	-5,9323993E-005
2	0	0	1	0	5,713148876947198E+003	1,3102080E+000	1,3096256E+000	-3,615216763601670E-002	1,000000000000000E+000	-2,1858405E-001	41	-4,7345806E-005
2	0	0	1	0	5,933058274284733E+003	1,2882169E+000	1,2876551E+000	-3,003708035525243E-002	1,000000000000000E+000	-2,2584908E-001	41	-3,8677401E-005
2	0	0	1	0	6,152967571622241E+003	1,2662258E+000	1,2656213E+000	-2,577801673901720E-002	1,000000000000000E+000	-2,3198605E-001	41	-3,2625208E-005
2	0	0	1	0	6,372876868959742E+003	1,2442348E+000	1,2436175E+000	-2,280229260556504E-002	1,000000000000000E+000	-2,3733188E-001	41	-2,8357332E-005
2	0	0	1	0	6,592786266297247E+003	1,2222439E+000	1,2216327E+000	-2,090713896505142E-002	1,000000000000000E+000	-2,4214603E-001	41	-2,5540845E-005
2	0	0	1	0	6,812695363634775E+003	1,2002528E+000	1,1996622E+000	-1,962534019197032E-002	1,000000000000000E+000	-2,4662112E-001	41	-2,3543778E-005
2	0	0	1	0	7,032604660972313E+003	1,1782615E+000	1,1776458E+000	-1,903715360043522E-002	1,000000000000000E+000	-2,5088868E-001	41	-2,2419024E-005
2	0	0	1	0	7,252514658309803E+003	1,1562707E+000	1,1556807E+000	-1,884193831509712E-002	1,000000000000000E+000	-2,5506955E-001	41	-2,1775264E-005
2	0	0	1	0	7,472424055647309E+003	1,1342797E+000	1,1336972E+000	-1,883915147510945E-002	1,000000000000000E+000	-2,5923789E-001	41	-2,1357893E-005
2	0	0	1	0	7,692333352984846E+003	1,1122886E+000	1,1116842E+000	-1,886174704143850E-002	1,000000000000000E+000	-2,6340476E-001	41	-2,0968306E-005
2	0	0	1	0	7,912242650322347E+003	1,0902977E+000	1,0896890E+000	-1,909734081106915E-002	1,000000000000000E+000	-2,6759702E-001	41	-2,0810163E-005
2	0	0	1	0	8,132152647659866E+003	1,0683064E+000	1,0677211E+000	-1,952048971096165E-002	1,000000000000000E+000	-2,7186242E-001	41	-2,0842439E-005
2	0	0	1	0	8,352061944997346E+003	1,0463156E+000	1,0456877E+000	-2,019192216647181E-002	1,000000000000000E+000	-2,7624914E-001	41	-2,1114443E-005
2	0	0	1	0	8,571971842334839E+003	1,0243245E+000	1,0237098E+000	-2,092261241734966E-002	1,000000000000000E+000	-2,8079131E-001	41	-2,1418682E-005
2	0	0	1	0	8,791881239672366E+003	1,0023334E+000	1,0017290E+000	-2,167165672017921E-002	1,000000000000000E+000	-2,8549939E-001	41	-2,1709127E-005
2	0	0	1	0	9,000796937142994E+003	1,0185270E+000	1,0179210E+000	-1,225062369350053E-002	1,000000000000000E+000	-2,8894287E-001	41	-1,2470166E-005
2	0	0	1	0	9,220708034480485E+003	1,0405178E+000	1,0398811E+000	-7,308057627897296E-003	1,000000000000000E+000	-2,9101345E-001	41	-7,5995113E-006
2	0	0	1	0	9,440618931817982E+003	1,0625088E+000	1,0619433E+000	-4,554564792760021E-003	1,000000000000000E+000	-2,9227111E-001	42	-4,8366896E-006
2	0	0	1	0	9,660529529155494E+003	1,0844998E+000	1,0839118E+000	-2,890760949440123E-003	1,000000000000000E+000	-2,9305547E-001	42	-3,1333298E-006
2	0	0	1	0	9,880440026492986E+003	1,1064910E+000	1,1058944E+000	-1,831021133014900E-003	1,000000000000000E+000	-2,9354680E-001	42	-2,0249161E-006
2	0	0	1	0	1,010035112383048E+004	1,1284821E+000	1,1278497E+000	-1,121505530568329E-003	1,000000000000000E+000	-2,9384646E-001	42	-1,2648896E-006
2	0	0	1	0	1,032026172116799E+004	1,1504730E+000	1,1499236E+000	-6,073202345546168E-004	1,000000000000000E+000	-2,9401568E-001	43	-6,9837182E-007
2	0	0	1	0	1,054017281850548E+004	1,1724641E+000	1,1718764E+000	-2,708566312491324E-004	1,000000000000000E+000	-2,9409426E-001	43	-3,1741050E-007
2	0	0	1	0	1,076008331584302E+004	1,1944550E+000	1,1938345E+000	-9,225633372881615E-006	1,000000000000000E+000	-2,9410735E-001	44	-1,1013880E-008
2	1	0	1	0	1,097999391318047E+004	1,2164462E+000	1,2158127E+000	2,069543879283670E-004	1,000000000000000E+000	-2,9407007E-001	43	2,5161776E-007
2	1	0	1	0	1,119990441051799E+004	1,2384373E+000	1,2377568E+000	3,752615717809741E-004	1,000000000000000E+000	-2,9399073E-001	43	4,6448258E-007
2	1	0	1	0	1,141981560785547E+004	1,2604282E+000	1,2597511E+000	5,538898249509479E-004	1,000000000000000E+000	-2,9387388E-001	43	6,9776331E-007
2	1	0	1	0	1,163972640519297E+004	1,2824193E+000	1,2817943E+000	7,101064586047022E-004	1,000000000000000E+000	-2,9371929E-001	42	9,1021042E-007
2	1	0	1	0	1,185963760253046E+004	1,3044103E+000	1,3037636E+000	8,966300013687522E-004	1,000000000000000E+000	-2,9352468E-001	42	1,1689935E-006
2	1	0	1	0	1,207954809986794E+004	1,3264015E+000	1,3257815E+000	1,110580487678862E-003	1,000000000000000E+000	-2,9328635E-001	42	1,4723870E-006
2	1	0	1	0	1,229945869720547E+004	1,3483922E+000	1,3477474E+000	1,403297150036363E-003	1,000000000000000E+000	-2,9299280E-001	42	1,8912901E-006
2	1	0	1	0	1,251936919454296E+004	1,3703833E+000	1,3697740E+000	1,813542995744211E-003	1,000000000000000E+000	-2,9262254E-001	42	2,4841440E-006
2	1	0	1	0	1,273928039188045E+004	1,3923745E+000	1,3917159E+000	2,334528626886739E-003	1,000000000000000E+000	-2,9215094E-001	42	3,2490007E-006
2	1	0	1	0	1,295919088921795E+004	1,4143654E+000	1,4137267E+000	2,989444326702395E-003	1,000000000000000E+000	-2,9154983E-001	42	4,2262573E-006
2	1	0	1	0	1,317910198655544E+004	1,4363565E+000	1,4356817E+000	3,756023059650768E-003	1,000000000000000E+000	-2,9079196E-001	42	5,3924537E-006
2	1	0	1	0	1,339901258389295E+004	1,4583474E+000	1,4576783E+000	4,640018927187087E-003	1,000000000000000E+000	-2,8985247E-001	42	6,7636552E-006
2	1	0	1	0	1,361892308123046E+004	1,4803385E+000	1,4796792E+000	5,658538573676083E-003	1,000000000000000E+000	-2,8870487E-001	42	8,3728219E-006
2	1	0	1	0	1,383883397856796E+004	1,5023295E+000	1,5016407E+000	6,885776226897296E-003	1,000000000000000E+000	-2,8731370E-001	42	1,0339962E-005
2	1	0	1	0	1,405874507590545E+004	1,5243207E+000	1,5236357E+000	8,602448571459115E-003	1,000000000000000E+000	-2,8560686E-001	42	1,3106998E-005
2	1	0	1	0	1,427865557324293E+004	1,5463116E+000	1,5456717E+000	1,159742007375129E-002	1,000000000000000E+000	-2,8339770E-001	41	1,7925804E-005
2	1	0	1	0	1,449856677058048E+004	1,5683028E+000	1,5676574E+000	1,815038468892588E-002	1,000000000000000E+000	-2,8023282E-001	41	2,8453584E-005
2	1	0	1	0	1,471847726791797E+004	1,5902936E+000	1,5896101E+000	5,725245892952036E-002	1,000000000000000E+000	-2,7251002E-001	41	9,1009089E-005
2	1	0	1	0	1,493838786525544E+004	1,6122847E+000	1,6115556E+000	9,484639216567348E-002	1,000000000000000E+000	-2,5554779E-001	41	1,5285023E-004
2	1	0	1	0	1,515829836259293E+004	1,6342757E+000	1,6336232E+000	1,203576278375134E-001	1,000000000000000E+000	-2,3160222E-001	40	1,9661902E-004
2	1	0	1	0	1,537820955993043E+004	1,6562668E+000	1,6556113E+000	1,293011592961514E-001	1,000000000000000E+000	-2,0376754E-001	40	2,1407245E-004
2	1	0	1	0	1,559812005726794E+004	1,6782577E+000	1,6776413E+000	1,188910120887825E-001	1,000000000000000E+000	-1,7613390E-001	40	1,9945647E-004
2	1	0	1	0	1,581803115460543E+004	1,7002488E+000	1,6996517E+000	9,810638387456455E-002	1,000000000000000E+000	-1,5221661E-001	40	1,6674669E-004
2	1	0	1	0	1,603794205194293E+004	1,7222397E+000	1,7216432E+000	7,695448368594721E-002	1,000000000000000E+000	-1,3291506E-001	40	1,3248816E-004
2	1	0	1	0	1,625785314928042E+004	1,7442309E+000	1,7436057E+000	5,061189989324055E-002	1,000000000000000E+000	-1,1879048E-001	40	8,8247201E-005
2	1	0	1	0	1,647776374661792E+004	1,7662220E+000	1,7655774E+000	2,983595276055415E-002	1,000000000000000E+000	-1,1019115E-001	41	5,2677686E-005
2	1	0	1	0	1,669767484395544E+004	1,7882130E+000	1,7875785E+000	2,212827652928596E-002	1,000000000000000E+000	-1,0461584E-001	41	3,9556031E-005
2	1	0	1	0	1,691758544129290E+004	1,8102039E+000	1,8095961E+000	1,877738102534848E-002	1,000000000000000E+000	-1,0012720E-001	41	3,3979475E-005
2	1	0	1	0	1,713749593863041E+004	1,8321950E+000	1,8316149E+000	1,635642389301409E-002	1,000000000000000E+000	-9,6254110E-002	41	2,9958668E-005
2	1	0	1	0	1,735740643596792E+004	1,8541859E+000	1,8535750E+000	1,430405143205687E-002	1,000000000000000E+000	-9,2869297E-002	41	2,6513631E-005
2	1	0	1	0	1,757731763330550E+004	1,8761771E+000	1,8755687E+000	1,249841361376525E-002	1,000000000000000E+000	-8,9909077E-002	41	2,3441635E-005
2	1	0	1	0	1,779722813064291E+004	1,8981681E+000	1,8975660E+000	1,102537020973031E-002	1,000000000000000E+000	-8,7307066E-002	41	2,0921367E-005
2	1	0	1	0	1,801713922798040E+004	1,9201590E+000	1,9195253E+000	9,970650820444946E-003	1,000000000000000E+000	-8,4992886E-002	41	1,9138915E-005
2	1	0	1	0	1,823705012531794E+004	1,9421502E+000	1,9415388E+000	9,208321211194248E-003	1,000000000000000E+000	-8,2864664E-002	41	1,7878314E-005
2	1	0	1	0	1,845696072265539E+004	1,9641411E+000	1,9635280E+000	8,420787451327988E-003	1,000000000000000E+000	-8,0910549E-002	41	1,6534452E-005
2	1	0	1	0	1,867687121999290E+004	1,9861321E+000	1,9855126E+000	7,938163627512401E-003	1,000000000000000E+000	-7,9094552E-002	41	1,5761325E-005
2	1	0	1	0	1,889678351733039E+004	2,0081232E+000	2,0075369E+000	7,451614890433722E-003	1,000000000000000E+000	-7,7383041E-002	41	1,4959392E-005
2	1	0	1	0	1,911669411466783E+004	2,0301142E+000	2,0295372E+000	6,904096504028151E-003	1,000000000000000E+000	-7,5783819E-002	41	1,4012121E-005
2	1	0	1	0	1,933660461200547E+004	2,0521054E+000	2,0514789E+000	6,167221908863776E-003	1,000000000000000E+000	-7,4323781E-002	41	1,2651925E-005
2	1	0	1	0	1,955651510934287E+004	2,0740962E+000	2,0735126E+000	5,824914862922886E-003	1,000000000000000E+000	-7,2989725E-002	41	1,2078034E-005
2	1	0	1	0	1,977642570668038E+004	2,0960872E+000	2,0954659E+000	5,569004733382621E-003	1,000000000000000E+000	-7,1718015E-002	41	1,1669659E-005
2	1	0	1	0	1,999633620401789E+004	2,1180782E+000	2,1174884E+000	5,310094854497467E-003	1,000000000000000E+000	-7,0502423E-002	41	1,1244064E-005
2	1	0	1	0	2,021624680135539E+004	2,1400695E+000	2,1394413E+000	5,015117612204700E-003	1,000000000000000E+000	-6,9347546E-002	41	1,0729549E-005
2	1	0	1	0	2,043615889869293E+004	2,1620603E+000	2,1614187E+000	4,732785007369539E-003	1,000000000000000E+000	-6,8256281E-002	42	1,0229530E-005
2	1	0	1	0	2,065606939603039E+004	2,1840513E+000	2,1833842E+000	4,419749630179923E-003	1,000000000000000E+000	-6,7230478E-002	42	9,6500116E-006
2	1	0	1	0	2,087597989336791E+004	2,2060421E+000	2,2054145E+000	3,990752630631493E-003	1,000000000000000E+000	-6,6283010E-002	42	8,8012639E-006
2	1	0	1	0	2,109589049070541E+004	2,2280331E+000	2,2274141E+000	3,323238665977508E-003	1,000000000000000E+000	-6,5469392E-002	42	7,4022287E-006
2	1	0	1	0	2,131580218804284E+004	2,2500246E+000	2,2494185E+000	3,136464446613616E-003	1,000000000000000E+000	-6,4744070E-002	42	7,0552210E-006
2	1	0	1	0	2,153571268538035E+004	2,2720156E+000	2,2713883E+000	3,035739282824163E-003	1,000000000000000E+000	-6,4048216E-002	42	6,8953427E-006
2	1	0	1	0	2,175562328271786E+004	2,2940068E+000	2,2933660E+000	2,960349963900613E-003	1,000000000000000E+000	-6,3371003E-002	42	6,7891660E-006
2	1	0	1	0	2,197553378005535E+004	2,3159976E+000	2,3153782E+000	2,910022760581131E-003	1,000000000000000E+000	-6,2707506E-002	42	6,7378032E-006
2	1	0	1	0	2,219544427739293E+004	2,3379884E+000	2,3373451E+000	2,883133957079916E-003	1,000000000000000E+000	-6,2051747E-002	42	6,7388792E-006
2	1	0	1	0	2,241535487473034E+004	2,3599794E+000	2,3593724E+000	2,799535084128807E-003	1,000000000000000E+000	-6,1406843E-002	42	6,6051457E-006
2	1	0	1	0	2,263526577206785E+004	2,3819706E+000	2,3813581E+000	2,738909982046237E-003	1,000000000000000E+000	-6,0779210E-002	42	6,5223257E-006
2	1	0	1	0	2,285517746940537E+004	2,4039614E+000	2,4033389E+000	2,678497771266823E-003	1,000000000000000E+000	-6,0164399E-002	42	6,4373380E-006
2	1	0	1	0	2,307508806674287E+004	2,4259524E+000	2,4253621E+000	2,636867414268843E-003	1,000000000000000E+000	-5,9561450E-002	42	6,3953585E-006
2	1	0	1	0	2,329499856408034E+004	2,4479434E+000	2,4473283E+000	2,589577205033826E-003	1,000000000000000E+000	-5,8968540E-002	42	6,3375455E-006
2	1	0	1	0	2,351490916141786E+004	2,4699345E+000	2,4693346E+000	2,552648549809086E-003	1,000000000000000E+000	-5,8384657E-002	42	6,3033435E-006
2	1	0	1	0	2,373482085875532E+004	2,4919257E+000	2,4912939E+000	2,524564369857707E-003	1,000000000000000E+000	-5,7807602E-002	42	6,2894319E-006
2	1	0	1	0	2,395473135609285E+004	2,5139170E+000	2,5132904E+000	2,506306416238831E-003	1,000000000000000E+000	-5,7235185E-002	42	6,2990757E-006
2	1	0	1	0	2,417464185343031E+004	2,5359080E+000	2,5353007E+000	2,509871750436753E-003	1,000000000000000E+000	-5,6665298E-002	42	6,3632797E-006
2	1	0	1	0	2,439455245076783E+004	2,5578988E+000	2,5572898E+000	2,511604864142022E-003	1,000000000000000E+000	-5,6095473E-002	42	6,4229016E-006
2	1	0	1	0	2,461446294810533E+004	2,5798900E+000	2,5792854E+000	2,519972586237620E-003	1,000000000000000E+000	-5,5523783E-002	42	6,4997284E-006
2	1	0	1	0	2,483437364544283E+004	2,6018806E+000	2,6012778E+000	2,532868226298172E-003	1,000000000000000E+000	-5,4949328E-002	42	6,5886939E-006
2	1	0	1	0	2,505428444278031E+004	2,6238718E+000	2,6232729E+000	2,560207438085205E-003	1,000000000000000E+000	-5,4370891E-002	42	6,7161227E-006
2	1	0	1	0	2,527419494011783E+004	2,6458631E+000	2,6452484E+000	2,610904176522605E-003	1,000000000000000E+000	-5,3783718E-002	42	6,9064899E-006
2	1	0	1	0	2,549410663745535E+004	2,6678538E+000	2,6672428E+000	2,660741110087768E-003	1,000000000000000E+000	-5,3185083E-002	42	7,0968426E-006
2	1	0	1	0	2,571401723479285E+004	2,6898446E+000	2,6892295E+000	2,737010848260132E-003	1,000000000000000E+000	-5,2573103E-002	42	7,3604501E-006
2	1	0	1	0	2,593392773213031E+004	2,7118356E+000	2,7111971E+000	2,809328684773394E-003	1,000000000000000E+000	-5,1942106E-002	42	7,6166439E-006
2	1	0	1	0	2,615383832946792E+004	2,7338269E+000	2,7332542E+000	2,777712229053101E-003	1,000000000000000E+000	-5,1307637E-002	42	7,5921935E-006
2	1	0	1	0	2,637375002680530E+004	2,7558181E+000	2,7552114E+000	2,687416702927780E-003	1,000000000000000E+000	-5,0688755E-002	42	7,4044010E-006
2	1	0	1	0	2,659366052414282E+004	2,7778094E+000	2,7772372E+000	2,610005657420184E-003	1,000000000000000E+000	-5,0088115E-002	42	7,2486046E-006
2	1	0	1	0	2,681357102148031E+004	2,7998002E+000	2,7991779E+000	2,562432712348357E-003	1,000000000000000E+000	-4,9501099E-002	42	7,1727050E-006
2	1	0	1	0	2,703348181881779E+004	2,8217909E+000	2,8211935E+000	2,540413042231422E-003	1,000000000000000E+000	-4,8921354E-002	42	7,1669965E-006
2	1	0	1	0	2,725339251615531E+004	2,8437824E+000	2,8431716E+000	2,530017552419030E-003	1,000000000000000E+000	-4,8345443E-002	42	7,1932741E-006
2	1	0	1	0	2,747330301349281E+004	2,8657732E+000	2,8651803E+000	2,524360059815357E-003	1,000000000000000E+000	-4,7771610E-002	42	7,2327466E-006
2	1	0	1	0	2,769321361083031E+004	2,8877645E+000	2,8871834E+000	2,528675686434015E-003	1,000000000000000E+000	-4,7197580E-002	42	7,3007504E-006
2	1	0	1	0	2,791312410816789E+004	2,9097552E+000	2,9091728E+000	2,556288916233170E-003	1,000000000000000E+000	-4,6620507E-002	42	7,4366862E-006
2	1	0	1	0	2,813303460550529E+004	2,9317462E+000	2,9311721E+000	2,616659549713993E-003	1,000000000000000E+000	-4,6033792E-002	42	7,6698798E-006
2	1	0	1	0	2,835294640284282E+004	2,9537370E+000	2,9531593E+000	2,724895776927236E-003	1,000000000000000E+000	-4,5427933E-002	42	8,0470518E-006
2	1	0	1	0	2,857285690018034E+004	2,9757285E+000	2,9751728E+000	2,847397641766756E-003	1,000000000000000E+000	-4,4796832E-002	42	8,4715002E-006
2	1	0	1	0	2,879276749751778E+004	2,9977193E+000	2,9971380E+000	2,968555648832097E-003	1,000000000000000E+000	-4,4138487E-002	42	8,8971710E-006
2	1	0	1	1	2,900068179500054E+004	2,9814262E+000	2,9808712E+000	1,656089938970741E-003	1,000000000000000E+000	-4,3695338E-002	42	4,9365908E-006
2	1	0	1	1	2,922058989233806E+004	2,9594350E+000	2,9588580E+000	1,076214447342305E-003	1,000000000000000E+000	-4,3420497E-002	42	3,1843658E-006
2	1	0	1	1	2,944049808967559E+004	2,9374440E+000	2,9369168E+000	7,603602267143520E-004	1,000000000000000E+000	-4,3240361E-002	42	2,2331149E-006
2	1	0	1	1	2,966040618701312E+004	2,9154532E+000	2,9148457E+000	5,581052160814979E-004	1,000000000000000E+000	-4,3113809E-002	43	1,6267905E-006
2	1	0	1	1	2,988031438435065E+004	2,8934619E+000	2,8928699E+000	4,375163105951450E-004	1,000000000000000E+000	-4,3020181E-002	43	1,2656778E-006
2	1	0	1	1	3,010022368168819E+004	2,8714707E+000	2,8708758E+000	3,465736124713082E-004	1,000000000000000E+000	-4,2949453E-002	43	9,9496981E-007
2	1	0	1	1	3,032013187902572E+004	2,8494794E+000	2,8489003E+000	2,772521140086389E-004	1,000000000000000E+000	-4,2896517E-002	43	7,8986363E-007
2	1	0	1	1	3,054003997636319E+004	2,8274887E+000	2,8269074E+000	2,099557480776679E-004	1,000000000000000E+000	-4,2859029E-002	43	5,9352544E-007
2	1	0	1	1	3,075994817370072E+004	2,8054974E+000	2,8049269E+000	1,422743962958897E-004	1,000000000000000E+000	-4,2835794E-002	43	3,9906928E-007
2	1	0	1	1	3,097985747103827E+004	2,7835066E+000	2,7829370E+000	9,822248847701992E-005	1,000000000000000E+000	-4,2825304E-002	43	2,7334701E-007
2	1	0	1	1	3,120076356836371E+004	2,7614155E+000	2,7608330E+000	4,925223534715481E-005	1,000000000000000E+000	-4,2826571E-002	43	1,3597720E-007
2	1	0	1	1	3,142466906565294E+004	2,7390251E+000	2,7385008E+000	4,841184350126707E-006	1,000000000000000E+000	-4,2839281E-002	44	1,3257587E-008
2	0	0	1	1	3,164457716299040E+004	2,7170341E+000	2,7164807E+000	-5,077709910716313E-005	1,000000000000000E+000	-4,2862374E-002	43	-1,3793502E-007
2	0	0	1	1	3,186548556031584E+004	2,6949427E+000	2,6943944E+000	-1,013576415743983E-004	1,000000000000000E+000	-4,2895559E-002	43	-2,7309747E-007
2	0	0	1	1	3,208539485765333E+004	2,6729519E+000	2,6724031E+000	-1,426403241755777E-004	1,000000000000000E+000	-4,2938419E-002	43	-3,8119245E-007
2	0	0	1	1	3,230530295499085E+004	2,6509609E+000	2,6504052E+000	-1,936384989865824E-004	1,000000000000000E+000	-4,2991173E-002	43	-5,1322047E-007
2	0	0	1	1	3,252521115232838E+004	2,6289697E+000	2,6284375E+000	-2,403653763674254E-004	1,000000000000000E+000	-4,3053892E-002	43	-6,3178538E-007
2	0	0	1	1	3,274511934966591E+004	2,6069787E+000	2,6064324E+000	-2,957182004647174E-004	1,000000000000000E+000	-4,3128498E-002	43	-7,7076953E-007
2	0	0	1	1	3,296502744975599E+004	2,5849876E+000	2,5844479E+000	-3,527747686455822E-004	1,000000000000000E+000	-4,3214839E-002	43	-9,1172802E-007
2	0	0	1	1	3,318493555016560E+004	2,5629969E+000	2,5624599E+000	-3,850773489714929E-004	1,000000000000000E+000	-4,3311205E-002	43	-9,8674525E-007
2	0	0	1	1	3,340484175057523E+004	2,5410058E+000	2,5404983E+000	-4,264202090094728E-004	1,000000000000000E+000	-4,3415684E-002	43	-1,0833198E-006
2	0	0	1	1	3,362474995098478E+004	2,5190151E+000	2,5185063E+000	-4,645595651148098E-004	1,000000000000000E+000	-4,3528553E-002	43	-1,1699962E-006
2	0	0	1	1	3,384465925139445E+004	2,4970236E+000	2,4965174E+000	-5,082054950826501E-004	1,000000000000000E+000	-4,3650616E-002	43	-1,2687439E-006
2	0	0	1	1	3,406456745180395E+004	2,4750326E+000	2,4745297E+000	-5,498299134084987E-004	1,000000000000000E+000	-4,3782208E-002	43	-1,3605704E-006
2	0	0	1	1	3,428447555221361E+004	2,4530416E+000	2,4525378E+000	-5,871412790212742E-004	1,000000000000000E+000	-4,3922953E-002	43	-1,4399861E-006
2	0	0	1	1	3,450438375262328E+004	2,4310503E+000	2,4305708E+000	-6,320001688276660E-004	1,000000000000000E+000	-4,4072434E-002	43	-1,5361212E-006
2	0	0	1	1	3,472429305303289E+004	2,4090593E+000	2,4085524E+000	-6,757566239686211E-004	1,000000000000000E+000	-4,4230860E-002	43	-1,6275952E-006
2	0	0	1	1	3,494420115344250E+004	2,3870685E+000	2,3865545E+000	-6,989231349897310E-004	1,000000000000000E+000	-4,4399038E-002	42	-1,6680182E-006
2	0	0	1	1	3,516410935385211E+004	2,3650775E+000	2,3644927E+000	-7,460878953960050E-004	1,000000000000000E+000	-4,4577271E-002	42	-1,7641194E-006
2	0	0	1	1	3,538401755426172E+004	2,3430862E+000	2,3424985E+000	-7,934355451939112E-004	1,000000000000000E+000	-4,4765763E-002	42	-1,8586217E-006
2	0	0	1	1	3,560392365467129E+004	2,3210952E+000	2,3205264E+000	-8,448314457332236E-004	1,000000000000000E+000	-4,4964798E-002	42	-1,9604536E-006
2	0	0	1	1	3,582383185508085E+004	2,2991042E+000	2,2985418E+000	-8,926145924937593E-004	1,000000000000000E+000	-4,5175042E-002	42	-2,0517120E-006
2	0	0	1	1	3,604373995549046E+004	2,2771137E+000	2,2765195E+000	-9,454436818553506E-004	1,000000000000000E+000	-4,5397047E-002	42	-2,1523210E-006
2	0	0	1	1	3,626364935590018E+004	2,2551224E+000	2,2545352E+000	-1,000157071430521E-003	1,000000000000000E+000	-4,5630690E-002	42	-2,2548893E-006
2	0	0	1	1	3,648355745630991E+004	2,2331312E+000	2,2325411E+000	-1,059586864817143E-003	1,000000000000000E+000	-4,5876287E-002	42	-2,3655712E-006
2	0	0	1	1	3,670346565671940E+004	2,2111402E+000	2,2105737E+000	-1,115875686417253E-003	1,000000000000000E+000	-4,6134673E-002	42	-2,4667254E-006
2	0	0	1	1	3,692337375712895E+004	2,1891491E+000	2,1885841E+000	-1,181996273250937E-003	1,000000000000000E+000	-4,6406943E-002	42	-2,5868983E-006
2	0	0	1	1	3,714328195753862E+004	2,1671579E+000	2,1665871E+000	-1,240121739484863E-003	1,000000000000000E+000	-4,6693362E-002	42	-2,6868317E-006
2	0	0	1	1	3,736319125794817E+004	2,1451671E+000	2,1445868E+000	-1,273210975744592E-003	1,000000000000000E+000	-4,6988994E-002	42	-2,7305114E-006
2	0	0	1	1	3,758309935835795E+004	2,1231763E+000	2,1226201E+000	-1,323903219399555E-003	1,000000000000000E+000	-4,7292959E-002	42	-2,8101435E-006
2	0	0	1	1	3,780300655876752E+004	2,1011851E+000	2,1006134E+000	-1,415504577696347E-003	1,000000000000000E+000	-4,7611903E-002	42	-2,9734279E-006
2	0	0	1	1	3,802291375917703E+004	2,0791943E+000	2,0786390E+000	-1,503758325491961E-003	1,000000000000000E+000	-4,7949918E-002	42	-3,1257707E-006
2	0	0	1	1	3,824282185958675E+004	2,0572028E+000	2,0566435E+000	-1,610299798771726E-003	1,000000000000000E+000	-4,8309430E-002	42	-3,3118126E-006
2	0	0	1	1	3,846273005999625E+004	2,0352120E+000	2,0346439E+000	-1,729067483826858E-003	1,000000000000000E+000	-4,8695371E-002	42	-3,5180367E-006
2	0	0	1	1	3,868263936040597E+004	2,0132208E+000	2,0126631E+000	-1,873495325716075E-003	1,000000000000000E+000	-4,9108788E-002	42	-3,7707150E-006
2	0	0	1	1	3,890254816081561E+004	1,9912301E+000	1,9907117E+000	-2,026220769410371E-003	1,000000000000000E+000	-4,9554940E-002	42	-4,0336213E-006
2	0	0	1	1	3,912245746122510E+004	1,9692391E+000	1,9686968E+000	-2,214512549037596E-003	1,000000000000000E+000	-5,0038319E-002	42	-4,3597038E-006
2	0	0	1	1	3,934236676163471E+004	1,9472480E+000	1,9466993E+000	-2,437868812705021E-003	1,000000000000000E+000	-5,0566278E-002	42	-4,7457975E-006
2	0	0	1	1	3,956227616204426E+004	1,9252568E+000	1,9247131E+000	-2,677569591318704E-003	1,000000000000000E+000	-5,1145695E-002	42	-5,1535535E-006
2	0	0	1	1	3,978218616245396E+004	1,9032660E+000	1,9027103E+000	-2,935177342025017E-003	1,000000000000000E+000	-5,1780794E-002	42	-5,5847922E-006
2	0	0	1	1	3,999859686285706E+004	1,8816249E+000	1,8811271E+000	-3,217294441463993E-003	1,000000000000000E+000	-5,2463979E-002	42	-6,0521397E-006
2	0	0	1	1	4,020601086324343E+004	1,8608831E+000	1,8603320E+000	-3,523688861386473E-003	2,000000000000000E+000	-5,3178556E-002	42	-6,5552313E-006
2	0	0	1	1	4,042592076365300E+004	1,8388920E+000	1,8383524E+000	-3,933011176303430E-003	2,000000000000000E+000	-5,4013897E-002	42	-7,2302605E-006
2	0	0	1	1	4,064583016406267E+004	1,8169013E+000	1,8163711E+000	-4,408971319172963E-003	2,000000000000000E+000	-5,4948948E-002	42	-8,0083282E-006
2	0	0	1	1	4,086573946447228E+004	1,7949101E+000	1,7944171E+000	-4,822621721353587E-003	2,000000000000000E+000	-5,5984132E-002	42	-8,6537948E-006
2	0	0	1	1	4,108564886488183E+004	1,7729193E+000	1,7724124E+000	-5,039785067517896E-003	2,000000000000000E+000	-5,7092115E-002	42	-8,9325777E-006
2	0	0	1	1	4,130555816529144E+004	1,7509282E+000	1,7503921E+000	-5,028288412158417E-003	2,000000000000000E+000	-5,8222428E-002	42	-8,8014758E-006
2	0	0	1	1	4,152546816570102E+004	1,7289371E+000	1,7284204E+000	-4,913051074579622E-003	2,000000000000000E+000	-5,9334572E-002	42	-8,4918174E-006
2	0	0	1	1	4,174537746611075E+004	1,7069459E+000	1,7064219E+000	-4,943987211777925E-003	2,000000000000000E+000	-6,0435720E-002	42	-8,4365274E-006
2	0	0	1	1	4,196528736652026E+004	1,6849550E+000	1,6844332E+000	-5,108472990239782E-003	2,000000000000000E+000	-6,1557777E-002	42	-8,6048813E-006
2	0	0	1	1	4,218519736692985E+004	1,6629640E+000	1,6624103E+000	-5,412771732826879E-003	2,000000000000000E+000	-6,2732011E-002	42	-8,9982468E-006
2	0	0	1	1	4,240510586733953E+004	1,6409729E+000	1,6404572E+000	-6,017023588209484E-003	2,000000000000000E+000	-6,4001501E-002	42	-9,8706696E-006
2	0	0	1	1	4,262501576774911E+004	1,6189818E+000	1,6184682E+000	-7,046786494190327E-003	2,000000000000000E+000	-6,5447837E-002	42	-1,1405000E-005
2	0	0	1	1	4,284492516815878E+004	1,5969909E+000	1,5965326E+000	-8,914185864544316E-003	2,000000000000000E+000	-6,7206897E-002	42	-1,4231789E-005
2	0	0	1	1	4,306483456856839E+004	1,5749997E+000	1,5744112E+000	-1,214361899466282E-002	2,000000000000000E+000	-6,9514863E-002	41	-1,9119048E-005
2	0	0	1	1	4,328474386897800E+004	1,5530088E+000	1,5524135E+000	-1,867789392203947E-002	2,000000000000000E+000	-7,2804891E-002	41	-2,8995813E-005
2	0	0	1	1	4,350465376938763E+004	1,5310179E+000	1,5304759E+000	-5,076508197862994E-002	2,000000000000000E+000	-7,9837590E-002	41	-7,7694735E-005
2	0	0	1	1	4,372456316979742E+004	1,5090268E+000	1,5085164E+000	-8,708695358590698E-002	2,000000000000000E+000	-9,5198035E-002	41	-1,3137210E-004
2	0	0	1	1	4,394447307020682E+004	1,4870356E+000	1,4864794E+000	-1,141636468399085E-001	2,000000000000000E+000	-1,1752500E-001	40	-1,6970190E-004
2	0	0	1	1	4,416438237061643E+004	1,4650446E+000	1,4644556E+000	-1,293488794057502E-001	2,000000000000000E+000	-1,4458659E-001	40	-1,8942569E-004
2	0	0	1	1	4,438429177102598E+004	1,4430536E+000	1,4424553E+000	-1,289522217029027E-001	2,000000000000000E+000	-1,7329827E-001	40	-1,8600782E-004
2	0	0	1	1	4,460420037143561E+004	1,4210626E+000	1,4204736E+000	-1,147186585227706E-001	2,000000000000000E+000	-2,0031179E-001	40	-1,6295482E-004
2	0	0	1	1	4,482411027184525E+004	1,3990715E+000	1,3984611E+000	-9,276729129298777E-002	2,000000000000000E+000	-2,2317663E-001	40	-1,2973144E-004
2	0	0	1	1	4,504401957225485E+004	1,3770807E+000	1,3764608E+000	-7,042484160519213E-002	2,000000000000000E+000	-2,4108647E-001	40	-9,6937030E-005
2	0	0	1	1	4,526392957266449E+004	1,3550895E+000	1,3544587E+000	-5,128843264197896E-002	2,000000000000000E+000	-2,5442019E-001	40	-6,9468064E-005
2	0	0	1	1	4,548383887307404E+004	1,3330985E+000	1,3325087E+000	-3,640231771475522E-002	2,000000000000000E+000	-2,6398966E-001	41	-4,8506405E-005
2	0	0	1	1	4,570374817348376E+004	1,3111075E+000	1,3105307E+000	-2,573596818684598E-002	2,000000000000000E+000	-2,7076906E-001	41	-3,3727774E-005
2	0	0	1	1	4,592365757389343E+004	1,2891165E+000	1,2885141E+000	-1,854508560796927E-002	2,000000000000000E+000	-2,7559972E-001	41	-2,3895605E-005
2	0	0	1	1	4,614356697430299E+004	1,2671256E+000	1,2665348E+000	-1,406060044357343E-002	2,000000000000000E+000	-2,7916369E-001	41	-1,7808239E-005
2	0	0	1	1	4,636347687471256E+004	1,2451344E+000	1,2445480E+000	-1,140526570002517E-002	2,000000000000000E+000	-2,8195786E-001	41	-1,4194400E-005
2	0	0	1	1	4,658338617512223E+004	1,2231435E+000	1,2225320E+000	-9,889183198001777E-003	2,000000000000000E+000	-2,8430247E-001	41	-1,2089843E-005
2	0	0	1	1	4,680329537553177E+004	1,2011523E+000	1,2005450E+000	-9,141766636146326E-003	2,000000000000000E+000	-2,8640434E-001	41	-1,0975102E-005
2	0	0	1	1	4,702320467594150E+004	1,1791612E+000	1,1785467E+000	-8,895513935696764E-003	2,000000000000000E+000	-2,8840157E-001	41	-1,0483778E-005
2	0	0	1	1	4,724311397635099E+004	1,1571702E+000	1,1565615E+000	-8,989336555432131E-003	2,000000000000000E+000	-2,9038346E-001	41	-1,0396720E-005
2	0	0	1	1	4,746302337676060E+004	1,1351794E+000	1,1345963E+000	-9,394274033608922E-003	2,000000000000000E+000	-2,9242155E-001	41	-1,0658709E-005
2	0	0	1	1	4,768293327717023E+004	1,1131883E+000	1,1125925E+000	-1,008189342097537E-002	2,000000000000000E+000	-2,9458141E-001	41	-1,1217038E-005
2	0	0	1	1	4,790284267757984E+004	1,0911971E+000	1,0905803E+000	-1,105668387802718E-002	2,000000000000000E+000	-2,9692262E-001	41	-1,2058202E-005
2	0	0	1	1	4,812275257798948E+004	1,0692061E+000	1,0685983E+000	-1,218908631496071E-002	2,000000000000000E+000	-2,9949439E-001	41	-1,3025237E-005
2	0	0	1	1	4,834266197839892E+004	1,0472151E+000	1,0465839E+000	-1,355272593464857E-002	2,000000000000000E+000	-3,0234039E-001	41	-1,4184065E-005
2	0	0	1	1	4,856257127880864E+004	1,0252241E+000	1,0245825E+000	-1,493598645886962E-002	2,000000000000000E+000	-3,0549386E-001	41	-1,5303151E-005
2	0	0	1	1	4,878248057921830E+004	1,0032331E+000	1,0025901E+000	-1,629824114435907E-002	2,000000000000000E+000	-3,0895197E-001	41	-1,6340455E-005
2	0	0	1	1	4,899039717960567E+004	1,0175272E+000	1,0169047E+000	-7,517047273626922E-003	2,000000000000000E+000	-3,1136307E-001	41	-7,6441211E-006
2	0	0	1	1	4,921030778001528E+004	1,0395184E+000	1,0388974E+000	-3,576210246071891E-003	2,000000000000000E+000	-3,1250089E-001	42	-3,7153154E-006
2	0	0	1	1	4,943021908042475E+004	1,0615095E+000	1,0608724E+000	-1,699659811829110E-003	2,000000000000000E+000	-3,1303838E-001	42	-1,8031222E-006
2	0	0	1	1	4,965012978083454E+004	1,0835003E+000	1,0829602E+000	-6,427536741886765E-004	2,000000000000000E+000	-3,1327224E-001	43	-6,9607665E-007
2	0	0	1	1	4,987004028124409E+004	1,1054914E+000	1,1048874E+000	-1,234469795180042E-004	2,000000000000000E+000	-3,1334060E-001	43	-1,3639500E-007
2	1	0	1	1	5,009095098165562E+004	1,1275823E+000	1,1269419E+000	2,470779473496085E-004	2,000000000000000E+000	-3,1330806E-001	43	2,7844249E-007
2	1	0	1	1	5,031086158206512E+004	1,1495734E+000	1,1489047E+000	4,777477233569097E-004	2,000000000000000E+000	-3,1321201E-001	43	5,4888659E-007
2	1	0	1	1	5,053077208247478E+004	1,1715645E+000	1,1709183E+000	6,215378617102883E-004	2,000000000000000E+000	-3,1307548E-001	43	7,2777010E-007
2	1	0	1	1	5,075068258288444E+004	1,1935554E+000	1,1929320E+000	7,239274914403755E-004	2,000000000000000E+000	-3,1291100E-001	42	8,6359626E-007
2	1	0	1	1	5,097059378329397E+004	1,2155465E+000	1,2149035E+000	8,101392675005509E-004	2,000000000000000E+000	-3,1272456E-001	42	9,8424096E-007
2	1	0	1	1	5,119050428370363E+004	1,2375375E+000	1,2368772E+000	8,927983422102465E-004	2,000000000000000E+000	-3,1251946E-001	42	1,1042819E-006
2	1	0	1	1	5,141041538411332E+004	1,2595286E+000	1,2588681E+000	9,817969549871242E-004	2,000000000000000E+000	-3,1229502E-001	42	1,2359528E-006
2	1	0	1	1	5,163032618452283E+004	1,2815195E+000	1,2808777E+000	1,091367810117934E-003	2,000000000000000E+000	-3,1204849E-001	42	1,3979087E-006
2	1	0	1	1	5,185023688493238E+004	1,3035107E+000	1,3028572E+000	1,221538825783994E-003	2,000000000000000E+000	-3,1177571E-001	42	1,5914906E-006
2	1	0	1	1	5,207014738534216E+004	1,3255017E+000	1,3248911E+000	1,399231075126416E-003	2,000000000000000E+000	-3,1146958E-001	42	1,8538287E-006
2	1	0	1	1	5,229005858575169E+004	1,3474927E+000	1,3468136E+000	1,630271507082195E-003	2,000000000000000E+000	-3,1111845E-001	42	2,1956719E-006
2	1	0	1	1	5,250996908616129E+004	1,3694836E+000	1,3688465E+000	1,949550443226880E-003	2,000000000000000E+000	-3,1070754E-001	42	2,6686353E-006
2	1	0	1	1	5,272988018657104E+004	1,3914746E+000	1,3907982E+000	2,389479707357055E-003	2,000000000000000E+000	-3,1021401E-001	42	3,3232841E-006
2	1	0	1	1	5,294979078698065E+004	1,4134657E+000	1,4128238E+000	2,923773227247066E-003	2,000000000000000E+000	-3,0961299E-001	42	4,1307762E-006
2	1	0	1	1	5,316970128739008E+004	1,4354568E+000	1,4347657E+000	3,508297790614658E-003	2,000000000000000E+000	-3,0888787E-001	42	5,0335852E-006
2	1	0	1	1	5,338961178779975E+004	1,4574478E+000	1,4567413E+000	4,136704233271338E-003	2,000000000000000E+000	-3,0802909E-001	42	6,0261082E-006
2	1	0	1	1	5,360952298820944E+004	1,4794389E+000	1,4787859E+000	4,537305062904007E-003	2,000000000000000E+000	-3,0705854E-001	42	6,7097026E-006
2	1	0	1	1	5,382943368861900E+004	1,5014300E+000	1,5007991E+000	5,254482949430914E-003	2,000000000000000E+000	-3,0597487E-001	42	7,8859230E-006
2	1	0	1	1	5,404934498902876E+004	1,5234209E+000	1,5227944E+000	6,604136632220120E-003	2,000000000000000E+000	-3,0467120E-001	42	1,0056742E-005
2	1	0	1	1	5,426925558943814E+004	1,5454118E+000	1,5447538E+000	9,086551544250532E-003	2,000000000000000E+000	-3,0296031E-001	42	1,4036485E-005
2	1	0	1	1	5,448916608984768E+004	1,5674030E+000	1,5667952E+000	1,408751182793178E-002	2,000000000000000E+000	-3,0046892E-001	41	2,2072247E-005
2	1	0	1	1	5,470907659025746E+004	1,5893940E+000	1,5887730E+000	4,273287728909603E-002	2,000000000000000E+000	-2,9491314E-001	41	6,7892841E-005
2	1	0	1	1	5,492898779066710E+004	1,6113850E+000	1,6107486E+000	7,855989996984825E-002	2,000000000000000E+000	-2,8142086E-001	41	1,2654025E-004
2	1	0	1	1	5,514889829107671E+004	1,6333759E+000	1,6327744E+000	1,075786036429343E-001	2,000000000000000E+000	-2,6080173E-001	40	1,7565158E-004
2	1	0	1	1	5,536880939148646E+004	1,6553671E+000	1,6547743E+000	1,279369190545010E-001	2,000000000000000E+000	-2,3470354E-001	40	2,1170672E-004
2	1	0	1	1	5,558871999189584E+004	1,6773580E+000	1,6767955E+000	1,368965367112043E-001	2,000000000000000E+000	-2,0532377E-001	40	2,2954750E-004
2	1	0	1	1	5,580863109230553E+004	1,6993490E+000	1,6987823E+000	1,330099273773324E-001	2,000000000000000E+000	-1,7538740E-001	40	2,2595491E-004
2	1	0	1	1	5,602854179271508E+004	1,7213399E+000	1,7207780E+000	1,145880742223414E-001	2,000000000000000E+000	-1,4785172E-001	40	1,9718063E-004
2	1	0	1	1	5,624845319312479E+004	1,7433312E+000	1,7427453E+000	8,107511208645857E-002	2,000000000000000E+000	-1,2610564E-001	40	1,4129328E-004
2	1	0	1	1	5,646836369353440E+004	1,7653222E+000	1,7647082E+000	4,165665882412456E-002	2,000000000000000E+000	-1,1273614E-001	41	7,3511845E-005
2	1	0	1	1	5,668827419394394E+004	1,7873131E+000	1,7867000E+000	2,270448769277755E-002	2,000000000000000E+000	-1,0607062E-001	41	4,0566109E-005
2	1	0	1	1	5,690818479435379E+004	1,8093041E+000	1,8086760E+000	1,584757521107114E-002	2,000000000000000E+000	-1,0189129E-001	41	2,8663129E-005
2	1	0	1	1	5,712809589476325E+004	1,8312951E+000	1,8306949E+000	1,147242951267485E-002	2,000000000000000E+000	-9,8904498E-002	41	2,1002519E-005
2	1	0	1	1	5,734800639517279E+004	1,8532864E+000	1,8526952E+000	8,521225011038774E-003	2,000000000000000E+000	-9,6727960E-002	41	1,5787233E-005
2	1	0	1	1	5,756791759558243E+004	1,8752774E+000	1,8746787E+000	6,960138555305348E-003	2,000000000000000E+000	-9,5021985E-002	41	1,3048024E-005
2	1	0	1	1	5,778782809599210E+004	1,8972683E+000	1,8966683E+000	5,305305660738863E-003	2,000000000000000E+000	-9,3646705E-002	41	1,0062405E-005
2	1	0	1	1	5,800773859640170E+004	1,9192593E+000	1,9186177E+000	4,186441655257954E-003	2,000000000000000E+000	-9,2604071E-002	42	8,0321815E-006
2	1	0	1	1	5,822764939681138E+004	1,9412506E+000	1,9406025E+000	3,802650931933139E-003	2,000000000000000E+000	-9,1724984E-002	42	7,3794340E-006
2	1	0	1	1	5,844756069722096E+004	1,9632413E+000	1,9625881E+000	3,706609788039661E-003	2,000000000000000E+000	-9,0883277E-002	42	7,2745484E-006
2	1	0	1	1	5,866747119763051E+004	1,9852326E+000	1,9845839E+000	3,623316260971815E-003	2,000000000000000E+000	-9,0060815E-002	42	7,1907748E-006
2	1	0	1	1	5,888738299804012E+004	2,0072234E+000	2,0065863E+000	3,552814361785853E-003	2,000000000000000E+000	-8,9254551E-002	42	7,1290287E-006
2	1	0	1	1	5,910729349844973E+004	2,0292144E+000	2,0285904E+000	3,500146870987340E-003	2,000000000000000E+000	-8,8460095E-002	42	7,1003647E-006
2	1	0	1	1	5,932720399885945E+004	2,0512054E+000	2,0505900E+000	3,438126813403310E-003	2,000000000000000E+000	-8,7678626E-002	42	7,0501887E-006
2	1	0	1	1	5,954711459926912E+004	2,0731964E+000	2,0725708E+000	3,379949656306697E-003	2,000000000000000E+000	-8,6910009E-002	42	7,0051851E-006
2	1	0	1	1	5,976702629967872E+004	2,0951872E+000	2,0945523E+000	3,310925524902777E-003	2,000000000000000E+000	-8,6156100E-002	42	6,9349067E-006
2	1	0	1	1	5,998693680008821E+004	2,1171789E+000	2,1165736E+000	3,251005462640549E-003	2,000000000000000E+000	-8,5415460E-002	42	6,8809923E-006
2	1	0	1	1	6,020684740049788E+004	2,1391699E+000	2,1385200E+000	3,180874817627695E-003	2,000000000000000E+000	-8,4690332E-002	42	6,8023646E-006
2	1	0	1	1	6,042675810090755E+004	2,1611609E+000	2,1605194E+000	3,095801169235662E-003	2,000000000000000E+000	-8,3981954E-002	42	6,6885382E-006
2	1	0	1	1	6,064666880131699E+004	2,1831517E+000	2,1825461E+000	3,016244185434398E-003	2,000000000000000E+000	-8,3291307E-002	42	6,5830923E-006
2	1	0	1	1	6,086657940172683E+004	2,2051430E+000	2,2045374E+000	2,929915130176194E-003	2,000000000000000E+000	-8,2619056E-002	42	6,4591077E-006
2	1	0	1	1	6,108648990213638E+004	2,2271338E+000	2,2265086E+000	2,835704045005796E-003	2,000000000000000E+000	-8,1966557E-002	42	6,3137195E-006
2	1	0	1	1	6,130640160254599E+004	2,2491245E+000	2,2484801E+000	2,760085310995229E-003	2,000000000000000E+000	-8,1333287E-002	42	6,2059967E-006
2	1	0	1	1	6,152631220295557E+004	2,2711160E+000	2,2704694E+000	2,696436622603954E-003	2,000000000000000E+000	-8,0715500E-002	42	6,1221767E-006
2	1	0	1	1	6,174622270336514E+004	2,2931068E+000	2,2924623E+000	2,627985114325850E-003	2,000000000000000E+000	-8,0111079E-002	42	6,0245570E-006
2	1	0	1	1	6,196613320377475E+004	2,3150978E+000	2,3144898E+000	2,585358528488478E-003	2,000000000000000E+000	-7,9519078E-002	42	5,9837862E-006
2	1	0	1	1	6,218604500418436E+004	2,3370891E+000	2,3364496E+000	2,549441228649779E-003	2,000000000000000E+000	-7,8936301E-002	42	5,9566410E-006
2	1	0	1	1	6,240595550459402E+004	2,3590798E+000	2,3584266E+000	2,473025562744244E-003	2,000000000000000E+000	-7,8365885E-002	42	5,8324490E-006
2	1	0	1	1	6,262586620500369E+004	2,3810706E+000	2,3804514E+000	2,375017210538986E-003	2,000000000000000E+000	-7,7812091E-002	42	5,6536132E-006
2	1	0	1	1	6,284577700541326E+004	2,4030623E+000	2,4024484E+000	2,227432968315322E-003	2,000000000000000E+000	-7,7289097E-002	42	5,3512927E-006
2	1	0	1	1	6,306568750582280E+004	2,4250529E+000	2,4244914E+000	2,166842282191106E-003	2,000000000000000E+000	-7,6789007E-002	42	5,2534906E-006
2	1	0	1	1	6,328559800623264E+004	2,4470441E+000	2,4464638E+000	2,153489802966098E-003	2,000000000000000E+000	-7,6296583E-002	42	5,2684350E-006
2	1	0	1	1	6,350550860664202E+004	2,4690351E+000	2,4684539E+000	2,146424238905872E-003	2,000000000000000E+000	-7,5806983E-002	42	5,2983492E-006
2	1	0	1	1	6,372542030705174E+004	2,4910259E+000	2,4904275E+000	2,153350248011984E-003	2,000000000000000E+000	-7,5318024E-002	42	5,3627627E-006
2	1	0	1	1	6,394533080746129E+004	2,5130169E+000	2,5124238E+000	2,174438723079718E-003	2,000000000000000E+000	-7,4826159E-002	42	5,4631114E-006
2	1	0	1	1	6,416524140787090E+004	2,5350080E+000	2,5344281E+000	2,192316658461826E-003	2,000000000000000E+000	-7,4329942E-002	42	5,5562691E-006
2	1	0	1	1	6,438515190828059E+004	2,5569992E+000	2,5564370E+000	2,205719843249472E-003	2,000000000000000E+000	-7,3830009E-002	42	5,6387839E-006
2	1	0	1	1	6,460506360869017E+004	2,5789907E+000	2,5784211E+000	2,231788796568972E-003	2,000000000000000E+000	-7,3326401E-002	42	5,7544912E-006
2	1	0	1	1	6,482497420909978E+004	2,6009815E+000	2,6003933E+000	2,269870897103010E-003	2,000000000000000E+000	-7,2815493E-002	42	5,9025569E-006
2	1	0	1	1	6,504488510950934E+004	2,6229720E+000	2,6223943E+000	2,302502713360941E-003	2,000000000000000E+000	-7,2296925E-002	42	6,0380698E-006
2	1	0	1	1	6,526479560991901E+004	2,6449635E+000	2,6443870E+000	2,279324992759159E-003	2,000000000000000E+000	-7,1780078E-002	42	6,0274174E-006
2	1	0	1	1	6,548470621032873E+004	2,6669545E+000	2,6664169E+000	2,342040959341818E-003	2,000000000000000E+000	-7,1256347E-002	42	6,2448576E-006
2	1	0	1	1	6,570461667053611E+004	2,6889455E+000	2,6883731E+000	2,398661322739883E-003	2,000000000000000E+000	-7,0719644E-002	42	6,4484966E-006
2	1	0	1	0	6,591053192183113E+004	2,6904447E+000	2,6898735E+000	1,565515505270159E-003	2,000000000000000E+000	-7,0276678E-002	42	4,2110387E-006
2	1	0	1	0	6,613044316980429E+004	2,6684537E+000	2,6678832E+000	9,026333668829961E-004	2,000000000000000E+000	-7,0030853E-002	42	2,4081203E-006
2	1	0	1	0	6,635035121777220E+004	2,6464629E+000	2,6458476E+000	5,621390669566916E-004	2,000000000000000E+000	-6,9888800E-002	43	1,4873343E-006
2	1	0	1	0	6,657025936574501E+004	2,6244714E+000	2,6238813E+000	3,724658244487694E-004	2,000000000000000E+000	-6,9800586E-002	43	9,7730617E-007
2	1	0	1	0	6,679016741373623E+004	2,6024809E+000	2,6019151E+000	2,284214015696069E-004	2,000000000000000E+000	-6,9747671E-002	43	5,9433307E-007
2	1	0	1	0	6,701007476173318E+004	2,5804894E+000	2,5799289E+000	1,440733067058237E-004	2,000000000000000E+000	-6,9720440E-002	43	3,7169889E-007
2	1	0	1	0	6,722998280972708E+004	2,5584984E+000	2,5579333E+000	4,637769105469037E-005	2,000000000000000E+000	-6,9713026E-002	44	1,1863104E-007
2	1	0	1	0	6,745189005722670E+004	2,5363073E+000	2,5357649E+000	-1,620838207069987E-005	2,000000000000000E+000	-6,9724515E-002	44	-4,1100648E-008
2	0	0	1	0	6,767179820519465E+004	2,5143166E+000	2,5137942E+000	-1,083928079737151E-004	2,000000000000000E+000	-6,9752231E-002	43	-2,7247722E-007
2	0	0	1	0	6,789170625316864E+004	2,4923255E+000	2,4917688E+000	-1,696262161354916E-004	2,000000000000000E+000	-6,9794938E-002	43	-4,2266933E-007
2	0	0	1	0	6,811161440115864E+004	2,4703348E+000	2,4698033E+000	-2,334941429227829E-004	2,000000000000000E+000	-6,9851220E-002	43	-5,7668461E-007
2	0	0	1	0	6,833152364915644E+004	2,4483433E+000	2,4478126E+000	-2,912130833393738E-004	2,000000000000000E+000	-6,9921717E-002	43	-7,1283506E-007
2	0	0	1	0	6,855143179714913E+004	2,4263525E+000	2,4258828E+000	-3,468081647477672E-004	2,000000000000000E+000	-7,0004418E-002	43	-8,4131597E-007
2	0	0	1	0	6,877133984512649E+004	2,4043612E+000	2,4038622E+000	-4,020002957177414E-004	2,000000000000000E+000	-7,0099145E-002	43	-9,6635335E-007
2	0	0	1	0	6,899124799309298E+004	2,3823705E+000	2,3818774E+000	-4,526863696956728E-004	2,000000000000000E+000	-7,0205137E-002	43	-1,0782435E-006
2	0	0	1	0	6,921115404106444E+004	2,3603795E+000	2,3598804E+000	-5,058073068202641E-004	2,000000000000000E+000	-7,0321664E-002	43	-1,1936447E-006
2	0	0	1	0	6,943106218905095E+004	2,3383884E+000	2,3378892E+000	-5,458963434244752E-004	2,000000000000000E+000	-7,0448734E-002	43	-1,2762451E-006
2	0	0	1	0	6,965097023704997E+004	2,3163972E+000	2,3159132E+000	-5,952274638575819E-004	2,000000000000000E+000	-7,0586033E-002	43	-1,3784951E-006
2	0	0	1	0	6,987087838504510E+004	2,2944062E+000	2,2939184E+000	-6,334347399882359E-004	2,000000000000000E+000	-7,0733309E-002	43	-1,4530476E-006
2	0	0	1	0	7,009078763302509E+004	2,2724152E+000	2,2719254E+000	-6,830627295654305E-004	2,000000000000000E+000	-7,0891246E-002	43	-1,5518676E-006
2	0	0	1	0	7,031069578099146E+004	2,2504241E+000	2,2499573E+000	-7,355063465353407E-004	2,000000000000000E+000	-7,1059942E-002	43	-1,6548579E-006
2	0	0	1	0	7,053060382896126E+004	2,2284336E+000	2,2278881E+000	-7,854717339573821E-004	2,000000000000000E+000	-7,1240619E-002	42	-1,7499432E-006
2	0	0	1	0	7,075051317694271E+004	2,2064421E+000	2,2059102E+000	-8,356137486362947E-004	2,000000000000000E+000	-7,1433619E-002	42	-1,8432889E-006
2	0	0	1	0	7,097042122494243E+004	2,1844511E+000	2,1839068E+000	-9,027816366803127E-004	2,000000000000000E+000	-7,1639679E-002	42	-1,9715910E-006
2	0	0	1	0	7,119032937293965E+004	2,1624601E+000	2,1618972E+000	-9,752943638106706E-004	2,000000000000000E+000	-7,1860343E-002	42	-2,1084861E-006
2	0	0	1	0	7,141023542092438E+004	2,1404691E+000	2,1399019E+000	-1,042560535531376E-003	2,000000000000000E+000	-7,2097033E-002	42	-2,2309773E-006
2	0	0	1	0	7,163014356888970E+004	2,1184778E+000	2,1179290E+000	-1,132026099333378E-003	2,000000000000000E+000	-7,2351038E-002	42	-2,3975508E-006
2	0	0	1	0	7,185005171685829E+004	2,0964868E+000	2,0959334E+000	-1,220278918200320E-003	2,000000000000000E+000	-7,2624408E-002	42	-2,5576235E-006
2	0	0	1	0	7,206995976483834E+004	2,0744963E+000	2,0739696E+000	-1,318036067284045E-003	2,000000000000000E+000	-7,2918780E-002	42	-2,7335668E-006
2	0	0	1	0	7,228986901283544E+004	2,0525050E+000	2,0519476E+000	-1,428694718099548E-003	2,000000000000000E+000	-7,3236004E-002	42	-2,9316068E-006
2	0	0	1	0	7,250977716083312E+004	2,0305140E+000	2,0300038E+000	-1,551641455504585E-003	2,000000000000000E+000	-7,3579259E-002	42	-3,1498380E-006
2	0	0	1	0	7,272968520881888E+004	2,0085230E+000	2,0079894E+000	-1,699888148345092E-003	2,000000000000000E+000	-7,3952131E-002	42	-3,4133575E-006
2	0	0	1	0	7,294959395678947E+004	1,9865317E+000	1,9859759E+000	-1,858183146208899E-003	2,000000000000000E+000	-7,4357837E-002	42	-3,6903068E-006
2	0	0	1	0	7,316950380475540E+004	1,9645408E+000	1,9639864E+000	-2,024688426638610E-003	2,000000000000000E+000	-7,4799329E-002	42	-3,9764604E-006
2	0	0	1	0	7,338941315273335E+004	1,9425498E+000	1,9419795E+000	-2,203430485707300E-003	2,000000000000000E+000	-7,5278528E-002	42	-4,2790170E-006
2	0	0	1	0	7,360932220072567E+004	1,9205588E+000	1,9200251E+000	-2,388305776468775E-003	2,000000000000000E+000	-7,5797319E-002	42	-4,5856073E-006
2	0	0	1	0	7,382923144872463E+004	1,8985679E+000	1,8980188E+000	-2,606986126962550E-003	2,000000000000000E+000	-7,6360375E-002	42	-4,9481087E-006
2	0	0	1	0	7,399947420846275E+004	1,8815254E+000	1,8809547E+000	-2,831469919093429E-003	2,000000000000000E+000	-7,6832168E-002	42	-5,3258668E-006