File: Dati/201027/CV_LTO-C_Al_slurrymia_01_1mVs_07_CV_C03.mpt
EC-Lab ASCII FILE
Nb header lines : 63

Cyclic Voltammetry

Run on channel : 3 (SN 6807)
User :
Electrode connection : standard
Ewe ctrl range : min = 0,00 V, max = 5,00 V
Ewe,I filtering : 50 kHz
Safety Limits :
	Do not start on E overload
Channel : Grounded
Acquisition started on : 10/27/2020 18:19:16
Saved on :
	File : CV_LTO-C_Al_slurrymia_01_1mVs_07_CV_C03.mpr
	Directory : C:\Users\labsuperfici\Desktop\Biologic\Users\Prisca Viviani\201027\
	Host : 10.78.33.0
Device : VSP-300 (SN 0638)
Address : USB
EC-Lab for windows v11.31 (software)
Internet server v11.30 (firmware)
Command interpretor v11.31 (firmware)
Electrode material :
Initial state :
Electrolyte :
Comments :
Cable : standard
Reference electrode : SCE Saturated Calomel Electrode (0,241 V)
Electrode surface area : 0,001 cm²
Characteristic mass : 0,001 g
Equivalent Weight : 0,000 g/eq.
Density : 0,000 g/cm3
Cycle Definition : Charge/Discharge alternance
Ei (V)              0,000
vs.                 Eoc
dE/dt               0,700
dE/dt unit          mV/s
E1 (V)              1,000
vs.                 Ref
Step percent        50
N                   10
E range min (V)     0,000
E range max (V)     5,000
I Range             Auto
I Range min         Unset
I Range max         Unset
I Range init        Unset
Bandwidth           8
E2 (V)              3,000
vs.                 Ref
nc cycles           2
Reverse Scan        1
Ef (V)              0,000
vs.                 Eoc

Modify on : 10/28/2020 10:35
nc cycles           1

Modify on : 10/28/2020 10:37
E2 (V)              2,700

mode	ox/red	error	control changes	counter inc.	time/s	control/V	Ewe/V	<I>/mA	cycle number	(Q-Qo)/C	I Range	P/W
2	0	0	0	0	1,726018272062745E+005	1,8815254E+000	1,8809166E+000	-1,274878159165382E-002	1,000000000000000E+000	0,0000000E+000	41	-2,3979395E-005
2	0	0	1	0	1,726297444106429E+005	1,8619827E+000	1,8613721E+000	-1,356141037433747E-002	1,000000000000000E+000	-3,7132599E-004	41	-2,5242831E-005
2	0	0	0	0	1,726583042151108E+005	1,8419909E+000	1,8413897E+000	-1,484290364620816E-002	1,000000000000000E+000	-7,9065084E-004	41	-2,7331569E-005
2	0	0	1	0	1,726868640195788E+005	1,8219991E+000	1,8213633E+000	-1,598884348862788E-002	1,000000000000000E+000	-1,2441661E-003	41	-2,9121493E-005
2	0	0	1	0	1,727154238240471E+005	1,8020072E+000	1,8013798E+000	-1,706263232791112E-002	1,000000000000000E+000	-1,7288016E-003	41	-3,0736282E-005
2	0	0	1	0	1,727439836285165E+005	1,7820154E+000	1,7813953E+000	-1,815736716247601E-002	1,000000000000000E+000	-2,2450427E-003	41	-3,2345448E-005
2	0	0	1	0	1,727725434329854E+005	1,7620233E+000	1,7614123E+000	-1,925470907680923E-002	1,000000000000000E+000	-2,7928019E-003	41	-3,3915479E-005
2	0	0	1	0	1,728011031374545E+005	1,7420316E+000	1,7414366E+000	-2,030053358565281E-002	1,000000000000000E+000	-3,3708417E-003	41	-3,5352092E-005
2	0	0	1	0	1,728296628419217E+005	1,7220398E+000	1,7214354E+000	-2,141273396229278E-002	1,000000000000000E+000	-3,9793537E-003	41	-3,6860638E-005
2	0	0	1	0	1,728582226463899E+005	1,7020481E+000	1,7014381E+000	-2,286082893972953E-002	1,000000000000000E+000	-4,6233390E-003	41	-3,8896284E-005
2	0	0	1	0	1,728867824508583E+005	1,6820562E+000	1,6814915E+000	-2,490370337856892E-002	1,000000000000000E+000	-5,3168223E-003	41	-4,1875366E-005
2	0	0	0	0	1,729153422553280E+005	1,6620643E+000	1,6614619E+000	-2,816165569218068E-002	1,000000000000000E+000	-6,0848179E-003	41	-4,6789519E-005
2	0	0	1	0	1,729439020597963E+005	1,6420726E+000	1,6414808E+000	-3,303931241278857E-002	1,000000000000000E+000	-6,9670286E-003	41	-5,4233398E-005
2	0	0	1	0	1,729724617642653E+005	1,6220806E+000	1,6214796E+000	-4,026873849955376E-002	1,000000000000000E+000	-8,0189789E-003	41	-6,5294938E-005
2	0	0	1	0	1,730010216687322E+005	1,6020888E+000	1,6015273E+000	-5,012857714713581E-002	1,000000000000000E+000	-9,3160467E-003	41	-8,0282283E-005
2	0	0	1	0	1,730295812732009E+005	1,5820969E+000	1,5815257E+000	-6,417047754296457E-002	1,000000000000000E+000	-1,0952212E-002	41	-1,0148726E-004
2	0	0	0	0	1,730581410776696E+005	1,5621051E+000	1,5615510E+000	-8,469706579761671E-002	1,000000000000000E+000	-1,3070432E-002	41	-1,3225879E-004
2	0	0	1	0	1,730867008821394E+005	1,5421133E+000	1,5414947E+000	-1,277784569713311E-001	1,000000000000000E+000	-1,6012659E-002	40	-1,9696982E-004
2	0	0	1	0	1,731152605866077E+005	1,5221215E+000	1,5215366E+000	-2,494595413186218E-001	1,000000000000000E+000	-2,1262221E-002	40	-3,7956182E-004
2	0	0	1	0	1,731438203910757E+005	1,5021298E+000	1,5015564E+000	-3,623533146031068E-001	1,000000000000000E+000	-3,0129978E-002	40	-5,4409396E-004
2	0	0	1	0	1,731723801955436E+005	1,4821379E+000	1,4815978E+000	-4,273442395740830E-001	1,000000000000000E+000	-4,1531999E-002	40	-6,3315226E-004
2	0	0	1	0	1,732009401000119E+005	1,4621458E+000	1,4615852E+000	-4,488067713431194E-001	1,000000000000000E+000	-5,4145571E-002	40	-6,5596931E-004
2	0	0	1	0	1,732294997044811E+005	1,4421540E+000	1,4415857E+000	-4,420609374225899E-001	1,000000000000000E+000	-6,6933706E-002	40	-6,3726871E-004
2	0	0	0	0	1,732580595089502E+005	1,4221622E+000	1,4216073E+000	-4,190899735879344E-001	1,000000000000000E+000	-7,9267971E-002	40	-5,9578137E-004
2	0	0	1	0	1,732866192134190E+005	1,4021704E+000	1,4016140E+000	-3,897525260130248E-001	1,000000000000000E+000	-9,0837643E-002	40	-5,4628256E-004
2	0	0	1	0	1,733151791178864E+005	1,3821785E+000	1,3815975E+000	-3,592568038149745E-001	1,000000000000000E+000	-1,0154065E-001	40	-4,9634831E-004
2	0	0	1	0	1,733437389223548E+005	1,3621867E+000	1,3616322E+000	-3,301011678602239E-001	1,000000000000000E+000	-1,1139032E-001	40	-4,4947639E-004
2	0	0	1	0	1,733722986268228E+005	1,3421947E+000	1,3416183E+000	-3,036043230329311E-001	1,000000000000000E+000	-1,2044179E-001	40	-4,0732112E-004
2	0	0	1	0	1,734008584312925E+005	1,3222032E+000	1,3216108E+000	-2,799759163324809E-001	1,000000000000000E+000	-1,2877844E-001	40	-3,7001920E-004
2	0	0	1	0	1,734294181357611E+005	1,3022112E+000	1,3016381E+000	-2,592754364381173E-001	1,000000000000000E+000	-1,3648072E-001	40	-3,3748278E-004
2	0	0	1	0	1,734579779402297E+005	1,2822193E+000	1,2816224E+000	-2,410941042145778E-001	1,000000000000000E+000	-1,4363037E-001	40	-3,0899161E-004
2	0	0	1	0	1,734865377446972E+005	1,2622274E+000	1,2616609E+000	-2,243624808052971E-001	1,000000000000000E+000	-1,5028356E-001	40	-2,8306938E-004
2	0	0	1	0	1,735150974491655E+005	1,2422355E+000	1,2416292E+000	-2,088780357724707E-001	1,000000000000000E+000	-1,5647575E-001	40	-2,5934906E-004
2	0	0	1	0	1,735436571536343E+005	1,2222438E+000	1,2216557E+000	-1,947481336996537E-001	1,000000000000000E+000	-1,6224389E-001	40	-2,3791517E-004
2	0	0	1	0	1,735722169581038E+005	1,2022519E+000	1,2016720E+000	-1,818998696603620E-001	1,000000000000000E+000	-1,6762570E-001	40	-2,1858397E-004
2	0	0	1	0	1,736007768625724E+005	1,1822600E+000	1,1816696E+000	-1,703796536314133E-001	1,000000000000000E+000	-1,7265959E-001	40	-2,0133246E-004
2	0	0	1	0	1,736293365670405E+005	1,1622682E+000	1,1616797E+000	-1,597798335138341E-001	1,000000000000000E+000	-1,7737797E-001	40	-1,8561300E-004
2	0	0	1	0	1,736578962715082E+005	1,1422764E+000	1,1416903E+000	-1,500267241540880E-001	1,000000000000000E+000	-1,8180668E-001	40	-1,7128405E-004
2	0	0	1	0	1,736864559759765E+005	1,1222847E+000	1,1216810E+000	-1,410042161190421E-001	1,000000000000000E+000	-1,8596642E-001	40	-1,5816174E-004
2	0	0	1	0	1,737150157804457E+005	1,1022928E+000	1,1017034E+000	-1,328428076804381E-001	1,000000000000000E+000	-1,8987985E-001	40	-1,4635337E-004
2	0	0	1	0	1,737435756849148E+005	1,0823009E+000	1,0817076E+000	-1,256101118691881E-001	1,000000000000000E+000	-1,9357313E-001	40	-1,3587342E-004
2	0	0	1	0	1,737721353893834E+005	1,0623090E+000	1,0617108E+000	-1,191308252244769E-001	1,000000000000000E+000	-1,9707112E-001	40	-1,2648248E-004
2	0	0	1	0	1,738006952938512E+005	1,0423170E+000	1,0416886E+000	-1,137176884155560E-001	1,000000000000000E+000	-2,0039824E-001	40	-1,1845842E-004
2	0	0	1	0	1,738292547983192E+005	1,0223253E+000	1,0217029E+000	-1,092765673730214E-001	1,000000000000000E+000	-2,0358391E-001	40	-1,1164819E-004
2	0	0	1	0	1,738578147027874E+005	1,0023334E+000	1,0017325E+000	-1,060290082617978E-001	1,000000000000000E+000	-2,0666027E-001	40	-1,0621270E-004
2	0	0	1	0	1,738848043070110E+005	1,0165278E+000	1,0159448E+000	-7,997393528942454E-002	1,000000000000000E+000	-2,0913157E-001	40	-8,1249105E-005
2	0	0	1	0	1,739133642114792E+005	1,0365194E+000	1,0359374E+000	-6,465706335938837E-002	1,000000000000000E+000	-2,1117806E-001	40	-6,6980669E-005
2	0	0	0	0	1,739419240159474E+005	1,0565114E+000	1,0559223E+000	-5,346624778347087E-002	1,000000000000000E+000	-2,1285328E-001	40	-5,6456203E-005
2	0	0	1	0	1,739704837204167E+005	1,0765032E+000	1,0759469E+000	-4,462924473111707E-002	1,000000000000000E+000	-2,1424493E-001	41	-4,8018697E-005
2	0	0	1	0	1,739990435248858E+005	1,0964950E+000	1,0959575E+000	-3,755247928321065E-002	1,000000000000000E+000	-2,1541034E-001	41	-4,1155923E-005
2	0	0	1	0	1,740276032293546E+005	1,1164868E+000	1,1159493E+000	-3,175967972705124E-002	1,000000000000000E+000	-2,1639261E-001	41	-3,5442190E-005
2	0	0	1	0	1,740561631338215E+005	1,1364788E+000	1,1359078E+000	-2,691954468484603E-002	1,000000000000000E+000	-2,1722418E-001	41	-3,0578121E-005
2	0	0	1	0	1,740847229382903E+005	1,1564707E+000	1,1558843E+000	-2,284355141132494E-002	1,000000000000000E+000	-2,1792899E-001	41	-2,6404501E-005
2	0	0	1	0	1,741132827427585E+005	1,1764624E+000	1,1758935E+000	-1,933942510489856E-002	1,000000000000000E+000	-2,1852607E-001	41	-2,2741106E-005
2	0	0	1	0	1,741418424472283E+005	1,1964543E+000	1,1958579E+000	-1,635906591918584E-002	1,000000000000000E+000	-2,1903060E-001	41	-1,9563118E-005
2	0	0	1	0	1,741704022516967E+005	1,2164462E+000	1,2158601E+000	-1,373841122915964E-002	1,000000000000000E+000	-2,1945502E-001	41	-1,6703987E-005
2	0	0	1	0	1,741989620561656E+005	1,2364379E+000	1,2358502E+000	-1,138819025540282E-002	1,000000000000000E+000	-2,1980877E-001	41	-1,4074098E-005
2	0	0	1	0	1,742275219606329E+005	1,2564299E+000	1,2558160E+000	-9,288302413864136E-003	1,000000000000000E+000	-2,2009945E-001	41	-1,1664399E-005
2	0	0	0	0	1,742560816651012E+005	1,2764215E+000	1,2758154E+000	-7,393717965502283E-003	1,000000000000000E+000	-2,2033313E-001	41	-9,4330189E-006
2	0	0	1	0	1,742846414695698E+005	1,2964135E+000	1,2958438E+000	-5,665904275065144E-003	1,000000000000000E+000	-2,2051518E-001	41	-7,3421270E-006
2	0	0	0	0	1,743132012740396E+005	1,3164053E+000	1,3158562E+000	-4,031760600468457E-003	1,000000000000000E+000	-2,2064932E-001	42	-5,3052172E-006
2	0	0	1	0	1,743417610785076E+005	1,3363972E+000	1,3358338E+000	-2,512800729786406E-003	1,000000000000000E+000	-2,2073880E-001	42	-3,3566841E-006
2	0	0	0	0	1,743703208829761E+005	1,3563890E+000	1,3557800E+000	-1,009763214034232E-003	1,000000000000000E+000	-2,2078523E-001	42	-1,3690168E-006
2	1	0	1	0	1,743990234874669E+005	1,3764808E+000	1,3758708E+000	5,206761592360214E-004	1,000000000000000E+000	-2,2078897E-001	43	7,1638311E-007
2	1	0	1	0	1,744275832919343E+005	1,3964728E+000	1,3958493E+000	2,057390673119885E-003	1,000000000000000E+000	-2,2074901E-001	42	2,8718075E-006
2	1	0	1	0	1,744561429964029E+005	1,4164644E+000	1,4158282E+000	3,693011290658951E-003	1,000000000000000E+000	-2,2066349E-001	42	5,2286696E-006
2	1	0	1	0	1,744847028008723E+005	1,4364566E+000	1,4358104E+000	5,547211028042086E-003	1,000000000000000E+000	-2,2052841E-001	42	7,9647434E-006
2	1	0	1	0	1,745132626053414E+005	1,4564484E+000	1,4557667E+000	7,590063260803970E-003	1,000000000000000E+000	-2,2033806E-001	42	1,1049361E-005
2	1	0	0	0	1,745418225098099E+005	1,4764401E+000	1,4758645E+000	1,003312520438260E-002	1,000000000000000E+000	-2,2008406E-001	41	1,4807533E-005
2	1	0	1	0	1,745703822142780E+005	1,4964318E+000	1,4958138E+000	1,283631407710500E-002	1,000000000000000E+000	-2,1975477E-001	41	1,9200736E-005
2	1	0	1	0	1,745989420187455E+005	1,5164237E+000	1,5158151E+000	1,668209977330391E-002	1,000000000000000E+000	-2,1933225E-001	41	2,5286980E-005
2	1	0	1	0	1,746275018232141E+005	1,5364157E+000	1,5358225E+000	2,235767399217156E-002	1,000000000000000E+000	-2,1877663E-001	41	3,4337419E-005
2	1	0	1	0	1,746560616276835E+005	1,5564076E+000	1,5557773E+000	3,145056116184519E-002	1,000000000000000E+000	-2,1801430E-001	41	4,8930069E-005
2	1	0	1	0	1,746846215321524E+005	1,5763993E+000	1,5757517E+000	4,589743269625512E-002	1,000000000000000E+000	-2,1692169E-001	41	7,2322953E-005
2	1	0	1	0	1,747131812366215E+005	1,5963911E+000	1,5957648E+000	8,665599718404193E-002	1,000000000000000E+000	-2,1514143E-001	41	1,3828259E-004
2	1	0	1	0	1,747417409410886E+005	1,6163828E+000	1,6158032E+000	1,558390863897698E-001	1,000000000000000E+000	-2,1169019E-001	40	2,5180529E-004
2	1	0	1	0	1,747703007455568E+005	1,6363747E+000	1,6357582E+000	2,310459370360860E-001	1,000000000000000E+000	-2,0617758E-001	40	3,7793527E-004
2	1	0	1	0	1,747988606500253E+005	1,6563666E+000	1,6557367E+000	3,178796738326792E-001	1,000000000000000E+000	-1,9836929E-001	40	5,2632502E-004
2	1	0	1	0	1,748274204544950E+005	1,6763587E+000	1,6757154E+000	4,264150145973478E-001	1,000000000000000E+000	-1,8779857E-001	40	7,1455020E-004
2	1	0	1	0	1,748559803589634E+005	1,6963505E+000	1,6956952E+000	5,697965412585262E-001	1,000000000000000E+000	-1,7366171E-001	40	9,6620125E-004
2	1	0	1	0	1,748845400634320E+005	1,7163423E+000	1,7156724E+000	7,546000704383786E-001	1,000000000000000E+000	-1,5482359E-001	40	1,2946465E-003
2	1	0	1	0	1,749130998678999E+005	1,7363341E+000	1,7356452E+000	9,583906500037471E-001	1,000000000000000E+000	-1,3032310E-001	40	1,6634261E-003
2	1	0	1	0	1,749416595723680E+005	1,7563257E+000	1,7557762E+000	1,104987666721360E+000	1,000000000000000E+000	-1,0055213E-001	39	1,9401110E-003
2	1	0	1	0	1,749702194768365E+005	1,7763178E+000	1,7757511E+000	1,038299396598525E+000	1,000000000000000E+000	-6,9225773E-002	39	1,8437613E-003
2	1	0	1	0	1,749987792813063E+005	1,7963096E+000	1,7957804E+000	6,993425114865222E-001	1,000000000000000E+000	-4,3967485E-002	39	1,2558656E-003
2	1	0	1	0	1,750274817857970E+005	1,8164014E+000	1,8157910E+000	3,279121749143323E-001	1,000000000000000E+000	-2,9499067E-002	40	5,9541996E-004
2	1	0	1	0	1,750560415902655E+005	1,8363931E+000	1,8358217E+000	1,426451045908360E-001	1,000000000000000E+000	-2,3267515E-002	40	2,6187100E-004
2	1	0	0	0	1,750846013947334E+005	1,8563850E+000	1,8558128E+000	8,856672628697992E-002	1,000000000000000E+000	-2,0091692E-002	40	1,6436326E-004
2	1	0	1	0	1,751131611992014E+005	1,8763769E+000	1,8758132E+000	6,594461378770100E-002	1,000000000000000E+000	-1,7909147E-002	40	1,2369978E-004
2	1	0	1	0	1,751417210036695E+005	1,8963686E+000	1,8957927E+000	5,342614821790814E-002	1,000000000000000E+000	-1,6207088E-002	40	1,0128490E-004
2	1	0	1	0	1,751704236081606E+005	1,9164605E+000	1,9158509E+000	4,545839144191363E-002	1,000000000000000E+000	-1,4782767E-002	41	8,7091496E-005
2	1	0	0	0	1,751989834126300E+005	1,9364523E+000	1,9358412E+000	3,982168533789809E-002	1,000000000000000E+000	-1,3556839E-002	41	7,7088458E-005
2	1	0	1	0	1,752275432170990E+005	1,9564443E+000	1,9558469E+000	3,528159359596827E-002	1,000000000000000E+000	-1,2473173E-002	41	6,9005393E-005
2	1	0	0	0	1,752561030215677E+005	1,9764360E+000	1,9758164E+000	3,094463359207683E-002	1,000000000000000E+000	-1,1514775E-002	41	6,1140912E-005
2	1	0	1	0	1,752846628260352E+005	1,9964278E+000	1,9958018E+000	2,737521757843289E-002	1,000000000000000E+000	-1,0672513E-002	41	5,4635508E-005
2	1	0	1	0	1,753132225305033E+005	2,0164194E+000	2,0157812E+000	2,464681651560505E-002	1,000000000000000E+000	-9,9181430E-003	41	4,9682589E-005
2	1	0	1	0	1,753417824349718E+005	2,0364113E+000	2,0358009E+000	2,216043952246394E-002	1,000000000000000E+000	-9,2373099E-003	41	4,5114244E-005
2	1	0	1	0	1,753703423394414E+005	2,0564032E+000	2,0557823E+000	2,036809016568783E-002	1,000000000000000E+000	-8,6204717E-003	41	4,1872361E-005
2	1	0	1	0	1,753989021439101E+005	2,0763950E+000	2,0757782E+000	1,930487021346050E-002	1,000000000000000E+000	-8,0422554E-003	41	4,0072631E-005
2	1	0	1	0	1,754274619483785E+005	2,0963871E+000	2,0957580E+000	1,841305005980935E-002	1,000000000000000E+000	-7,4914456E-003	41	3,8589296E-005
2	1	0	1	0	1,754560217528464E+005	2,1163790E+000	2,1157782E+000	1,754287692902423E-002	1,000000000000000E+000	-6,9653713E-003	41	3,7116835E-005
2	1	0	1	0	1,754845815573144E+005	2,1363709E+000	2,1357691E+000	1,668484381408525E-002	1,000000000000000E+000	-6,4640655E-003	41	3,5634974E-005
2	1	0	1	0	1,755131411617831E+005	2,1563625E+000	2,1557603E+000	1,571391276999656E-002	1,000000000000000E+000	-5,9883441E-003	41	3,3875429E-005
2	1	0	1	0	1,755417011662528E+005	2,1763546E+000	2,1757176E+000	1,478184613381206E-002	1,000000000000000E+000	-5,5422406E-003	41	3,2161122E-005
2	1	0	1	0	1,755702609707210E+005	2,1963465E+000	2,1957607E+000	1,412112400509158E-002	1,000000000000000E+000	-5,1169652E-003	41	3,1006610E-005
2	1	0	1	0	1,755988205751893E+005	2,2163382E+000	2,2157400E+000	1,328078641352734E-002	1,000000000000000E+000	-4,7119972E-003	41	2,9426768E-005
2	1	0	1	0	1,756273803796568E+005	2,2363300E+000	2,2357152E+000	1,274759566408501E-002	1,000000000000000E+000	-4,3285564E-003	41	2,8499993E-005
2	1	0	1	0	1,756559402841253E+005	2,2563217E+000	2,2556939E+000	1,245493544748814E-002	1,000000000000000E+000	-3,9561866E-003	41	2,8094522E-005
2	1	0	1	0	1,756845000885946E+005	2,2763135E+000	2,2756927E+000	1,214777017621942E-002	1,000000000000000E+000	-3,5925633E-003	41	2,7644592E-005
2	1	0	1	0	1,757130598930637E+005	2,2963057E+000	2,2957134E+000	1,191060084518444E-002	1,000000000000000E+000	-3,2365094E-003	41	2,7343327E-005
2	1	0	1	0	1,757416197975324E+005	2,3162975E+000	2,3157105E+000	1,167578460045859E-002	1,000000000000000E+000	-2,8874157E-003	41	2,7037737E-005
2	1	0	1	0	1,757701794020003E+005	2,3362892E+000	2,3356984E+000	1,152126653678073E-002	1,000000000000000E+000	-2,5441351E-003	41	2,6910204E-005
2	1	0	1	0	1,757987392064682E+005	2,3562810E+000	2,3556659E+000	1,131623786726230E-002	1,000000000000000E+000	-2,2058908E-003	41	2,6657275E-005
2	1	0	1	0	1,758272990109364E+005	2,3762732E+000	2,3756649E+000	1,117381716316025E-002	1,000000000000000E+000	-1,8723009E-003	41	2,6545245E-005
2	1	0	1	0	1,758558589154059E+005	2,3962646E+000	2,3956661E+000	1,105856772486602E-002	1,000000000000000E+000	-1,5427766E-003	41	2,6492637E-005
2	1	0	1	0	1,758844186198746E+005	2,4162567E+000	2,4156511E+000	1,095479539831312E-002	1,000000000000000E+000	-1,2160726E-003	41	2,6462963E-005
2	1	0	1	0	1,759129784243437E+005	2,4362483E+000	2,4356747E+000	1,089243662644870E-002	1,000000000000000E+000	-8,9191861E-004	41	2,6530432E-005
2	1	0	1	0	1,759415382288108E+005	2,4562402E+000	2,4556463E+000	1,079601300253219E-002	1,000000000000000E+000	-5,7019910E-004	41	2,6511188E-005
2	1	0	1	0	1,759700980332792E+005	2,4762323E+000	2,4756336E+000	1,074607977523614E-002	1,000000000000000E+000	-2,5032161E-004	41	2,6603357E-005
2	1	0	1	0	1,759986579377477E+005	2,4962239E+000	2,4956498E+000	1,072654903855222E-002	1,000000000000000E+000	6,8585607E-005	41	2,6769711E-005
2	1	0	1	0	1,760272177422171E+005	2,5162160E+000	2,5156114E+000	1,073206409847940E-002	1,000000000000000E+000	3,8730900E-004	41	2,6997703E-005
2	1	0	1	0	1,760557774466858E+005	2,5362079E+000	2,5356402E+000	1,075025540135448E-002	1,000000000000000E+000	7,0638827E-004	41	2,7258780E-005
2	1	0	1	0	1,760843372511547E+005	2,5561996E+000	2,5556121E+000	1,077674990682059E-002	1,000000000000000E+000	1,0262029E-003	41	2,7541193E-005
2	1	0	1	0	1,761128970556222E+005	2,5761917E+000	2,5756147E+000	1,087230449957226E-002	1,000000000000000E+000	1,3476654E-003	41	2,8002867E-005
2	1	0	1	0	1,761414567600903E+005	2,5961833E+000	2,5955787E+000	1,099395375720779E-002	1,000000000000000E+000	1,6719194E-003	41	2,8535673E-005
2	1	0	1	0	1,761700165645590E+005	2,6161749E+000	2,6156094E+000	1,110947289596667E-002	1,000000000000000E+000	1,9996432E-003	41	2,9058041E-005
2	1	0	1	0	1,761985764690284E+005	2,6361670E+000	2,6356044E+000	1,123028276183727E-002	1,000000000000000E+000	2,3310620E-003	41	2,9598583E-005
2	1	0	1	0	1,762271362734973E+005	2,6561589E+000	2,6555886E+000	1,136867162347754E-002	1,000000000000000E+000	2,6659926E-003	41	3,0190515E-005
2	1	0	1	0	1,762556960779657E+005	2,6761503E+000	2,6755657E+000	1,152212156575065E-002	1,000000000000000E+000	3,0049153E-003	41	3,0828192E-005
2	1	0	1	0	1,762842558824327E+005	2,6961422E+000	2,6955628E+000	1,171951183972447E-002	1,000000000000000E+000	3,3485009E-003	41	3,1590680E-005
2	1	0	1	1	1,763105311865445E+005	2,6854467E+000	2,6848698E+000	6,508753476329482E-003	1,000000000000000E+000	3,5736277E-003	41	1,7475155E-005
2	1	0	1	1	1,763390909910137E+005	2,6654549E+000	2,6648414E+000	4,198661031829816E-003	1,000000000000000E+000	3,7116390E-003	42	1,1188766E-005
2	1	0	1	1	1,763676507954821E+005	2,6454630E+000	2,6448448E+000	2,817318399581603E-003	1,000000000000000E+000	3,7997416E-003	42	7,4513700E-006
2	1	0	1	1	1,763962105999505E+005	2,6254711E+000	2,6248953E+000	1,883289111687510E-003	1,000000000000000E+000	3,8558317E-003	42	4,9434366E-006
2	1	0	1	1	1,764247705044178E+005	2,6054792E+000	2,6049199E+000	1,175154086984789E-003	1,000000000000000E+000	3,8889092E-003	42	3,0611823E-006
2	1	0	1	1	1,764533303088862E+005	2,5854876E+000	2,5849152E+000	6,136178664975563E-004	1,000000000000000E+000	3,9040903E-003	42	1,5861501E-006
2	1	0	1	1	1,764818899133558E+005	2,5654957E+000	2,5649378E+000	1,815240844753511E-004	1,000000000000000E+000	3,9048423E-003	42	4,6559799E-007
2	0	0	1	1	1,765104497178248E+005	2,5455039E+000	2,5449367E+000	-2,551451221554550E-004	1,000000000000000E+000	3,8933943E-003	42	-6,4932817E-007
2	0	0	1	1	1,765390095222937E+005	2,5255122E+000	2,5249679E+000	-5,980851249855392E-004	1,000000000000000E+000	3,8712653E-003	42	-1,5101457E-006
2	0	0	1	1	1,765675692267613E+005	2,5055201E+000	2,5049725E+000	-9,244455756391196E-004	1,000000000000000E+000	3,8394642E-003	42	-2,3157106E-006
2	0	0	1	1	1,765961291312291E+005	2,4855282E+000	2,4849851E+000	-1,219499050922931E-003	1,000000000000000E+000	3,7989980E-003	42	-3,0304370E-006
2	0	0	1	1	1,766246889356977E+005	2,4655364E+000	2,4650364E+000	-1,485403700209838E-003	1,000000000000000E+000	3,7506321E-003	42	-3,6615743E-006
2	0	0	1	1	1,766532487401670E+005	2,4455445E+000	2,4450207E+000	-1,744404506118215E-003	1,000000000000000E+000	3,6948917E-003	42	-4,2651050E-006
2	0	0	1	1	1,766818082446358E+005	2,4255526E+000	2,4250629E+000	-1,971615983655382E-003	1,000000000000000E+000	3,6323529E-003	42	-4,7812928E-006
2	0	0	1	1	1,767103681491041E+005	2,4055607E+000	2,4050484E+000	-2,179367380557400E-003	1,000000000000000E+000	3,5633268E-003	42	-5,2414839E-006
2	0	0	1	1	1,767389279535720E+005	2,3855689E+000	2,3850534E+000	-2,396209449951843E-003	1,000000000000000E+000	3,4881930E-003	42	-5,7150874E-006
2	0	0	1	1	1,767674875580401E+005	2,3655772E+000	2,3650801E+000	-2,581085501790450E-003	1,000000000000000E+000	3,4073018E-003	42	-6,1044739E-006
2	0	0	1	1	1,767960473625088E+005	2,3455853E+000	2,3450651E+000	-2,805656967192219E-003	1,000000000000000E+000	3,3206441E-003	42	-6,5794484E-006
2	0	0	1	1	1,768246071669785E+005	2,3255937E+000	2,3250866E+000	-2,984087267753059E-003	1,000000000000000E+000	3,2282686E-003	42	-6,9382613E-006
2	0	0	1	1	1,768531668714467E+005	2,3056018E+000	2,3051121E+000	-3,211531955944535E-003	1,000000000000000E+000	3,1302006E-003	42	-7,4029413E-006
2	0	0	1	1	1,768817263759151E+005	2,2856100E+000	2,2851269E+000	-3,410030772107997E-003	1,000000000000000E+000	3,0261551E-003	42	-7,7923532E-006
2	0	0	1	1	1,769102861803826E+005	2,2656181E+000	2,2651165E+000	-3,620526177481792E-003	1,000000000000000E+000	2,9159328E-003	42	-8,2009137E-006
2	0	0	1	1	1,769388460848511E+005	2,2456262E+000	2,2451270E+000	-3,868866792303333E-003	1,000000000000000E+000	2,7994402E-003	42	-8,6860973E-006
2	0	0	1	1	1,769674058893202E+005	2,2256343E+000	2,2251360E+000	-4,097967559105048E-003	1,000000000000000E+000	2,6763524E-003	42	-9,1185357E-006
2	0	0	1	1	1,769959656937895E+005	2,2056425E+000	2,2051637E+000	-4,358499866206712E-003	1,000000000000000E+000	2,5462138E-003	42	-9,6112053E-006
2	0	0	1	1	1,770245253982581E+005	2,1856511E+000	2,1851618E+000	-4,619921102239399E-003	1,000000000000000E+000	2,4087834E-003	42	-1,0095276E-005
2	0	0	1	1	1,770530852027256E+005	2,1656592E+000	2,1651795E+000	-4,891788625730913E-003	1,000000000000000E+000	2,2637798E-003	42	-1,0591601E-005
2	0	0	1	1	1,770816448071939E+005	2,1456671E+000	2,1451826E+000	-5,187719503140349E-003	1,000000000000000E+000	2,1106184E-003	42	-1,1128605E-005
2	0	0	1	1	1,771102046116621E+005	2,1256752E+000	2,1251721E+000	-5,492626722800511E-003	1,000000000000000E+000	1,9488292E-003	42	-1,1672777E-005
2	0	0	1	1	1,771387642161318E+005	2,1056833E+000	2,1052034E+000	-5,797473571137649E-003	1,000000000000000E+000	1,7780084E-003	42	-1,2204861E-005
2	0	0	1	1	1,771673240206004E+005	2,0856915E+000	2,0852067E+000	-6,173353006754770E-003	1,000000000000000E+000	1,5976100E-003	42	-1,2872717E-005
2	0	0	1	1	1,771958838250688E+005	2,0656996E+000	2,0652237E+000	-6,536915281643754E-003	1,000000000000000E+000	1,4071214E-003	42	-1,3500192E-005
2	0	0	1	1	1,772244436295368E+005	2,0457077E+000	2,0452323E+000	-6,936771671618103E-003	1,000000000000000E+000	1,2061188E-003	42	-1,4187310E-005
2	0	0	1	1	1,772530035340048E+005	2,0257158E+000	2,0252621E+000	-7,354066005345758E-003	1,000000000000000E+000	9,9323678E-004	42	-1,4893912E-005
2	0	0	1	1	1,772815630384735E+005	2,0057237E+000	2,0052660E+000	-7,862133206572641E-003	1,000000000000000E+000	7,6698745E-004	42	-1,5765669E-005
2	0	0	1	1	1,773101228429433E+005	1,9857323E+000	1,9852486E+000	-8,422016464366328E-003	1,000000000000000E+000	5,2561937E-004	42	-1,6719796E-005
2	0	0	1	1	1,773386825474114E+005	1,9657403E+000	1,9651852E+000	-9,133177685894389E-003	1,000000000000000E+000	2,6684755E-004	41	-1,7948385E-005
2	0	0	1	1	1,773672424518797E+005	1,9457487E+000	1,9451697E+000	-9,738024260105047E-003	1,000000000000000E+000	-1,1601242E-005	41	-1,8942110E-005
2	0	0	1	1	1,773958022563471E+005	1,9257567E+000	1,9252034E+000	-1,048689930339894E-002	1,000000000000000E+000	-3,1101672E-004	41	-2,0189414E-005
2	0	0	1	1	1,774243620608156E+005	1,9057648E+000	1,9051605E+000	-1,132348178339148E-002	1,000000000000000E+000	-6,3313387E-004	41	-2,1573051E-005
2	0	0	1	1	1,774529217652849E+005	1,8857729E+000	1,8852119E+000	-1,217158352041953E-002	1,000000000000000E+000	-9,7928103E-004	41	-2,2946015E-005
2	0	0	1	1	1,774799106695070E+005	1,8668808E+000	1,8662877E+000	-1,307659996115262E-002	2,000000000000000E+000	-1,3301502E-003	41	-2,4404697E-005
2	0	0	1	1	1,775084703739753E+005	1,8468889E+000	1,8463104E+000	-1,413121083562650E-002	2,000000000000000E+000	-1,7292948E-003	41	-2,6090602E-005
2	0	0	1	1	1,775370302784450E+005	1,8268973E+000	1,8262938E+000	-1,529520889022512E-002	2,000000000000000E+000	-2,1600146E-003	41	-2,7933545E-005
2	0	0	1	1	1,775655900829136E+005	1,8069054E+000	1,8063508E+000	-1,634982758426584E-002	2,000000000000000E+000	-2,6222116E-003	41	-2,9533525E-005
2	0	0	1	1	1,775941498873825E+005	1,7869133E+000	1,7863404E+000	-1,744616244298694E-002	2,000000000000000E+000	-3,1156223E-003	41	-3,1164785E-005
2	0	0	1	1	1,776227095918497E+005	1,7669215E+000	1,7663637E+000	-1,865073460391767E-002	2,000000000000000E+000	-3,6415511E-003	41	-3,2943983E-005
2	0	0	1	1	1,776512693963181E+005	1,7469298E+000	1,7463571E+000	-1,975829676995616E-002	2,000000000000000E+000	-4,2009884E-003	41	-3,4505043E-005
2	0	0	1	1	1,776798291007868E+005	1,7269380E+000	1,7263688E+000	-2,092955090145258E-002	2,000000000000000E+000	-4,7931517E-003	41	-3,6132122E-005
2	0	0	0	1	1,777083888052563E+005	1,7069460E+000	1,7063969E+000	-2,217671889327716E-002	2,000000000000000E+000	-5,4192031E-003	41	-3,7842285E-005
2	0	0	1	1	1,777369487097249E+005	1,6869541E+000	1,6864110E+000	-2,393221464358360E-002	2,000000000000000E+000	-6,0880031E-003	41	-4,0359551E-005
2	0	0	1	1	1,777655085141934E+005	1,6669623E+000	1,6663772E+000	-2,666145242936968E-002	2,000000000000000E+000	-6,8184533E-003	41	-4,4428038E-005
2	0	0	1	1	1,777940683186608E+005	1,6469705E+000	1,6463996E+000	-3,069500930685337E-002	2,000000000000000E+000	-7,6436661E-003	41	-5,0536251E-005
2	0	0	1	1	1,778226280231290E+005	1,6269786E+000	1,6264342E+000	-3,670949374121313E-002	2,000000000000000E+000	-8,6117303E-003	41	-5,9705577E-005
2	0	0	1	1	1,778511878275982E+005	1,6069866E+000	1,6064298E+000	-4,524412424032073E-002	2,000000000000000E+000	-9,7876098E-003	41	-7,2681512E-005
2	0	0	1	1	1,778797476320674E+005	1,5869949E+000	1,5864584E+000	-5,689439305237265E-002	2,000000000000000E+000	-1,1249052E-002	41	-9,0260590E-005
2	0	0	1	1	1,779083073365362E+005	1,5670031E+000	1,5664717E+000	-7,310213737499882E-002	2,000000000000000E+000	-1,3103901E-002	41	-1,1451243E-004
2	0	0	1	1	1,779368671410037E+005	1,5470113E+000	1,5465401E+000	-1,000208676322250E-001	2,000000000000000E+000	-1,5545256E-002	41	-1,5468629E-004
2	0	0	1	1	1,779654268454718E+005	1,5270195E+000	1,5264442E+000	-1,733963490892665E-001	2,000000000000000E+000	-1,9297799E-002	40	-2,6467984E-004
2	0	0	1	1	1,779939866499400E+005	1,5070276E+000	1,5064694E+000	-2,730167547104791E-001	2,000000000000000E+000	-2,5742734E-002	40	-4,1129137E-004
2	0	0	1	1	1,780225465544094E+005	1,4870359E+000	1,4865041E+000	-3,406890738707009E-001	2,000000000000000E+000	-3,4603175E-002	40	-5,0643570E-004
2	0	0	1	1	1,780511062588785E+005	1,4670438E+000	1,4665064E+000	-3,755583659642427E-001	2,000000000000000E+000	-4,4916417E-002	40	-5,5075873E-004
2	0	0	1	1	1,780796658633472E+005	1,4470520E+000	1,4465299E+000	-3,844847019171391E-001	2,000000000000000E+000	-5,5834807E-002	40	-5,5616861E-004
2	0	0	1	1	1,781082256678147E+005	1,4270601E+000	1,4265156E+000	-3,763842630487160E-001	2,000000000000000E+000	-6,6740818E-002	40	-5,3691800E-004
2	0	0	1	1	1,781367855722830E+005	1,4070685E+000	1,4065391E+000	-3,591836349071569E-001	2,000000000000000E+000	-7,7269904E-002	40	-5,0520583E-004
2	0	0	0	1	1,781653452767513E+005	1,3870766E+000	1,3865511E+000	-3,384564140830291E-001	2,000000000000000E+000	-8,7247215E-002	40	-4,6928713E-004
2	0	0	1	1	1,781939051812207E+005	1,3670846E+000	1,3665267E+000	-3,172058671635218E-001	2,000000000000000E+000	-9,6620321E-002	40	-4,3347030E-004
2	0	0	0	1	1,782224648856896E+005	1,3470929E+000	1,3465328E+000	-2,969188451773834E-001	2,000000000000000E+000	-1,0539775E-001	40	-3,9981096E-004
2	0	0	1	1	1,782510246901582E+005	1,3271009E+000	1,3265446E+000	-2,780942952460304E-001	2,000000000000000E+000	-1,1361489E-001	40	-3,6890450E-004
2	0	0	1	1	1,782795843946254E+005	1,3071092E+000	1,3065412E+000	-2,607562334827414E-001	2,000000000000000E+000	-1,2131615E-001	40	-3,4068877E-004
2	0	0	0	1	1,783081440990937E+005	1,2871172E+000	1,2865716E+000	-2,448066274383218E-001	2,000000000000000E+000	-1,2854211E-001	40	-3,1496125E-004
2	0	0	1	1	1,783367039035625E+005	1,2671255E+000	1,2665538E+000	-2,302690408296599E-001	2,000000000000000E+000	-1,3533235E-001	40	-2,9164812E-004
2	0	0	0	1	1,783652637080322E+005	1,2471336E+000	1,2465557E+000	-2,170981864088044E-001	2,000000000000000E+000	-1,4172679E-001	40	-2,7062497E-004
2	0	0	1	1	1,783938235125006E+005	1,2271417E+000	1,2265531E+000	-2,052600161839786E-001	2,000000000000000E+000	-1,4776352E-001	40	-2,5176231E-004
2	0	0	1	1	1,784223833169690E+005	1,2071499E+000	1,2065872E+000	-1,945462137473637E-001	2,000000000000000E+000	-1,5347870E-001	40	-2,3473697E-004
2	0	0	1	1	1,784509431214361E+005	1,1871580E+000	1,1865726E+000	-1,846962175297033E-001	2,000000000000000E+000	-1,5890038E-001	40	-2,1915547E-004
2	0	0	1	1	1,784795027259048E+005	1,1671661E+000	1,1665823E+000	-1,756172766272449E-001	2,000000000000000E+000	-1,6405095E-001	40	-2,0487202E-004
2	0	0	0	1	1,785080625303739E+005	1,1471744E+000	1,1465834E+000	-1,672686666544372E-001	2,000000000000000E+000	-1,6895203E-001	40	-1,9178748E-004
2	0	0	1	1	1,785366223348433E+005	1,1271825E+000	1,1265957E+000	-1,595133038490086E-001	2,000000000000000E+000	-1,7362325E-001	40	-1,7970701E-004
2	0	0	1	1	1,785651820393116E+005	1,1071907E+000	1,1065942E+000	-1,524467571165657E-001	2,000000000000000E+000	-1,7808239E-001	40	-1,6869670E-004
2	0	0	1	1	1,785937419437794E+005	1,0871987E+000	1,0865687E+000	-1,458924655452645E-001	2,000000000000000E+000	-1,8234684E-001	40	-1,5852219E-004
2	0	0	1	1	1,786223016482475E+005	1,0672071E+000	1,0666417E+000	-1,399366225467475E-001	2,000000000000000E+000	-1,8643238E-001	40	-1,4926224E-004
2	0	0	1	1	1,786508615527158E+005	1,0472150E+000	1,0465831E+000	-1,346667851593835E-001	2,000000000000000E+000	-1,9035761E-001	40	-1,4093997E-004
2	0	0	1	1	1,786794211571853E+005	1,0272232E+000	1,0266066E+000	-1,300459409530168E-001	2,000000000000000E+000	-1,9414122E-001	40	-1,3350602E-004
2	0	0	0	1	1,787079809616541E+005	1,0072315E+000	1,0066108E+000	-1,262831220469611E-001	2,000000000000000E+000	-1,9780475E-001	40	-1,2711795E-004
2	0	0	1	1	1,787348276658542E+005	1,0115298E+000	1,0109166E+000	-1,043541615903574E-001	2,000000000000000E+000	-2,0095593E-001	40	-1,0549335E-004
2	0	0	1	1	1,787633875703234E+005	1,0315216E+000	1,0309047E+000	-8,677445633863146E-002	2,000000000000000E+000	-2,0366263E-001	40	-8,9456189E-005
2	0	0	0	1	1,787919473747918E+005	1,0515134E+000	1,0509124E+000	-7,401898391510142E-002	2,000000000000000E+000	-2,0594621E-001	40	-7,7787467E-005
2	0	0	1	1	1,788205070792595E+005	1,0715052E+000	1,0709318E+000	-6,387139083142179E-002	2,000000000000000E+000	-2,0790513E-001	40	-6,8401903E-005
2	0	0	1	1	1,788490668837274E+005	1,0914971E+000	1,0908912E+000	-5,546258205496013E-002	2,000000000000000E+000	-2,0960103E-001	40	-6,0503644E-005
2	0	0	1	1	1,788776265881959E+005	1,1114889E+000	1,1109318E+000	-4,828325006846956E-002	2,000000000000000E+000	-2,1107662E-001	41	-5,3639396E-005
2	0	0	1	1	1,789061864926657E+005	1,1314808E+000	1,1309023E+000	-4,226582873157170E-002	2,000000000000000E+000	-2,1236293E-001	41	-4,7798523E-005
2	0	0	1	1	1,789347462971343E+005	1,1514728E+000	1,1509006E+000	-3,695211167996598E-002	2,000000000000000E+000	-2,1348749E-001	41	-4,2528209E-005
2	0	0	1	1	1,789633061016030E+005	1,1714646E+000	1,1708775E+000	-3,233288108972321E-002	2,000000000000000E+000	-2,1447071E-001	41	-3,7857841E-005
2	0	0	1	1	1,789918659060709E+005	1,1914563E+000	1,1908538E+000	-2,826095060375317E-002	2,000000000000000E+000	-2,1533018E-001	41	-3,3654662E-005
2	0	0	1	1	1,790204256105388E+005	1,2114482E+000	1,2108610E+000	-2,463796648343120E-002	2,000000000000000E+000	-2,1607988E-001	41	-2,9833152E-005
2	0	0	1	1	1,790489854150072E+005	1,2314399E+000	1,2308336E+000	-2,142179730389635E-002	2,000000000000000E+000	-2,1673219E-001	41	-2,6366670E-005
2	0	0	1	1	1,790775453194770E+005	1,2514319E+000	1,2508200E+000	-1,850171814201323E-002	2,000000000000000E+000	-2,1729729E-001	41	-2,3142320E-005
2	0	0	0	1	1,791061050239452E+005	1,2714236E+000	1,2708094E+000	-1,586634479746528E-002	2,000000000000000E+000	-2,1778296E-001	41	-2,0163101E-005
2	0	0	1	1	1,791346648284141E+005	1,2914156E+000	1,2907943E+000	-1,343830237936910E-002	2,000000000000000E+000	-2,1819615E-001	41	-1,7346083E-005
2	0	0	0	1	1,791632246328816E+005	1,3114073E+000	1,3107995E+000	-1,118503625321679E-002	2,000000000000000E+000	-2,1854258E-001	41	-1,4661339E-005
2	0	0	1	1	1,791917844373498E+005	1,3313992E+000	1,3307997E+000	-9,044581304901336E-003	2,000000000000000E+000	-2,1882652E-001	41	-1,2036526E-005
2	0	0	0	1	1,792203442418187E+005	1,3513911E+000	1,3507864E+000	-7,005258270460529E-003	2,000000000000000E+000	-2,1905099E-001	41	-9,4626075E-006
2	0	0	1	1	1,792489040462882E+005	1,3713830E+000	1,3708155E+000	-4,953336799663484E-003	2,000000000000000E+000	-2,1921758E-001	42	-6,7901110E-006
2	0	0	1	1	1,792774638507566E+005	1,3913748E+000	1,3907882E+000	-2,961093260160620E-003	2,000000000000000E+000	-2,1932653E-001	42	-4,1182534E-006
2	0	0	1	1	1,793060236552246E+005	1,4113665E+000	1,4107901E+000	-8,663440665522132E-004	2,000000000000000E+000	-2,1937738E-001	42	-1,2222296E-006
2	1	0	1	1	1,793347261597151E+005	1,4314585E+000	1,4308088E+000	1,320162170209079E-003	2,000000000000000E+000	-2,1936730E-001	42	1,8888996E-006
2	1	0	1	1	1,793632859641830E+005	1,4514502E+000	1,4507931E+000	3,744120218674606E-003	2,000000000000000E+000	-2,1929115E-001	42	5,4319439E-006
2	1	0	0	1	1,793918458686515E+005	1,4714421E+000	1,4707203E+000	6,410717264627080E-003	2,000000000000000E+000	-2,1914244E-001	42	9,4283723E-006
2	1	0	1	1	1,794204055731209E+005	1,4914340E+000	1,4907359E+000	9,541385793036570E-003	2,000000000000000E+000	-2,1891126E-001	42	1,4223686E-005
2	1	0	1	1	1,794489653775899E+005	1,5114257E+000	1,5107850E+000	1,359879383639845E-002	2,000000000000000E+000	-2,1857806E-001	41	2,0544854E-005
2	1	0	1	1	1,794775251820590E+005	1,5314177E+000	1,5307810E+000	1,945581609925123E-002	2,000000000000000E+000	-2,1810663E-001	41	2,9782594E-005
2	1	0	1	1	1,795060849865265E+005	1,5514097E+000	1,5507550E+000	2,865883591450191E-002	2,000000000000000E+000	-2,1742541E-001	41	4,4442833E-005
2	1	0	1	1	1,795346447909945E+005	1,5714016E+000	1,5707148E+000	4,328490320165357E-002	2,000000000000000E+000	-2,1640790E-001	41	6,7988236E-005
2	1	0	1	1	1,795632045954628E+005	1,5913930E+000	1,5907047E+000	8,163302650215720E-002	2,000000000000000E+000	-2,1474740E-001	41	1,2985403E-004
2	1	0	1	1	1,795917643999323E+005	1,6113850E+000	1,6107428E+000	1,611901418543087E-001	2,000000000000000E+000	-2,1130590E-001	40	2,5963585E-004
2	1	0	1	1	1,796203241044008E+005	1,6313769E+000	1,6307131E+000	2,498916077497161E-001	2,000000000000000E+000	-2,0544955E-001	40	4,0750153E-004
2	1	0	1	1	1,796488840088695E+005	1,6513690E+000	1,6506830E+000	3,527858799783745E-001	2,000000000000000E+000	-1,9687977E-001	40	5,8233767E-004
2	1	0	1	1	1,796774438133370E+005	1,6713607E+000	1,6706626E+000	4,835361429316904E-001	2,000000000000000E+000	-1,8501455E-001	40	8,0782577E-004
2	1	0	1	1	1,797060037178055E+005	1,6913524E+000	1,6906396E+000	6,577478224902933E-001	2,000000000000000E+000	-1,6881375E-001	40	1,1120145E-003
2	1	0	1	1	1,797345635222739E+005	1,7113444E+000	1,7106333E+000	8,733638070939804E-001	2,000000000000000E+000	-1,4700189E-001	40	1,4940052E-003
2	1	0	1	1	1,797631232267437E+005	1,7313362E+000	1,7307464E+000	1,085573096037294E+000	2,000000000000000E+000	-1,1890064E-001	39	1,8788517E-003
2	1	0	1	1	1,797916829312118E+005	1,7513276E+000	1,7507173E+000	1,166634394350975E+000	2,000000000000000E+000	-8,6171158E-002	39	2,0424470E-003
2	1	0	1	1	1,798202428356810E+005	1,7713197E+000	1,7707134E+000	9,255889222497427E-001	2,000000000000000E+000	-5,5431847E-002	39	1,6389528E-003
2	1	0	1	1	1,798488026401484E+005	1,7913116E+000	1,7906544E+000	4,853191193150330E-001	2,000000000000000E+000	-3,5278644E-002	39	8,6903881E-004
2	1	0	1	1	1,798773624446164E+005	1,8113034E+000	1,8106768E+000	1,927885613704774E-001	2,000000000000000E+000	-2,6194844E-002	40	3,4907777E-004
2	1	0	1	1	1,799059222490854E+005	1,8312954E+000	1,8306762E+000	1,043544494787964E-001	2,000000000000000E+000	-2,2213053E-002	40	1,9103920E-004
2	1	0	1	1	1,799344819535548E+005	1,8512869E+000	1,8506829E+000	7,390324139957183E-002	2,000000000000000E+000	-1,9708572E-002	40	1,3677146E-004
2	1	0	1	1	1,799630417580232E+005	1,8712790E+000	1,8706970E+000	5,810083528793331E-002	2,000000000000000E+000	-1,7831041E-002	40	1,0868906E-004
2	1	0	1	1	1,799916016624914E+005	1,8912710E+000	1,8906608E+000	4,868752977838331E-002	2,000000000000000E+000	-1,6301783E-002	40	9,2051603E-005
2	1	0	1	1	1,800203041669820E+005	1,9113626E+000	1,9107372E+000	4,205182193285580E-002	2,000000000000000E+000	-1,4989493E-002	41	8,0349979E-005
2	1	0	1	1	1,800488639714499E+005	1,9313544E+000	1,9307044E+000	3,717091413936724E-002	2,000000000000000E+000	-1,3847644E-002	41	7,1766044E-005
2	1	0	1	1	1,800774237759183E+005	1,9513464E+000	1,9507477E+000	3,303430731595292E-002	2,000000000000000E+000	-1,2832080E-002	41	6,4441600E-005
2	1	0	0	1	1,801059835803878E+005	1,9713382E+000	1,9707091E+000	2,888674509319639E-002	2,000000000000000E+000	-1,1935087E-002	41	5,6927372E-005
2	1	0	1	1	1,801345433848568E+005	1,9913299E+000	1,9907222E+000	2,574095754370342E-002	2,000000000000000E+000	-1,1143935E-002	41	5,1243096E-005
2	1	0	1	1	1,801631032893253E+005	2,0113218E+000	2,0107152E+000	2,324576615982432E-002	2,000000000000000E+000	-1,0431956E-002	41	4,6740617E-005
2	1	0	1	1	1,801916632937929E+005	2,0313137E+000	2,0307138E+000	2,086220370912589E-002	2,000000000000000E+000	-9,7902892E-003	41	4,2365165E-005
2	1	0	1	1	1,802202230982613E+005	2,0513055E+000	2,0506883E+000	1,935142886790714E-002	2,000000000000000E+000	-9,2050619E-003	41	3,9683749E-005
2	1	0	1	1	1,802487829027296E+005	2,0712972E+000	2,0706778E+000	1,841689769482824E-002	2,000000000000000E+000	-8,6526787E-003	41	3,8135462E-005
2	1	0	1	1	1,802773425071992E+005	2,0912890E+000	2,0906601E+000	1,754467309380486E-002	2,000000000000000E+000	-8,1258398E-003	41	3,6679947E-005
2	1	0	1	1	1,803059024116679E+005	2,1112812E+000	2,1106672E+000	1,672780389522793E-002	2,000000000000000E+000	-7,6234746E-003	41	3,5306828E-005
2	1	0	1	1	1,803344623161368E+005	2,1312730E+000	2,1306505E+000	1,582926022133602E-002	2,000000000000000E+000	-7,1453243E-003	41	3,3726621E-005
2	1	0	1	1	1,803630221206034E+005	2,1512647E+000	2,1506631E+000	1,475089479113256E-002	2,000000000000000E+000	-6,6961055E-003	41	3,1724205E-005
2	1	0	1	1	1,803915817250721E+005	2,1712563E+000	2,1706402E+000	1,409937093331465E-002	2,000000000000000E+000	-6,2714652E-003	41	3,0604660E-005
2	1	0	1	1	1,804201416295408E+005	2,1912484E+000	2,1906657E+000	1,346074075865777E-002	2,000000000000000E+000	-5,8645490E-003	41	2,9487983E-005
2	1	0	1	1	1,804487014340105E+005	2,2112401E+000	2,2106142E+000	1,267720024494683E-002	2,000000000000000E+000	-5,4796962E-003	41	2,8024398E-005
2	1	0	1	1	1,804772612384786E+005	2,2312322E+000	2,2306597E+000	1,229701502035760E-002	2,000000000000000E+000	-5,1107267E-003	41	2,7430457E-005
2	1	0	1	1	1,805058210429475E+005	2,2512236E+000	2,2505970E+000	1,199781500889470E-002	2,000000000000000E+000	-4,7512217E-003	41	2,7002246E-005
2	1	0	1	1	1,805343809474148E+005	2,2712162E+000	2,2706192E+000	1,172949459998602E-002	2,000000000000000E+000	-4,3994868E-003	41	2,6633215E-005
2	1	0	1	1	1,805629405518833E+005	2,2912078E+000	2,2905922E+000	1,149679594047293E-002	2,000000000000000E+000	-4,0549105E-003	41	2,6334472E-005
2	1	0	1	1	1,805915003563521E+005	2,3111997E+000	2,3106008E+000	1,126603845588428E-002	2,000000000000000E+000	-3,7169543E-003	41	2,6031317E-005
2	1	0	1	1	1,806200602608216E+005	2,3311913E+000	2,3305597E+000	1,107094981346619E-002	2,000000000000000E+000	-3,3849378E-003	41	2,5801510E-005
2	1	0	1	1	1,806486199652902E+005	2,3511832E+000	2,3505881E+000	1,089802135655538E-002	2,000000000000000E+000	-3,0582885E-003	41	2,5616759E-005
2	1	0	1	1	1,806771797697581E+005	2,3711751E+000	2,3705785E+000	1,074704423526786E-002	2,000000000000000E+000	-2,7366085E-003	41	2,5476713E-005
2	1	0	1	1	1,807057395742256E+005	2,3911667E+000	2,3905745E+000	1,059949707901547E-002	2,000000000000000E+000	-2,4193032E-003	41	2,5338886E-005
2	1	0	1	1	1,807342993786943E+005	2,4111586E+000	2,4105737E+000	1,051818044473268E-002	2,000000000000000E+000	-2,1051781E-003	41	2,5354850E-005
2	1	0	1	1	1,807628591831635E+005	2,4311504E+000	2,4305763E+000	1,042330575203507E-002	2,000000000000000E+000	-1,7938991E-003	41	2,5334641E-005
2	1	0	1	1	1,807914190876326E+005	2,4511423E+000	2,4505765E+000	1,035078268863432E-002	2,000000000000000E+000	-1,4849189E-003	41	2,5365385E-005
2	1	0	1	1	1,808199788921014E+005	2,4711339E+000	2,4705777E+000	1,025797895422175E-002	2,000000000000000E+000	-1,1781101E-003	41	2,5343134E-005
2	1	0	1	1	1,808485385965686E+005	2,4911263E+000	2,4905298E+000	1,023601248288414E-002	2,000000000000000E+000	-8,7295240E-004	41	2,5493095E-005
2	1	0	1	1	1,808770984010370E+005	2,5111179E+000	2,5105522E+000	1,023926657680987E-002	2,000000000000000E+000	-5,6816486E-004	41	2,5706213E-005
2	1	0	1	1	1,809056582055052E+005	2,5311098E+000	2,5305235E+000	1,027524191952840E-002	2,000000000000000E+000	-2,6304007E-004	41	2,6001742E-005
2	1	0	1	1	1,809342179099749E+005	2,5511012E+000	2,5505176E+000	1,030106688799795E-002	2,000000000000000E+000	4,2893123E-005	41	2,6273052E-005
2	1	0	1	1	1,809627777144436E+005	2,5710933E+000	2,5705101E+000	1,036961767860498E-002	2,000000000000000E+000	3,5041154E-004	41	2,6655207E-005
2	1	0	1	1	1,809913376189126E+005	2,5910850E+000	2,5904984E+000	1,046655851334585E-002	2,000000000000000E+000	6,6039857E-004	41	2,7113603E-005
2	1	0	1	1	1,810198974233801E+005	2,6110773E+000	2,6105015E+000	1,060739630849772E-002	2,000000000000000E+000	9,7369176E-004	41	2,7690625E-005
2	1	0	1	1	1,810484572278480E+005	2,6310689E+000	2,6304953E+000	1,076473462566346E-002	2,000000000000000E+000	1,2908694E-003	41	2,8316585E-005
2	1	0	1	1	1,810770170323167E+005	2,6510611E+000	2,6504924E+000	1,094289529131073E-002	2,000000000000000E+000	1,6126867E-003	41	2,9004061E-005
2	1	0	1	1	1,811055766367862E+005	2,6710527E+000	2,6705027E+000	1,115213864919981E-002	2,000000000000000E+000	1,9399010E-003	41	2,9781815E-005
2	1	0	1	1	1,811341365412548E+005	2,6910443E+000	2,6904678E+000	1,139733315304489E-002	2,000000000000000E+000	2,2734848E-003	41	3,0664160E-005
2	1	0	1	0	1,811605544453878E+005	2,6904445E+000	2,6898959E+000	7,251070540297347E-003	2,000000000000000E+000	2,5345776E-003	41	1,9504625E-005
2	1	0	1	0	1,811891142498553E+005	2,6704528E+000	2,6698291E+000	4,558210747553373E-003	2,000000000000000E+000	2,6869415E-003	42	1,2169644E-005
2	1	0	1	0	1,812176740543237E+005	2,6504607E+000	2,6498764E+000	3,083879391405100E-003	2,000000000000000E+000	2,7834983E-003	42	8,1718990E-006
2	1	0	1	0	1,812462338587932E+005	2,6304691E+000	2,6298769E+000	2,085793100342945E-003	2,000000000000000E+000	2,8457036E-003	42	5,4853790E-006
2	1	0	1	0	1,812747937632622E+005	2,6104772E+000	2,6098926E+000	1,332626899772683E-003	2,000000000000000E+000	2,8836962E-003	42	3,4780130E-006
2	1	0	1	0	1,813033535677306E+005	2,5904853E+000	2,5899034E+000	7,703007596441495E-004	2,000000000000000E+000	2,9030577E-003	42	1,9950046E-006
2	1	0	1	0	1,813319132721983E+005	2,5704939E+000	2,5699253E+000	2,843412227478699E-004	2,000000000000000E+000	2,9072971E-003	42	7,3073568E-007
2	1	0	1	0	1,813604730766667E+005	2,5505018E+000	2,5499480E+000	-1,453236731602534E-004	2,000000000000000E+000	2,8988016E-003	42	-3,7056782E-007
2	0	0	1	0	1,813890328811350E+005	2,5305099E+000	2,5299366E+000	-5,005141924385673E-004	2,000000000000000E+000	2,8792932E-003	42	-1,2662691E-006
2	0	0	1	0	1,814175924856045E+005	2,5105181E+000	2,5099535E+000	-8,126833869009486E-004	2,000000000000000E+000	2,8501232E-003	42	-2,0397974E-006
2	0	0	1	0	1,814461523900733E+005	2,4905264E+000	2,4899738E+000	-1,112192949344917E-003	2,000000000000000E+000	2,8120065E-003	42	-2,7693313E-006
2	0	0	1	0	1,814747121945419E+005	2,4705343E+000	2,4699719E+000	-1,389416521532862E-003	2,000000000000000E+000	2,7657424E-003	42	-3,4318198E-006
2	0	0	1	0	1,815032719990090E+005	2,4505422E+000	2,4500005E+000	-1,641882583019034E-003	2,000000000000000E+000	2,7119848E-003	42	-4,0226132E-006
2	0	0	1	0	1,815318315034774E+005	2,4305508E+000	2,4299974E+000	-1,881405514105636E-003	2,000000000000000E+000	2,6512532E-003	42	-4,5718107E-006
2	0	0	1	0	1,815603913079463E+005	2,4105587E+000	2,4100282E+000	-2,102580893854747E-003	2,000000000000000E+000	2,5840371E-003	42	-5,0672793E-006
2	0	0	1	0	1,815889512124159E+005	2,3905668E+000	2,3900361E+000	-2,304008203878785E-003	2,000000000000000E+000	2,5106932E-003	42	-5,5066630E-006
2	0	0	1	0	1,816175109168841E+005	2,3705754E+000	2,3700254E+000	-2,526355481159315E-003	2,000000000000000E+000	2,4316753E-003	42	-5,9875265E-006
2	0	0	1	0	1,816460707213525E+005	2,3505836E+000	2,3500414E+000	-2,712118671146412E-003	2,000000000000000E+000	2,3468218E-003	42	-6,3735911E-006
2	0	0	1	0	1,816746305258200E+005	2,3305914E+000	2,3300166E+000	-2,902117328757415E-003	2,000000000000000E+000	2,2562009E-003	42	-6,7619817E-006
2	0	0	1	0	1,817031901302885E+005	2,3105996E+000	2,3100696E+000	-3,117892841087502E-003	2,000000000000000E+000	2,1598446E-003	42	-7,2025496E-006
2	0	0	1	0	1,817317497347576E+005	2,2906077E+000	2,2900639E+000	-3,309912834628170E-003	2,000000000000000E+000	2,0574592E-003	42	-7,5799117E-006
2	0	0	1	0	1,817603095392270E+005	2,2706161E+000	2,2700717E+000	-3,546103326699326E-003	2,000000000000000E+000	1,9488615E-003	42	-8,0499094E-006
2	0	0	1	0	1,817888693436952E+005	2,2506242E+000	2,2500899E+000	-3,790156725780924E-003	2,000000000000000E+000	1,8339440E-003	42	-8,5281936E-006
2	0	0	1	0	1,818174291481636E+005	2,2306323E+000	2,2301178E+000	-4,007543525519144E-003	2,000000000000000E+000	1,7123674E-003	42	-8,9372943E-006
2	0	0	1	0	1,818459889526311E+005	2,2106404E+000	2,2101548E+000	-4,261515934497431E-003	2,000000000000000E+000	1,5839769E-003	42	-9,4186098E-006
2	0	0	1	0	1,818745487570994E+005	2,1906486E+000	2,1901371E+000	-4,534147278810456E-003	2,000000000000000E+000	1,4482219E-003	42	-9,9304043E-006
2	0	0	1	0	1,819031085615691E+005	2,1706567E+000	2,1701527E+000	-4,808358884445866E-003	2,000000000000000E+000	1,3047808E-003	42	-1,0434873E-005
2	0	0	1	0	1,819316679660375E+005	2,1506650E+000	2,1501579E+000	-5,110123178612366E-003	2,000000000000000E+000	1,1531302E-003	42	-1,0987572E-005
2	0	0	1	0	1,819602277705064E+005	2,1306732E+000	2,1301708E+000	-5,407281776261874E-003	2,000000000000000E+000	9,9291734E-004	42	-1,1518434E-005
2	0	0	1	0	1,819887874749741E+005	2,1106813E+000	2,1101995E+000	-5,752771130214177E-003	2,000000000000000E+000	8,2353147E-004	42	-1,2139494E-005
2	0	0	1	0	1,820173472794422E+005	2,0906894E+000	2,0901999E+000	-6,094067655000063E-003	2,000000000000000E+000	6,4446969E-004	42	-1,2737820E-005
2	0	0	1	0	1,820459071839108E+005	2,0706978E+000	2,0702050E+000	-6,460111883299105E-003	2,000000000000000E+000	4,5509005E-004	42	-1,3373756E-005
2	0	0	1	0	1,820744669883805E+005	2,0507059E+000	2,0502224E+000	-6,865074493985622E-003	2,000000000000000E+000	2,5482895E-004	42	-1,4074930E-005
2	0	0	1	0	1,821030267928489E+005	2,0307140E+000	2,0302722E+000	-7,286591139821830E-003	2,000000000000000E+000	4,2752068E-005	42	-1,4793764E-005
2	0	0	1	0	1,821315862973174E+005	2,0107219E+000	2,0102646E+000	-7,775858122903247E-003	2,000000000000000E+000	-1,8233775E-004	42	-1,5631533E-005
2	0	0	1	0	1,821601462017847E+005	1,9907304E+000	1,9902803E+000	-8,306142136514358E-003	2,000000000000000E+000	-4,2185403E-004	42	-1,6531551E-005
2	0	0	1	0	1,821887059062531E+005	1,9707384E+000	1,9702302E+000	-8,995697127511484E-003	2,000000000000000E+000	-6,7762099E-004	42	-1,7723594E-005
2	0	0	0	0	1,822172657107224E+005	1,9507467E+000	1,9502040E+000	-9,546910443094230E-003	2,000000000000000E+000	-9,5203391E-004	41	-1,8618422E-005
2	0	0	1	0	1,822458255151915E+005	1,9307545E+000	1,9302030E+000	-1,027321819302183E-002	2,000000000000000E+000	-1,2462869E-003	41	-1,9829396E-005
2	0	0	0	0	1,822743853196600E+005	1,9107628E+000	1,9102058E+000	-1,107836442852858E-002	2,000000000000000E+000	-1,5623131E-003	41	-2,1161957E-005
2	0	0	1	0	1,823029451241279E+005	1,8907708E+000	1,8902034E+000	-1,189399679086367E-002	2,000000000000000E+000	-1,9015057E-003	41	-2,2482072E-005
2	0	0	1	0	1,823161273261900E+005	1,8815254E+000	1,8809547E+000	-1,242968823443347E-002	2,000000000000000E+000	-2,0662895E-003	41	-2,3379682E-005