File: Dati/201027/CV_LTO-C_Al_slurrymia_01_1mVs_04_CV_C03.mpt
EC-Lab ASCII FILE
Nb header lines : 63

Cyclic Voltammetry

Run on channel : 3 (SN 6807)
User :
Electrode connection : standard
Ewe ctrl range : min = 0,00 V, max = 5,00 V
Ewe,I filtering : 50 kHz
Safety Limits :
	Do not start on E overload
Channel : Grounded
Acquisition started on : 10/27/2020 18:19:16
Saved on :
	File : CV_LTO-C_Al_slurrymia_01_1mVs_04_CV_C03.mpr
	Directory : C:\Users\labsuperfici\Desktop\Biologic\Users\Prisca Viviani\201027\
	Host : 10.78.33.0
Device : VSP-300 (SN 0638)
Address : USB
EC-Lab for windows v11.31 (software)
Internet server v11.30 (firmware)
Command interpretor v11.31 (firmware)
Electrode material :
Initial state :
Electrolyte :
Comments :
Cable : standard
Reference electrode : SCE Saturated Calomel Electrode (0,241 V)
Electrode surface area : 0,001 cm²
Characteristic mass : 0,001 g
Equivalent Weight : 0,000 g/eq.
Density : 0,000 g/cm3
Cycle Definition : Charge/Discharge alternance
Ei (V)              0,000
vs.                 Eoc
dE/dt               0,400
dE/dt unit          mV/s
E1 (V)              1,000
vs.                 Ref
Step percent        50
N                   10
E range min (V)     0,000
E range max (V)     5,000
I Range             Auto
I Range min         Unset
I Range max         Unset
I Range init        Unset
Bandwidth           8
E2 (V)              3,000
vs.                 Ref
nc cycles           2
Reverse Scan        1
Ef (V)              0,000
vs.                 Eoc

Modify on : 10/28/2020 10:35
nc cycles           1

Modify on : 10/28/2020 10:37
E2 (V)              2,700

mode	ox/red	error	control changes	counter inc.	time/s	control/V	Ewe/V	<I>/mA	cycle number	(Q-Qo)/C	I Range	P/W
2	0	0	1	0	1,306676016040691E+005	1,8815254E+000	1,8810577E+000	-5,861883051693439E-003	1,000000000000000E+000	0,0000000E+000	42	-1,1026540E-005
2	0	0	1	0	1,307164565925198E+005	1,8619827E+000	1,8615534E+000	-6,763814210865360E-003	1,000000000000000E+000	-3,1458813E-004	42	-1,2591202E-005
2	0	0	1	0	1,307664361807019E+005	1,8419908E+000	1,8415750E+000	-7,642536430582478E-003	1,000000000000000E+000	-6,8145874E-004	42	-1,4074304E-005
2	0	0	1	0	1,308164158688857E+005	1,8219993E+000	1,8215922E+000	-8,540820371473506E-003	1,000000000000000E+000	-1,0926231E-003	42	-1,5557893E-005
2	0	0	1	0	1,308663952570683E+005	1,8020074E+000	1,8016278E+000	-9,429556713424186E-003	1,000000000000000E+000	-1,5488627E-003	42	-1,6988552E-005
2	0	0	1	0	1,309163747452513E+005	1,7820156E+000	1,7815155E+000	-1,032631879382473E-002	1,000000000000000E+000	-2,0500903E-003	41	-1,8396497E-005
2	0	0	1	0	1,309663545334346E+005	1,7620237E+000	1,7615536E+000	-1,119262567141796E-002	1,000000000000000E+000	-2,5946880E-003	41	-1,9716410E-005
2	0	0	1	0	1,310163340216173E+005	1,7420318E+000	1,7415613E+000	-1,205440980823735E-002	1,000000000000000E+000	-3,1827744E-003	41	-2,0993493E-005
2	0	0	1	0	1,310663134097952E+005	1,7220403E+000	1,7215860E+000	-1,283155450821719E-002	1,000000000000000E+000	-3,8123115E-003	41	-2,2090624E-005
2	0	0	1	0	1,311162931153772E+005	1,7020481E+000	1,7015790E+000	-1,357820320414058E-002	1,000000000000000E+000	-4,4797906E-003	41	-2,3104385E-005
2	0	0	1	0	1,311662727231956E+005	1,6820562E+000	1,6815825E+000	-1,440231794525820E-002	1,000000000000000E+000	-5,1852665E-003	41	-2,4218685E-005
2	0	0	1	0	1,312162524310150E+005	1,6620646E+000	1,6615524E+000	-1,560413472887561E-002	1,000000000000000E+000	-5,9399530E-003	41	-2,5927087E-005
2	0	0	1	0	1,312662320388362E+005	1,6420726E+000	1,6415871E+000	-1,746088990948143E-002	1,000000000000000E+000	-6,7702411E-003	41	-2,8663573E-005
2	0	0	1	0	1,313162114466554E+005	1,6220807E+000	1,6215829E+000	-2,038580396369194E-002	1,000000000000000E+000	-7,7189025E-003	41	-3,3057269E-005
2	0	0	1	0	1,313661911544742E+005	1,6020888E+000	1,6016006E+000	-2,455467234421560E-002	1,000000000000000E+000	-8,8431789E-003	41	-3,9326780E-005
2	0	0	1	0	1,314161707622955E+005	1,5820971E+000	1,5816170E+000	-3,022228970280572E-002	1,000000000000000E+000	-1,0212277E-002	41	-4,7800087E-005
2	0	0	1	0	1,314661503701159E+005	1,5621052E+000	1,5616217E+000	-3,814928122227079E-002	1,000000000000000E+000	-1,1917040E-002	41	-5,9574744E-005
2	0	0	1	0	1,315161299779341E+005	1,5421133E+000	1,5416744E+000	-5,068329791178988E-002	1,000000000000000E+000	-1,4110325E-002	41	-7,8137142E-005
2	0	0	1	0	1,315661093857547E+005	1,5221215E+000	1,5217021E+000	-7,794923239795415E-002	1,000000000000000E+000	-1,7263057E-002	41	-1,1861551E-004
2	0	0	1	0	1,316160889935759E+005	1,5021297E+000	1,5016619E+000	-1,125286123898763E-001	1,000000000000000E+000	-2,2040531E-002	40	-1,6897992E-004
2	0	0	1	0	1,316660686013941E+005	1,4821378E+000	1,4816639E+000	-1,409474883635959E-001	1,000000000000000E+000	-2,8418669E-002	40	-2,0883681E-004
2	0	0	1	0	1,317160482092144E+005	1,4621459E+000	1,4616562E+000	-1,610667693856391E-001	1,000000000000000E+000	-3,6008634E-002	40	-2,3542425E-004
2	0	0	1	0	1,317660278170358E+005	1,4421540E+000	1,4416602E+000	-1,737668073197919E-001	1,000000000000000E+000	-4,4414554E-002	40	-2,5051268E-004
2	0	0	1	0	1,318160074248537E+005	1,4221623E+000	1,4216579E+000	-1,799448137381731E-001	1,000000000000000E+000	-5,3285934E-002	40	-2,5581996E-004
2	0	0	1	0	1,318659870326736E+005	1,4021704E+000	1,4016882E+000	-1,810963428249197E-001	1,000000000000000E+000	-6,2331017E-002	40	-2,5384061E-004
2	0	0	1	0	1,319159664404946E+005	1,3821785E+000	1,3816707E+000	-1,788831558207447E-001	1,000000000000000E+000	-7,1345381E-002	40	-2,4715762E-004
2	0	0	1	0	1,319659460483142E+005	1,3621867E+000	1,3617157E+000	-1,741316286001711E-001	1,000000000000000E+000	-8,0183789E-002	40	-2,3711777E-004
2	0	0	1	0	1,320159256561329E+005	1,3421949E+000	1,3416666E+000	-1,678725067723705E-001	1,000000000000000E+000	-8,8742860E-002	40	-2,2522893E-004
2	0	0	1	0	1,320659053639537E+005	1,3222030E+000	1,3217058E+000	-1,609859904029578E-001	1,000000000000000E+000	-9,6969485E-002	40	-2,1277613E-004
2	0	0	1	0	1,321158846717742E+005	1,3022112E+000	1,3017187E+000	-1,538322846907512E-001	1,000000000000000E+000	-1,0484307E-001	40	-2,0024636E-004
2	0	0	1	0	1,321658644795925E+005	1,2822193E+000	1,2817105E+000	-1,467878204444808E-001	1,000000000000000E+000	-1,1235926E-001	40	-1,8813949E-004
2	0	0	1	0	1,322158440874135E+005	1,2622274E+000	1,2617401E+000	-1,398180579503540E-001	1,000000000000000E+000	-1,1952597E-001	40	-1,7641405E-004
2	0	0	1	0	1,322658236952350E+005	1,2422357E+000	1,2417359E+000	-1,333368858679748E-001	1,000000000000000E+000	-1,2635829E-001	40	-1,6556920E-004
2	0	0	1	0	1,323158029030524E+005	1,2222438E+000	1,2217146E+000	-1,271623484571029E-001	1,000000000000000E+000	-1,3287194E-001	40	-1,5535610E-004
2	0	0	1	0	1,323657827108729E+005	1,2022519E+000	1,2017286E+000	-1,213243446379426E-001	1,000000000000000E+000	-1,3908586E-001	40	-1,4579893E-004
2	0	0	1	0	1,324157623186943E+005	1,1822602E+000	1,1817516E+000	-1,156528857020536E-001	1,000000000000000E+000	-1,4501223E-001	40	-1,3667298E-004
2	0	0	1	0	1,324657421265133E+005	1,1622682E+000	1,1617502E+000	-1,102811866888067E-001	1,000000000000000E+000	-1,5066278E-001	40	-1,2811919E-004
2	0	0	1	0	1,325157214343322E+005	1,1422764E+000	1,1417230E+000	-1,051311265106431E-001	1,000000000000000E+000	-1,5604846E-001	40	-1,2003063E-004
2	0	0	1	0	1,325657009421529E+005	1,1222845E+000	1,1217420E+000	-1,004834466999561E-001	1,000000000000000E+000	-1,6118826E-001	40	-1,1271650E-004
2	0	0	1	0	1,326156806499730E+005	1,1022928E+000	1,1017447E+000	-9,624016986177836E-002	1,000000000000000E+000	-1,6610652E-001	40	-1,0603209E-004
2	0	0	1	0	1,326656603577910E+005	1,0823009E+000	1,0817447E+000	-9,234752084733877E-002	1,000000000000000E+000	-1,7082012E-001	40	-9,9896439E-005
2	0	0	1	0	1,327156396656125E+005	1,0623091E+000	1,0617701E+000	-8,882670874118262E-002	1,000000000000000E+000	-1,7534919E-001	40	-9,4313538E-005
2	0	0	1	0	1,327656193734333E+005	1,0423173E+000	1,0417683E+000	-8,554860287569366E-002	1,000000000000000E+000	-1,7970897E-001	40	-8,9121822E-005
2	0	0	1	0	1,328155989812510E+005	1,0223254E+000	1,0217654E+000	-8,250346699208599E-002	1,000000000000000E+000	-1,8390903E-001	40	-8,4299187E-005
2	0	0	1	0	1,328655785890721E+005	1,0023335E+000	1,0018264E+000	-7,976192062259435E-002	1,000000000000000E+000	-1,8796450E-001	40	-7,9907601E-005
2	0	0	1	0	1,329128097964625E+005	1,0165278E+000	1,0160233E+000	-6,578018573838035E-002	1,000000000000000E+000	-1,9137651E-001	40	-6,6834196E-005
2	0	0	1	0	1,329627894042823E+005	1,0365195E+000	1,0359894E+000	-5,640272332852558E-002	1,000000000000000E+000	-1,9441414E-001	40	-5,8432623E-005
2	0	0	1	0	1,330127692121007E+005	1,0565114E+000	1,0560206E+000	-4,907300986190255E-002	1,000000000000000E+000	-1,9704039E-001	40	-5,1822110E-005
2	0	0	1	0	1,330627486199216E+005	1,0765032E+000	1,0760094E+000	-4,313498483192491E-002	1,000000000000000E+000	-1,9933733E-001	41	-4,6413650E-005
2	0	0	1	0	1,331127284277421E+005	1,0964952E+000	1,0960238E+000	-3,807823517243336E-002	1,000000000000000E+000	-2,0136012E-001	41	-4,1734653E-005
2	0	0	1	0	1,331627080355603E+005	1,1164870E+000	1,1160041E+000	-3,376769284813764E-002	1,000000000000000E+000	-2,0315011E-001	41	-3,7684884E-005
2	0	0	1	0	1,332126876433814E+005	1,1364789E+000	1,1359811E+000	-3,003237079237853E-002	1,000000000000000E+000	-2,0473965E-001	41	-3,4116205E-005
2	0	0	1	0	1,332626674512029E+005	1,1564707E+000	1,1559802E+000	-2,674588572415898E-002	1,000000000000000E+000	-2,0615397E-001	41	-3,0917716E-005
2	0	0	1	0	1,333126470590206E+005	1,1764624E+000	1,1759691E+000	-2,381838927089197E-002	1,000000000000000E+000	-2,0741360E-001	41	-2,8009690E-005
2	0	0	1	0	1,333626265668409E+005	1,1964544E+000	1,1959429E+000	-2,123473905825168E-002	1,000000000000000E+000	-2,0853551E-001	41	-2,5395535E-005
2	0	0	1	0	1,334126062746618E+005	1,2164462E+000	1,2159406E+000	-1,893586928149432E-002	1,000000000000000E+000	-2,0953541E-001	41	-2,3024892E-005
2	0	0	1	0	1,334625858824812E+005	1,2364379E+000	1,2358947E+000	-1,686808850741212E-002	1,000000000000000E+000	-2,1042643E-001	41	-2,0847181E-005
2	0	0	1	0	1,335125656902993E+005	1,2564299E+000	1,2559118E+000	-1,497194591655043E-002	1,000000000000000E+000	-2,1121863E-001	41	-1,8803445E-005
2	0	0	1	0	1,335625452981208E+005	1,2764217E+000	1,2758977E+000	-1,326307683401559E-002	1,000000000000000E+000	-2,1192104E-001	41	-1,6922329E-005
2	0	0	1	0	1,336125249059410E+005	1,2964137E+000	1,2958902E+000	-1,166584095690260E-002	1,000000000000000E+000	-2,1254089E-001	41	-1,5117649E-005
2	0	0	1	0	1,336625045137592E+005	1,3164054E+000	1,3158569E+000	-1,019793565279617E-002	1,000000000000000E+000	-2,1308419E-001	41	-1,3419024E-005
2	0	0	1	0	1,337124843215805E+005	1,3363972E+000	1,3358606E+000	-8,783437957479545E-003	1,000000000000000E+000	-2,1355556E-001	41	-1,1733448E-005
2	0	0	1	0	1,337624638294019E+005	1,3563890E+000	1,3558583E+000	-7,442841392866967E-003	1,000000000000000E+000	-2,1395849E-001	41	-1,0091439E-005
2	0	0	1	0	1,338124435372194E+005	1,3763808E+000	1,3758669E+000	-6,120590846209667E-003	1,000000000000000E+000	-2,1429475E-001	41	-8,4211179E-006
2	0	0	1	0	1,338624231450399E+005	1,3963727E+000	1,3958920E+000	-4,779151370252727E-003	1,000000000000000E+000	-2,1456468E-001	42	-6,6711791E-006
2	0	0	1	0	1,339124029528610E+005	1,4163648E+000	1,4158763E+000	-3,410108813363170E-003	1,000000000000000E+000	-2,1476720E-001	42	-4,8282923E-006
2	0	0	1	0	1,339623825606797E+005	1,4363564E+000	1,4358613E+000	-1,921078137270112E-003	1,000000000000000E+000	-2,1489866E-001	42	-2,7584019E-006
2	0	0	1	0	1,340123621684986E+005	1,4563483E+000	1,4558620E+000	-2,552050499757940E-004	1,000000000000000E+000	-2,1495177E-001	43	-3,7154334E-007
2	1	0	1	0	1,340625917763591E+005	1,4764401E+000	1,4759005E+000	1,639436717622893E-003	1,000000000000000E+000	-2,1491645E-001	42	2,4196456E-006
2	1	0	1	0	1,341125713841789E+005	1,4964321E+000	1,4958440E+000	3,849838025807920E-003	1,000000000000000E+000	-2,1477842E-001	42	5,7587572E-006
2	1	0	1	0	1,341625510919974E+005	1,5164238E+000	1,5158057E+000	6,575025820035760E-003	1,000000000000000E+000	-2,1451795E-001	42	9,9664621E-006
2	1	0	1	0	1,342125305998187E+005	1,5364156E+000	1,5358964E+000	1,018130063271025E-002	1,000000000000000E+000	-2,1410286E-001	41	1,5637423E-005
2	1	0	1	0	1,342625103076398E+005	1,5564075E+000	1,5558460E+000	1,503662085882396E-002	1,000000000000000E+000	-2,1347719E-001	41	2,3394667E-005
2	1	0	1	0	1,343124900154574E+005	1,5763992E+000	1,5758537E+000	2,185682731379901E-002	1,000000000000000E+000	-2,1256147E-001	41	3,4443161E-005
2	1	0	1	0	1,343624696232782E+005	1,5963912E+000	1,5958340E+000	3,486273185960131E-002	1,000000000000000E+000	-2,1119393E-001	41	5,5635133E-005
2	1	0	1	0	1,344124492310996E+005	1,6163830E+000	1,6157937E+000	5,854489584447753E-002	1,000000000000000E+000	-2,0887360E-001	41	9,4596471E-005
2	1	0	1	0	1,344624288389180E+005	1,6363748E+000	1,6357659E+000	8,421109018554329E-002	1,000000000000000E+000	-2,0530675E-001	41	1,3774964E-004
2	1	0	1	0	1,345124086467370E+005	1,6563667E+000	1,6558515E+000	1,122365210839003E-001	1,000000000000000E+000	-2,0040798E-001	40	1,8584701E-004
2	1	0	1	0	1,345623883545583E+005	1,6763586E+000	1,6758322E+000	1,457729391438098E-001	1,000000000000000E+000	-1,9398852E-001	40	2,4429098E-004
2	1	0	1	0	1,346123680623779E+005	1,6963505E+000	1,6958127E+000	1,910443907930157E-001	1,000000000000000E+000	-1,8562964E-001	40	3,2397552E-004
2	1	0	1	0	1,346623475701965E+005	1,7163423E+000	1,7157933E+000	2,560544945714436E-001	1,000000000000000E+000	-1,7454317E-001	40	4,3933658E-004
2	1	0	1	0	1,347123273780178E+005	1,7363341E+000	1,7357792E+000	3,438398578359316E-001	1,000000000000000E+000	-1,5962256E-001	40	5,9683004E-004
2	1	0	1	0	1,347623068858385E+005	1,7563260E+000	1,7557695E+000	4,416387842958578E-001	1,000000000000000E+000	-1,3997135E-001	40	7,7541592E-004
2	1	0	1	0	1,348122866936564E+005	1,7763177E+000	1,7757336E+000	5,163304684047718E-001	1,000000000000000E+000	-1,1582641E-001	40	9,1686536E-004
2	1	0	1	0	1,348622663014773E+005	1,7963096E+000	1,7957544E+000	5,149312758472577E-001	1,000000000000000E+000	-8,9622237E-002	40	9,2469010E-004
2	1	0	1	0	1,349122459092983E+005	1,8163015E+000	1,8157150E+000	4,285438575998155E-001	1,000000000000000E+000	-6,5836780E-002	40	7,7811349E-004
2	1	0	1	0	1,349622256171172E+005	1,8362932E+000	1,8357551E+000	3,344062602472273E-001	1,000000000000000E+000	-4,6829898E-002	40	6,1388803E-004
2	1	0	1	0	1,350122051249363E+005	1,8562852E+000	1,8557593E+000	2,428269899982642E-001	1,000000000000000E+000	-3,2344960E-002	40	4,5062843E-004
2	1	0	1	0	1,350621849327574E+005	1,8762770E+000	1,8757614E+000	1,387269007171503E-001	1,000000000000000E+000	-2,2807019E-002	40	2,6021857E-004
2	1	0	1	0	1,351121647405769E+005	1,8962690E+000	1,8957759E+000	6,428013885391548E-002	1,000000000000000E+000	-1,7951034E-002	40	1,2186074E-004
2	1	0	1	0	1,351621442483955E+005	1,9162607E+000	1,9157543E+000	3,647819023702059E-002	1,000000000000000E+000	-1,5554029E-002	41	6,9883252E-005
2	1	0	1	0	1,352121237562168E+005	1,9362526E+000	1,9357466E+000	2,594968365836953E-002	1,000000000000000E+000	-1,4016898E-002	41	5,0232011E-005
2	1	0	1	0	1,352621034640372E+005	1,9562443E+000	1,9557408E+000	2,044158469971008E-002	1,000000000000000E+000	-1,2860102E-002	41	3,9978440E-005
2	1	0	1	0	1,353120831718552E+005	1,9762363E+000	1,9757428E+000	1,684616955138418E-002	1,000000000000000E+000	-1,1923769E-002	41	3,3283697E-005
2	1	0	1	0	1,353620627796764E+005	1,9962282E+000	1,9957561E+000	1,480717388248890E-002	1,000000000000000E+000	-1,1128457E-002	41	2,9551509E-005
2	1	0	1	0	1,354120427874974E+005	2,0162199E+000	2,0157254E+000	1,361105938445653E-002	1,000000000000000E+000	-1,0410181E-002	41	2,7436157E-005
2	1	0	1	0	1,354620221953159E+005	2,0362117E+000	2,0357285E+000	1,271588744459316E-002	1,000000000000000E+000	-9,7434083E-003	41	2,5886095E-005
2	1	0	1	0	1,355120023031353E+005	2,0562036E+000	2,0556815E+000	1,194446228280799E-002	1,000000000000000E+000	-9,1177253E-003	41	2,4554010E-005
2	1	0	1	0	1,355619819109566E+005	2,0761952E+000	2,0757267E+000	1,124713256435220E-002	1,000000000000000E+000	-8,5288631E-003	41	2,3345974E-005
2	1	0	1	0	1,356119616187760E+005	2,0961871E+000	2,0957150E+000	1,041977404184519E-002	1,000000000000000E+000	-7,9774559E-003	41	2,1836877E-005
2	1	0	1	0	1,356619410265947E+005	2,1161790E+000	2,1156967E+000	9,647644890961038E-003	1,000000000000000E+000	-7,4677090E-003	41	2,0411489E-005
2	1	0	1	0	1,357119211344160E+005	2,1361706E+000	2,1356626E+000	8,959208942591917E-003	1,000000000000000E+000	-6,9936044E-003	41	1,9133848E-005
2	1	0	1	0	1,357619008422364E+005	2,1561627E+000	2,1557038E+000	8,644517133498203E-003	1,000000000000000E+000	-6,5452470E-003	41	1,8635019E-005
2	1	0	1	0	1,358118805500548E+005	2,1761544E+000	2,1756754E+000	8,417623268436786E-003	1,000000000000000E+000	-6,1101355E-003	41	1,8314016E-005
2	1	0	1	0	1,358618602578755E+005	2,1961462E+000	2,1956835E+000	8,211036120053708E-003	1,000000000000000E+000	-5,6853909E-003	41	1,8028837E-005
2	1	0	1	0	1,359118402656966E+005	2,2161384E+000	2,2156739E+000	8,029214630790649E-003	1,000000000000000E+000	-5,2701561E-003	41	1,7790122E-005
2	1	0	1	0	1,359618196735154E+005	2,2361300E+000	2,2356577E+000	7,877304455108758E-003	1,000000000000000E+000	-4,8635108E-003	41	1,7610957E-005
2	1	0	1	0	1,360117993813343E+005	2,2561219E+000	2,2556190E+000	7,727409801787724E-003	1,000000000000000E+000	-4,4643381E-003	41	1,7430093E-005
2	1	0	1	0	1,360617790891554E+005	2,2761137E+000	2,2756331E+000	7,607810213022890E-003	1,000000000000000E+000	-4,0720697E-003	41	1,7312585E-005
2	1	0	1	0	1,361117591969757E+005	2,2961059E+000	2,2956350E+000	7,446116750277102E-003	1,000000000000000E+000	-3,6867906E-003	41	1,7093565E-005
2	1	0	1	0	1,361617386047938E+005	2,3160975E+000	2,3156376E+000	7,318765257779233E-003	1,000000000000000E+000	-3,3088445E-003	41	1,6947608E-005
2	1	0	1	0	1,362117183126150E+005	2,3360894E+000	2,3356125E+000	7,216745202796429E-003	1,000000000000000E+000	-2,9367700E-003	41	1,6855520E-005
2	1	0	1	0	1,362616979204356E+005	2,3560812E+000	2,3555899E+000	7,107478568753101E-003	1,000000000000000E+000	-2,5699304E-003	41	1,6742304E-005
2	1	0	1	0	1,363116780282543E+005	2,3760729E+000	2,3755922E+000	7,044803957711843E-003	1,000000000000000E+000	-2,2073565E-003	41	1,6735581E-005
2	1	0	1	0	1,363616577360745E+005	2,3960650E+000	2,3955848E+000	6,968947243550246E-003	1,000000000000000E+000	-1,8487090E-003	41	1,6694705E-005
2	1	0	1	0	1,364116374438957E+005	2,4160569E+000	2,4155726E+000	6,890111049410008E-003	1,000000000000000E+000	-1,4938844E-003	41	1,6643564E-005
2	1	0	1	0	1,364616168517149E+005	2,4360485E+000	2,4355679E+000	6,821506730651919E-003	1,000000000000000E+000	-1,1422324E-003	41	1,6614242E-005
2	1	0	1	0	1,365115969595329E+005	2,4560404E+000	2,4555542E+000	6,778281926705002E-003	1,000000000000000E+000	-7,9318322E-004	41	1,6644439E-005
2	1	0	1	0	1,365615766673544E+005	2,4760323E+000	2,4755495E+000	6,743430554561766E-003	1,000000000000000E+000	-4,4679226E-004	41	1,6693695E-005
2	1	0	1	0	1,366115559751745E+005	2,4960241E+000	2,4955349E+000	6,694548783348459E-003	1,000000000000000E+000	-1,0250376E-004	41	1,6706481E-005
2	1	0	1	0	1,366615356829930E+005	2,5160160E+000	2,5155439E+000	6,681558091968257E-003	1,000000000000000E+000	2,4046689E-004	41	1,6807753E-005
2	1	0	1	0	1,367115157908142E+005	2,5360079E+000	2,5355513E+000	6,663563633997484E-003	1,000000000000000E+000	5,8215047E-004	41	1,6895807E-005
2	1	0	1	0	1,367614954986353E+005	2,5559993E+000	2,5555258E+000	6,648794100620095E-003	1,000000000000000E+000	9,2347997E-004	41	1,6991165E-005
2	1	0	1	0	1,368114752064534E+005	2,5759914E+000	2,5755560E+000	6,676436472486932E-003	1,000000000000000E+000	1,2654293E-003	41	1,7195536E-005
2	1	0	1	0	1,368614549142736E+005	2,5959835E+000	2,5955253E+000	6,708545032542437E-003	1,000000000000000E+000	1,6086311E-003	41	1,7412198E-005
2	1	0	1	0	1,369114349220945E+005	2,6159754E+000	2,6155601E+000	6,753905263064901E-003	1,000000000000000E+000	1,9537034E-003	41	1,7665245E-005
2	1	0	1	0	1,369614143299144E+005	2,6359668E+000	2,6355028E+000	6,812493251351817E-003	1,000000000000000E+000	2,3009793E-003	41	1,7954346E-005
2	1	0	1	0	1,370113940377319E+005	2,6559589E+000	2,6555336E+000	6,867973988541241E-003	1,000000000000000E+000	2,6509722E-003	41	1,8238135E-005
2	1	0	1	0	1,370613737455535E+005	2,6759505E+000	2,6754942E+000	6,929610721696275E-003	1,000000000000000E+000	3,0039123E-003	41	1,8540133E-005
2	1	0	1	0	1,371113535533743E+005	2,6959424E+000	2,6955078E+000	6,992755746076579E-003	1,000000000000000E+000	3,3603457E-003	41	1,8849027E-005
2	1	0	1	1	1,371578346606456E+005	2,6854470E+000	2,6849461E+000	3,906442946226302E-003	1,000000000000000E+000	3,6020174E-003	42	1,0488588E-005
2	1	0	1	1	1,372078143684655E+005	2,6654553E+000	2,6649785E+000	2,524185607923869E-003	1,000000000000000E+000	3,7511587E-003	42	6,7269002E-006
2	1	0	1	1	1,372577940762863E+005	2,6454635E+000	2,6450284E+000	1,685994428460314E-003	1,000000000000000E+000	3,8468253E-003	42	4,4595031E-006
2	1	0	1	1	1,373077737841061E+005	2,6254714E+000	2,6250198E+000	1,125261116611952E-003	1,000000000000000E+000	3,9083241E-003	42	2,9538328E-006
2	1	0	1	1	1,373577534919244E+005	2,6054792E+000	2,6050036E+000	6,734388103016280E-004	1,000000000000000E+000	3,9446577E-003	42	1,7543106E-006
2	1	0	1	1	1,374077328997456E+005	2,5854878E+000	2,5849478E+000	2,685135462795838E-004	1,000000000000000E+000	3,9612604E-003	43	6,9409350E-007
2	1	0	1	1	1,374577123075658E+005	2,5654957E+000	2,5650127E+000	1,071244393741444E-006	1,000000000000000E+000	3,9625256E-003	43	2,7477556E-009
2	0	0	1	1	1,375076920153839E+005	2,5455036E+000	2,5450814E+000	-2,486546757303658E-004	1,000000000000000E+000	3,9510857E-003	43	-6,3284637E-007
2	0	0	1	1	1,375576717232051E+005	2,5255117E+000	2,5250740E+000	-4,514075903078972E-004	1,000000000000000E+000	3,9285240E-003	43	-1,1398375E-006
2	0	0	1	1	1,376076509310259E+005	2,5055206E+000	2,5051498E+000	-6,315000915793302E-004	1,000000000000000E+000	3,8967980E-003	43	-1,5820024E-006
2	0	0	1	1	1,376576306388443E+005	2,4855285E+000	2,4850793E+000	-7,261540744942915E-004	1,000000000000000E+000	3,8563614E-003	42	-1,8045505E-006
2	0	0	1	1	1,377076103466647E+005	2,4655366E+000	2,4651020E+000	-8,760365347617195E-004	1,000000000000000E+000	3,8083545E-003	42	-2,1595195E-006
2	0	0	1	1	1,377575899544857E+005	2,4455450E+000	2,4450843E+000	-9,985958187098982E-004	1,000000000000000E+000	3,7535084E-003	42	-2,4416511E-006
2	0	0	1	1	1,378075694623045E+005	2,4255528E+000	2,4251425E+000	-1,130743723637716E-003	1,000000000000000E+000	3,6922314E-003	42	-2,7422147E-006
2	0	0	1	1	1,378575491701239E+005	2,4055610E+000	2,4051297E+000	-1,229748854414039E-003	1,000000000000000E+000	3,6251037E-003	42	-2,9577054E-006
2	0	0	1	1	1,379075288779449E+005	2,3855691E+000	2,3851466E+000	-1,361503459404886E-003	1,000000000000000E+000	3,5520759E-003	42	-3,2473854E-006
2	0	0	1	1	1,379575082857646E+005	2,3655767E+000	2,3651173E+000	-1,483184786041432E-003	1,000000000000000E+000	3,4730388E-003	42	-3,5079061E-006
2	0	0	1	1	1,380074877935825E+005	2,3455851E+000	2,3451724E+000	-1,602894791682477E-003	1,000000000000000E+000	3,3881767E-003	42	-3,7590646E-006
2	0	0	1	1	1,380574675014042E+005	2,3255935E+000	2,3251624E+000	-1,715634149204094E-003	1,000000000000000E+000	3,2974107E-003	42	-3,9891279E-006
2	0	0	1	1	1,381074468092243E+005	2,3056018E+000	2,3051770E+000	-1,837633122741628E-003	1,000000000000000E+000	3,2006893E-003	42	-4,2360693E-006
2	0	0	1	1	1,381574266170426E+005	2,2856100E+000	2,2851515E+000	-1,971726571831853E-003	1,000000000000000E+000	3,0978688E-003	42	-4,5056941E-006
2	0	0	1	1	1,382074060248638E+005	2,2656181E+000	2,2651887E+000	-2,092142752969164E-003	1,000000000000000E+000	2,9887590E-003	42	-4,7390981E-006
2	0	0	1	1	1,382573857326848E+005	2,2456264E+000	2,2452035E+000	-2,231595592781663E-003	1,000000000000000E+000	2,8730156E-003	42	-5,0103863E-006
2	0	0	1	1	1,383073654405028E+005	2,2256343E+000	2,2252042E+000	-2,361494086321282E-003	1,000000000000000E+000	2,7503078E-003	42	-5,2548066E-006
2	0	0	1	1	1,383573451483231E+005	2,2056425E+000	2,2052155E+000	-2,527211131778808E-003	1,000000000000000E+000	2,6203957E-003	42	-5,5730452E-006
2	0	0	1	1	1,384073243561448E+005	2,1856503E+000	2,1852257E+000	-2,673058015025365E-003	1,000000000000000E+000	2,4828399E-003	42	-5,8412352E-006
2	0	0	1	1	1,384573039639629E+005	2,1656587E+000	2,1652308E+000	-2,827887137243180E-003	1,000000000000000E+000	2,3374050E-003	42	-6,1230280E-006
2	0	0	1	1	1,385072837717822E+005	2,1456666E+000	2,1452441E+000	-3,005584989666694E-003	1,000000000000000E+000	2,1836204E-003	42	-6,4477135E-006
2	0	0	1	1	1,385572633796034E+005	2,1256750E+000	2,1252346E+000	-3,185476463123012E-003	1,000000000000000E+000	2,0210964E-003	42	-6,7698847E-006
2	0	0	1	1	1,386072425874230E+005	2,1056836E+000	2,1052587E+000	-3,370777469185996E-003	1,000000000000000E+000	1,8495182E-003	42	-7,0963588E-006
2	0	0	1	1	1,386572222952417E+005	2,0856917E+000	2,0852487E+000	-3,566823314364198E-003	1,000000000000000E+000	1,6682376E-003	42	-7,4377135E-006
2	0	0	1	1	1,387072020030629E+005	2,0656998E+000	2,0652618E+000	-3,784444802778217E-003	1,000000000000000E+000	1,4769259E-003	42	-7,8158691E-006
2	0	0	1	1	1,387571817108830E+005	2,0457077E+000	2,0452621E+000	-4,008202082245713E-003	1,000000000000000E+000	1,2748962E-003	42	-8,1978242E-006
2	0	0	1	1	1,388071611187011E+005	2,0257161E+000	2,0252860E+000	-4,239279170063961E-003	1,000000000000000E+000	1,0613204E-003	42	-8,5857528E-006
2	0	0	1	1	1,388571408265222E+005	2,0057240E+000	2,0053144E+000	-4,487699961756020E-003	1,000000000000000E+000	8,3550194E-004	42	-8,9992491E-006
2	0	0	1	1	1,389071205343436E+005	1,9857323E+000	1,9852858E+000	-4,793729152622328E-003	1,000000000000000E+000	5,9604424E-004	42	-9,5169225E-006
2	0	0	1	1	1,389571001421614E+005	1,9657404E+000	1,9652938E+000	-5,108511479316249E-003	1,000000000000000E+000	3,4132469E-004	42	-1,0039726E-005
2	0	0	1	1	1,390070795499815E+005	1,9457486E+000	1,9453223E+000	-5,469468622542259E-003	1,000000000000000E+000	6,9428672E-005	42	-1,0639879E-005
2	0	0	1	1	1,390570593578028E+005	1,9257567E+000	1,9253185E+000	-5,885689724935347E-003	1,000000000000000E+000	-2,2167049E-004	42	-1,1331827E-005
2	0	0	1	1	1,391070388656221E+005	1,9057649E+000	1,9053456E+000	-6,328212919943545E-003	1,000000000000000E+000	-5,3405593E-004	42	-1,2057432E-005
2	0	0	1	1	1,391570183734410E+005	1,8857732E+000	1,8853666E+000	-6,798333439019148E-003	1,000000000000000E+000	-8,6947862E-004	42	-1,2817351E-005
2	0	0	1	1	1,392042490808317E+005	1,8668808E+000	1,8664467E+000	-7,310087676925453E-003	2,000000000000000E+000	-1,2096225E-003	42	-1,3643889E-005
2	0	0	1	1	1,392542285886519E+005	1,8468889E+000	1,8464736E+000	-7,930143139346313E-003	2,000000000000000E+000	-1,5977835E-003	42	-1,4642800E-005
2	0	0	1	1	1,393042082964703E+005	1,8268970E+000	1,8264844E+000	-8,644381766708550E-003	2,000000000000000E+000	-2,0192785E-003	42	-1,5788828E-005
2	0	0	1	1	1,393541880042910E+005	1,8069052E+000	1,8065335E+000	-9,410123178141452E-003	2,000000000000000E+000	-2,4780268E-003	42	-1,6999702E-005
2	0	0	1	1	1,394041673121126E+005	1,7869134E+000	1,7864352E+000	-1,018413216062322E-002	2,000000000000000E+000	-2,9761516E-003	41	-1,8193292E-005
2	0	0	1	1	1,394541468199301E+005	1,7669216E+000	1,7664291E+000	-1,100245995790172E-002	2,000000000000000E+000	-3,5134798E-003	41	-1,9435065E-005
2	0	0	1	1	1,395041266277503E+005	1,7469298E+000	1,7464242E+000	-1,181924513709005E-002	2,000000000000000E+000	-4,0917783E-003	41	-2,0641415E-005
2	0	0	1	1	1,395541062355717E+005	1,7269379E+000	1,7264490E+000	-1,257477233426560E-002	2,000000000000000E+000	-4,7093043E-003	41	-2,1709704E-005
2	0	0	1	1	1,396040856433902E+005	1,7069459E+000	1,7064568E+000	-1,332775168124420E-002	2,000000000000000E+000	-5,3646611E-003	41	-2,2743232E-005
2	0	0	1	1	1,396540652512098E+005	1,6869543E+000	1,6864594E+000	-1,419539154382354E-002	2,000000000000000E+000	-6,0595209E-003	41	-2,3939952E-005
2	0	0	1	1	1,397040449590309E+005	1,6669624E+000	1,6664516E+000	-1,537682155300291E-002	2,000000000000000E+000	-6,8045994E-003	41	-2,5624728E-005
2	0	0	1	1	1,397540246668505E+005	1,6469706E+000	1,6464671E+000	-1,726051806607833E-002	2,000000000000000E+000	-7,6248790E-003	41	-2,8418875E-005
2	0	0	1	1	1,398040040746690E+005	1,6269786E+000	1,6264702E+000	-2,017549750570574E-002	2,000000000000000E+000	-8,5640196E-003	41	-3,2814845E-005
2	0	0	1	1	1,398539836824901E+005	1,6069869E+000	1,6064836E+000	-2,445549319775994E-002	2,000000000000000E+000	-9,6824579E-003	41	-3,9287348E-005
2	0	0	1	1	1,399039634903111E+005	1,5869951E+000	1,5864736E+000	-3,044015056725324E-002	2,000000000000000E+000	-1,1055277E-002	41	-4,8292495E-005
2	0	0	1	1	1,399539429981289E+005	1,5670033E+000	1,5665141E+000	-3,873306165965321E-002	2,000000000000000E+000	-1,2781009E-002	41	-6,0675888E-005
2	0	0	1	1	1,400039225059494E+005	1,5470113E+000	1,5465060E+000	-5,189318149734967E-002	2,000000000000000E+000	-1,5023774E-002	41	-8,0253121E-005
2	0	0	1	1	1,400539019137709E+005	1,5270195E+000	1,5266154E+000	-8,298579047055177E-002	2,000000000000000E+000	-1,8288577E-002	41	-1,2668739E-004
2	0	0	1	1	1,401038817215892E+005	1,5070276E+000	1,5065347E+000	-1,292635031685407E-001	2,000000000000000E+000	-2,3613131E-002	40	-1,9473996E-004
2	0	0	1	1	1,401538613294091E+005	1,4870358E+000	1,4865361E+000	-1,667758871843072E-001	2,000000000000000E+000	-3,1075789E-002	40	-2,4791839E-004
2	0	0	1	1	1,402038407372304E+005	1,4670440E+000	1,4665265E+000	-1,918373360083305E-001	2,000000000000000E+000	-4,0099345E-002	40	-2,8133453E-004
2	0	0	1	1	1,402538203450497E+005	1,4470521E+000	1,4465575E+000	-2,058814504659647E-001	2,000000000000000E+000	-5,0090723E-002	40	-2,9781935E-004
2	0	0	1	1	1,403037999528681E+005	1,4270602E+000	1,4265513E+000	-2,102038137716080E-001	2,000000000000000E+000	-6,0534295E-002	40	-2,9986654E-004
2	0	0	1	1	1,403537796606892E+005	1,4070685E+000	1,4065720E+000	-2,073822903459801E-001	2,000000000000000E+000	-7,1000658E-002	40	-2,9169812E-004
2	0	0	1	1	1,404037589685093E+005	1,3870766E+000	1,3865623E+000	-2,012396516075126E-001	2,000000000000000E+000	-8,1227988E-002	40	-2,7903132E-004
2	0	0	1	1	1,404537386763273E+005	1,3670847E+000	1,3665670E+000	-1,928929100408042E-001	2,000000000000000E+000	-9,1093518E-002	40	-2,6360108E-004
2	0	0	1	1	1,405037181841485E+005	1,3470930E+000	1,3465575E+000	-1,838475644571889E-001	2,000000000000000E+000	-1,0051632E-001	40	-2,4756131E-004
2	0	0	1	1	1,405536979919695E+005	1,3271010E+000	1,3265631E+000	-1,750664709072335E-001	2,000000000000000E+000	-1,0949229E-001	40	-2,3223672E-004
2	0	0	1	1	1,406036773997876E+005	1,3071091E+000	1,3065673E+000	-1,669735894840172E-001	2,000000000000000E+000	-1,1804726E-001	40	-2,1816224E-004
2	0	0	1	1	1,406536570076083E+005	1,2871175E+000	1,2866126E+000	-1,587811019286378E-001	2,000000000000000E+000	-1,2619276E-001	40	-2,0428977E-004
2	0	0	1	1	1,407036365154292E+005	1,2671256E+000	1,2665721E+000	-1,515301677948182E-001	2,000000000000000E+000	-1,3395117E-001	40	-1,9192389E-004
2	0	0	1	1	1,407536162232477E+005	1,2471336E+000	1,2465887E+000	-1,442556233784579E-001	2,000000000000000E+000	-1,4134872E-001	40	-1,7982743E-004
2	0	0	1	1	1,408035956310678E+005	1,2271417E+000	1,2266104E+000	-1,373559333234016E-001	2,000000000000000E+000	-1,4839262E-001	40	-1,6848222E-004
2	0	0	1	1	1,408535754388885E+005	1,2071499E+000	1,2066352E+000	-1,303284320284241E-001	2,000000000000000E+000	-1,5508874E-001	40	-1,5725888E-004
2	0	0	1	1	1,409035549467080E+005	1,1871582E+000	1,1866257E+000	-1,237663854161831E-001	2,000000000000000E+000	-1,6144341E-001	40	-1,4686437E-004
2	0	0	1	1	1,409535344545261E+005	1,1671662E+000	1,1666205E+000	-1,174706338038884E-001	2,000000000000000E+000	-1,6747682E-001	40	-1,3704365E-004
2	0	0	1	1	1,410035140623476E+005	1,1471744E+000	1,1466151E+000	-1,110556452759282E-001	2,000000000000000E+000	-1,7319193E-001	40	-1,2733809E-004
2	0	0	1	1	1,410534936701679E+005	1,1271826E+000	1,1266043E+000	-1,050179627123300E-001	2,000000000000000E+000	-1,7859575E-001	40	-1,1831369E-004
2	0	0	1	1	1,411034731779862E+005	1,1071907E+000	1,1066127E+000	-9,917690314654903E-002	2,000000000000000E+000	-1,8370263E-001	40	-1,0975042E-004
2	0	0	1	1	1,411534528858073E+005	1,0871990E+000	1,0866452E+000	-9,360022177382865E-002	2,000000000000000E+000	-1,8852338E-001	40	-1,0171023E-004
2	0	0	1	1	1,412034322936279E+005	1,0672070E+000	1,0666366E+000	-8,848148307926174E-002	2,000000000000000E+000	-1,9307519E-001	40	-9,4377589E-005
2	0	0	1	1	1,412534119014461E+005	1,0472151E+000	1,0466573E+000	-8,385451279661416E-002	2,000000000000000E+000	-1,9738398E-001	40	-8,7766937E-005
2	0	0	1	1	1,413033917092668E+005	1,0272232E+000	1,0266474E+000	-7,972025734195831E-002	2,000000000000000E+000	-2,0147184E-001	40	-8,1844599E-005
2	0	0	1	1	1,413533712170881E+005	1,0072315E+000	1,0066588E+000	-7,614100410584479E-002	2,000000000000000E+000	-2,0536835E-001	40	-7,6648008E-005
2	0	0	1	1	1,414003525244379E+005	1,0115297E+000	1,0109444E+000	-6,193275030523507E-002	2,000000000000000E+000	-2,0867237E-001	40	-6,2610568E-005
2	0	0	1	1	1,414503321322557E+005	1,0315216E+000	1,0309360E+000	-5,000241782335507E-002	2,000000000000000E+000	-2,1144664E-001	40	-5,1549294E-005
2	0	0	1	1	1,415003119400773E+005	1,0515134E+000	1,0509608E+000	-4,120235458973731E-002	2,000000000000000E+000	-2,1371105E-001	41	-4,3302058E-005
2	0	0	1	1	1,415502914478984E+005	1,0715054E+000	1,0709682E+000	-3,425624552884571E-002	2,000000000000000E+000	-2,1558574E-001	41	-3,6687346E-005
2	0	0	1	1	1,416002711557164E+005	1,0914972E+000	1,0909328E+000	-2,857137246944463E-002	2,000000000000000E+000	-2,1714704E-001	41	-3,1169449E-005
2	0	0	1	1	1,416502507635371E+005	1,1114891E+000	1,1109594E+000	-2,389910420351474E-002	2,000000000000000E+000	-2,1845080E-001	41	-2,6550935E-005
2	0	0	1	1	1,417002303713583E+005	1,1314808E+000	1,1309522E+000	-1,993803230451624E-002	2,000000000000000E+000	-2,1953928E-001	41	-2,2548962E-005
2	0	0	1	1	1,417502101791766E+005	1,1514727E+000	1,1509030E+000	-1,665119348082655E-002	2,000000000000000E+000	-2,2044717E-001	41	-1,9163908E-005
2	0	0	1	1	1,418001897869965E+005	1,1714646E+000	1,1709288E+000	-1,387353213141335E-002	2,000000000000000E+000	-2,2120376E-001	41	-1,6244920E-005
2	0	0	1	1	1,418501694948173E+005	1,1914564E+000	1,1908792E+000	-1,150069840781748E-002	2,000000000000000E+000	-2,2183223E-001	41	-1,3695942E-005
2	0	0	1	1	1,419001490026368E+005	1,2114483E+000	1,2108791E+000	-9,479638775197918E-003	2,000000000000000E+000	-2,2235133E-001	41	-1,1478696E-005
2	0	0	1	1	1,419501287104550E+005	1,2314401E+000	1,2308521E+000	-7,742910516905482E-003	2,000000000000000E+000	-2,2277673E-001	41	-9,5303776E-006
2	0	0	1	1	1,420001084182764E+005	1,2514319E+000	1,2508366E+000	-6,234892649951393E-003	2,000000000000000E+000	-2,2312111E-001	41	-7,7988316E-006
2	0	0	1	1	1,420500880260970E+005	1,2714238E+000	1,2708857E+000	-4,870715039493694E-003	2,000000000000000E+000	-2,2339366E-001	42	-6,1901219E-006
2	0	0	1	1	1,421000676339152E+005	1,2914156E+000	1,2908812E+000	-3,685406575226161E-003	2,000000000000000E+000	-2,2360286E-001	42	-4,7574217E-006
2	0	0	1	1	1,421500472417362E+005	1,3114074E+000	1,3108457E+000	-2,593188252727988E-003	2,000000000000000E+000	-2,2375518E-001	42	-3,3992696E-006
2	0	0	1	1	1,422000270495573E+005	1,3313994E+000	1,3308526E+000	-1,563732926795552E-003	2,000000000000000E+000	-2,2385506E-001	42	-2,0810980E-006
2	0	0	1	1	1,422500066573755E+005	1,3513912E+000	1,3507951E+000	-6,010600692591492E-004	2,000000000000000E+000	-2,2390488E-001	42	-8,1190905E-007
2	1	0	1	1	1,422999862651955E+005	1,3713830E+000	1,3707558E+000	3,977262529905486E-004	2,000000000000000E+000	-2,2390601E-001	43	5,4518557E-007
2	1	0	1	1	1,423499658730165E+005	1,3913747E+000	1,3907645E+000	1,386055093303001E-003	2,000000000000000E+000	-2,2385746E-001	42	1,9276763E-006
2	1	0	1	1	1,423999456808362E+005	1,4113667E+000	1,4107682E+000	2,486943895018343E-003	2,000000000000000E+000	-2,2375679E-001	42	3,5085013E-006
2	1	0	1	1	1,424499252886539E+005	1,4313586E+000	1,4307168E+000	3,702286909335228E-003	2,000000000000000E+000	-2,2359860E-001	42	5,2969240E-006
2	1	0	1	1	1,424999048964755E+005	1,4513505E+000	1,4507051E+000	5,099137806041713E-003	2,000000000000000E+000	-2,2337531E-001	42	7,3973451E-006
2	1	0	1	1	1,425498846042962E+005	1,4713422E+000	1,4706570E+000	6,727333006286473E-003	2,000000000000000E+000	-2,2307648E-001	42	9,8935989E-006
2	1	0	1	1	1,425998642121144E+005	1,4913340E+000	1,4906749E+000	8,672072142660497E-003	2,000000000000000E+000	-2,2268879E-001	42	1,2927240E-005
2	1	0	1	1	1,426498439199353E+005	1,5113258E+000	1,5107327E+000	1,120780146465690E-002	2,000000000000000E+000	-2,2219126E-001	41	1,6931992E-005
2	1	0	1	1	1,426998235277561E+005	1,5313177E+000	1,5307163E+000	1,490236597860689E-002	2,000000000000000E+000	-2,2154075E-001	41	2,2811295E-005
2	1	0	1	1	1,427498031355743E+005	1,5513096E+000	1,5506747E+000	2,077375758614614E-002	2,000000000000000E+000	-2,2065645E-001	41	3,2213338E-005
2	1	0	1	1	1,427997827433947E+005	1,5713015E+000	1,5706687E+000	3,005401879244718E-002	2,000000000000000E+000	-2,1939607E-001	41	4,7204907E-005
2	1	0	1	1	1,428497625512157E+005	1,5912933E+000	1,5906301E+000	5,342169001182606E-002	2,000000000000000E+000	-2,1743743E-001	41	8,4974148E-005
2	1	0	1	1	1,428997421590351E+005	1,6112852E+000	1,6106101E+000	1,007105973071663E-001	2,000000000000000E+000	-2,1361077E-001	41	1,6220551E-004
2	1	0	1	1	1,429497217668532E+005	1,6312771E+000	1,6306218E+000	1,536734124579768E-001	2,000000000000000E+000	-2,0726891E-001	40	2,5058322E-004
2	1	0	1	1	1,429997014746747E+005	1,6512688E+000	1,6506571E+000	2,185150504770219E-001	2,000000000000000E+000	-1,9803585E-001	40	3,6069340E-004
2	1	0	1	1	1,430496809824947E+005	1,6712607E+000	1,6706325E+000	3,099796529742118E-001	2,000000000000000E+000	-1,8496341E-001	40	5,1786209E-004
2	1	0	1	1	1,430996608903133E+005	1,6912525E+000	1,6906049E+000	4,403296518133502E-001	2,000000000000000E+000	-1,6635150E-001	40	7,4442348E-004
2	1	0	1	1	1,431496403981344E+005	1,7112443E+000	1,7105751E+000	5,931167074942056E-001	2,000000000000000E+000	-1,4052889E-001	40	1,0145707E-003
2	1	0	1	1	1,431996202059551E+005	1,7312361E+000	1,7305759E+000	7,005825800062482E-001	2,000000000000000E+000	-1,0773324E-001	40	1,2124113E-003
2	1	0	1	1	1,432496000137734E+005	1,7512282E+000	1,7505711E+000	6,339970247929462E-001	2,000000000000000E+000	-7,3495559E-002	40	1,1098569E-003
2	1	0	1	1	1,432995794215936E+005	1,7712198E+000	1,7705845E+000	4,344246817926214E-001	2,000000000000000E+000	-4,6595827E-002	40	7,6918560E-004
2	1	0	1	1	1,433495590294150E+005	1,7912116E+000	1,7906152E+000	2,258737757911073E-001	2,000000000000000E+000	-3,0178118E-002	40	4,0445302E-004
2	1	0	1	1	1,433995388372336E+005	1,8112035E+000	1,8106213E+000	8,609200599233557E-002	2,000000000000000E+000	-2,2852866E-002	40	1,5588001E-004
2	1	0	1	1	1,434497684450916E+005	1,8312953E+000	1,8306808E+000	4,574802063853262E-002	2,000000000000000E+000	-1,9767383E-002	41	8,3750027E-005
2	1	0	1	1	1,434997478529131E+005	1,8512871E+000	1,8506801E+000	3,313900221776322E-002	2,000000000000000E+000	-1,7823048E-002	41	6,1329694E-005
2	1	0	1	1	1,435497276607328E+005	1,8712790E+000	1,8706849E+000	2,621978848121378E-002	2,000000000000000E+000	-1,6335502E-002	41	4,9048962E-005
2	1	0	1	1	1,435997074685511E+005	1,8912709E+000	1,8906902E+000	2,138181934646077E-002	2,000000000000000E+000	-1,5141079E-002	41	4,0426396E-005
2	1	0	1	1	1,436496869763726E+005	1,9112626E+000	1,9107136E+000	1,816915934336732E-002	2,000000000000000E+000	-1,4141160E-002	41	3,4716060E-005
2	1	0	1	1	1,436996664841929E+005	1,9312544E+000	1,9307029E+000	1,564478162947106E-002	2,000000000000000E+000	-1,3287769E-002	41	3,0205425E-005
2	1	0	1	1	1,437496462920113E+005	1,9512465E+000	1,9506675E+000	1,441243083477417E-002	2,000000000000000E+000	-1,2524547E-002	41	2,8113860E-005
2	1	0	1	1	1,437996259998318E+005	1,9712384E+000	1,9706671E+000	1,360943271763566E-002	2,000000000000000E+000	-1,1810059E-002	41	2,6819662E-005
2	1	0	1	1	1,438496057076533E+005	1,9912302E+000	1,9906750E+000	1,289898817399131E-002	2,000000000000000E+000	-1,1133307E-002	41	2,5677693E-005
2	1	0	1	1	1,438995855154721E+005	2,0112221E+000	2,0106468E+000	1,223539123396622E-002	2,000000000000000E+000	-1,0490851E-002	41	2,4601051E-005
2	1	0	1	1	1,439495649232909E+005	2,0312135E+000	2,0306425E+000	1,147709046634604E-002	2,000000000000000E+000	-9,8825535E-003	41	2,3305867E-005
2	1	0	1	1	1,439995450311120E+005	2,0512054E+000	2,0506380E+000	1,054292114711242E-002	2,000000000000000E+000	-9,3171690E-003	41	2,1619715E-005
2	1	0	1	1	1,440495247389320E+005	2,0711970E+000	2,0706372E+000	9,821315989451490E-003	2,000000000000000E+000	-8,7931352E-003	41	2,0336383E-005
2	1	0	1	1	1,440995044467505E+005	2,0911894E+000	2,0906241E+000	9,250959675684872E-003	2,000000000000000E+000	-8,3053242E-003	41	1,9340279E-005
2	1	0	1	1	1,441494837545716E+005	2,1111808E+000	2,1106348E+000	8,978867653452793E-003	2,000000000000000E+000	-7,8357505E-003	41	1,8951110E-005
2	1	0	1	1	1,441994638623926E+005	2,1311729E+000	2,1306143E+000	8,782402072152945E-003	2,000000000000000E+000	-7,3771132E-003	41	1,8711911E-005
2	1	0	1	1	1,442494435702106E+005	2,1511648E+000	2,1506062E+000	8,606592290332109E-003	2,000000000000000E+000	-6,9277370E-003	41	1,8509390E-005
2	1	0	1	1	1,442994232780309E+005	2,1711566E+000	2,1705852E+000	8,436180292489021E-003	2,000000000000000E+000	-6,4868438E-003	41	1,8311448E-005
2	1	0	1	1	1,443494029858522E+005	2,1911485E+000	2,1906092E+000	8,276227319134161E-003	2,000000000000000E+000	-6,0544289E-003	41	1,8129980E-005
2	1	0	1	1	1,443993830936714E+005	2,2111404E+000	2,2105951E+000	8,088702705124518E-003	2,000000000000000E+000	-5,6307255E-003	41	1,7880846E-005
2	1	0	1	1	1,444493625014897E+005	2,2311318E+000	2,2305732E+000	7,918309358251163E-003	2,000000000000000E+000	-5,2156672E-003	41	1,7662369E-005
2	1	0	1	1	1,444993421093111E+005	2,2511239E+000	2,2505519E+000	7,780488618306599E-003	2,000000000000000E+000	-4,8086857E-003	41	1,7510394E-005
2	1	0	1	1	1,445493218171312E+005	2,2711158E+000	2,2705343E+000	7,626470414672848E-003	2,000000000000000E+000	-4,4092787E-003	41	1,7316162E-005
2	1	0	1	1	1,445993016249496E+005	2,2911077E+000	2,2905502E+000	7,486556220666275E-003	2,000000000000000E+000	-4,0173116E-003	41	1,7148333E-005
2	1	0	1	1	1,446492813327707E+005	2,3110995E+000	2,3105483E+000	7,322729187492216E-003	2,000000000000000E+000	-3,6330034E-003	41	1,6919519E-005
2	1	0	1	1	1,446992610405916E+005	2,3310914E+000	2,3304703E+000	7,186285277750309E-003	2,000000000000000E+000	-3,2559528E-003	41	1,6747425E-005
2	1	0	1	1	1,447492407484101E+005	2,3510833E+000	2,3505089E+000	7,072445722906356E-003	2,000000000000000E+000	-2,8847351E-003	41	1,6623846E-005
2	1	0	1	1	1,447992207562299E+005	2,3710752E+000	2,3705075E+000	6,948692359811014E-003	2,000000000000000E+000	-2,5199929E-003	41	1,6471928E-005
2	1	0	1	1	1,448492004640510E+005	2,3910670E+000	2,3905025E+000	6,764964139730684E-003	2,000000000000000E+000	-2,1628281E-003	41	1,6171663E-005
2	1	0	1	1	1,448991801718711E+005	2,4110587E+000	2,4105058E+000	6,586209551274397E-003	2,000000000000000E+000	-1,8152157E-003	41	1,5876096E-005
2	1	0	1	1	1,449491595796887E+005	2,4310505E+000	2,4305282E+000	6,445809218944699E-003	2,000000000000000E+000	-1,4759781E-003	41	1,5666721E-005
2	1	0	1	1	1,449991396875102E+005	2,4510422E+000	2,4504824E+000	6,339385820532714E-003	2,000000000000000E+000	-1,1430312E-003	41	1,5534553E-005
2	1	0	1	1	1,450491193953310E+005	2,4710345E+000	2,4705031E+000	6,261060820350675E-003	2,000000000000000E+000	-8,1432448E-004	41	1,5467969E-005
2	1	0	1	1	1,450990990031492E+005	2,4910259E+000	2,4904928E+000	6,254265701979747E-003	2,000000000000000E+000	-4,8827645E-004	41	1,5576205E-005
2	1	0	1	1	1,451490785109698E+005	2,5110183E+000	2,5104797E+000	6,230909188034595E-003	2,000000000000000E+000	-1,6332325E-004	41	1,5642570E-005
2	1	0	1	1	1,451990585187906E+005	2,5310099E+000	2,5304749E+000	6,239132087122512E-003	2,000000000000000E+000	1,6143374E-004	41	1,5787968E-005
2	1	0	1	1	1,452490382266096E+005	2,5510018E+000	2,5504780E+000	6,278198808246038E-003	2,000000000000000E+000	4,8683112E-004	41	1,6012407E-005
2	1	0	1	1	1,452990179344290E+005	2,5709934E+000	2,5704811E+000	6,298651055486729E-003	2,000000000000000E+000	8,1356423E-004	41	1,6190563E-005
2	1	0	1	1	1,453489976422500E+005	2,5909858E+000	2,5904882E+000	6,356270783610257E-003	2,000000000000000E+000	1,1420419E-003	41	1,6465845E-005
2	1	0	1	1	1,453989777500699E+005	2,6109774E+000	2,6104465E+000	6,407703433785522E-003	2,000000000000000E+000	1,4728762E-003	41	1,6726966E-005
2	1	0	1	1	1,454489570578877E+005	2,6309688E+000	2,6304538E+000	6,480655821766310E-003	2,000000000000000E+000	1,8070776E-003	41	1,7047067E-005
2	1	0	1	1	1,454989367657093E+005	2,6509609E+000	2,6504285E+000	6,575795560243000E-003	2,000000000000000E+000	2,1451863E-003	41	1,7428676E-005
2	1	0	1	1	1,455489164735302E+005	2,6709526E+000	2,6704626E+000	6,680938232532713E-003	2,000000000000000E+000	2,4882485E-003	41	1,7841196E-005
2	1	0	1	1	1,455988962813485E+005	2,6909444E+000	2,6904416E+000	6,806947157174392E-003	2,000000000000000E+000	2,8372779E-003	41	1,8313694E-005
2	1	0	1	0	1,456453773886205E+005	2,6904447E+000	2,6899076E+000	4,265073747088885E-003	2,000000000000000E+000	3,1118516E-003	42	1,1472654E-005
2	1	0	1	0	1,456953569964417E+005	2,6704531E+000	2,6699359E+000	2,562344303628760E-003	2,000000000000000E+000	3,2666498E-003	42	6,8412951E-006
2	1	0	1	0	1,457453367042616E+005	2,6504610E+000	2,6499486E+000	1,620191527495013E-003	2,000000000000000E+000	3,3586272E-003	42	4,2934244E-006
2	1	0	1	0	1,457953164120801E+005	2,6304693E+000	2,6299765E+000	9,936271195730120E-004	2,000000000000000E+000	3,4124509E-003	42	2,6132159E-006
2	1	0	1	0	1,458452961199013E+005	2,6104774E+000	2,6099541E+000	5,067605532831185E-004	2,000000000000000E+000	3,4396385E-003	42	1,3226218E-006
2	1	0	1	0	1,458960251278393E+005	2,5901856E+000	2,5896468E+000	1,195120543595731E-004	2,000000000000000E+000	3,4473019E-003	43	3,0949400E-007
2	0	0	1	0	1,459462548356960E+005	2,5700939E+000	2,5695879E+000	-1,681140952036510E-004	2,000000000000000E+000	3,4394981E-003	43	-4,3198395E-007
2	0	0	1	0	1,459964843435564E+005	2,5500021E+000	2,5495386E+000	-4,042849408532260E-004	2,000000000000000E+000	3,4190754E-003	43	-1,0307401E-006
2	0	0	1	0	1,460464640513775E+005	2,5300102E+000	2,5295715E+000	-5,860422631269579E-004	2,000000000000000E+000	3,3883944E-003	43	-1,4824358E-006
2	0	0	1	0	1,460969429592737E+005	2,5098188E+000	2,5093257E+000	-6,535930671026854E-004	2,000000000000000E+000	3,3483950E-003	42	-1,6400779E-006
2	0	0	1	0	1,461469226670938E+005	2,4898267E+000	2,4893382E+000	-8,224151280254288E-004	2,000000000000000E+000	3,3011364E-003	42	-2,0472694E-006
2	0	0	1	0	1,461969023749153E+005	2,4698348E+000	2,4693508E+000	-9,415623344259938E-004	2,000000000000000E+000	3,2467518E-003	42	-2,3250477E-006
2	0	0	1	0	1,462468820827338E+005	2,4498427E+000	2,4493663E+000	-1,068271191617537E-003	2,000000000000000E+000	3,1862145E-003	42	-2,6165874E-006
2	0	0	1	0	1,462968615905533E+005	2,4298511E+000	2,4293933E+000	-1,189743370473947E-003	2,000000000000000E+000	3,1196072E-003	42	-2,8903546E-006
2	0	0	1	0	1,463468409983746E+005	2,4098592E+000	2,4094155E+000	-1,306021125462577E-003	2,000000000000000E+000	3,0470146E-003	42	-3,1467475E-006
2	0	0	1	0	1,463968206061944E+005	2,3898673E+000	2,3893876E+000	-1,429647472742192E-003	2,000000000000000E+000	2,9684938E-003	42	-3,4159821E-006
2	0	0	1	0	1,464468003140120E+005	2,3698752E+000	2,3693936E+000	-1,546476586182313E-003	2,000000000000000E+000	2,8843144E-003	42	-3,6642118E-006
2	0	0	1	0	1,464967795218338E+005	2,3498838E+000	2,3494160E+000	-1,646550418237875E-003	2,000000000000000E+000	2,7942243E-003	42	-3,8684320E-006
2	0	0	1	0	1,465467592296540E+005	2,3298922E+000	2,3294232E+000	-1,778344366070600E-003	2,000000000000000E+000	2,6981530E-003	42	-4,1425164E-006
2	0	0	1	0	1,465967389374720E+005	2,3099000E+000	2,3094647E+000	-1,905817901914644E-003	2,000000000000000E+000	2,5959816E-003	42	-4,4014191E-006
2	0	0	1	0	1,466467186452928E+005	2,2899082E+000	2,2894297E+000	-2,039473218860409E-003	2,000000000000000E+000	2,4874751E-003	42	-4,6692303E-006
2	0	0	1	0	1,466966981531139E+005	2,2699163E+000	2,2694397E+000	-2,163491075773571E-003	2,000000000000000E+000	2,3724944E-003	42	-4,9099126E-006
2	0	0	1	0	1,467466777609321E+005	2,2499247E+000	2,2494557E+000	-2,308353075809477E-003	2,000000000000000E+000	2,2507173E-003	42	-5,1925381E-006
2	0	0	1	0	1,467966574687526E+005	2,2299328E+000	2,2294891E+000	-2,454212028520038E-003	2,000000000000000E+000	2,1218008E-003	42	-5,4716388E-006
2	0	0	1	0	1,468466368765743E+005	2,2099407E+000	2,2094758E+000	-2,601852695572424E-003	2,000000000000000E+000	1,9854337E-003	42	-5,7487305E-006
2	0	0	1	0	1,468966163843921E+005	2,1899490E+000	2,1894813E+000	-2,763266385139445E-003	2,000000000000000E+000	1,8413067E-003	42	-6,0501197E-006
2	0	0	1	0	1,469465960922118E+005	2,1699572E+000	2,1694882E+000	-2,925563770297693E-003	2,000000000000000E+000	1,6890916E-003	42	-6,3469761E-006
2	0	0	1	0	1,469965755000331E+005	2,1499655E+000	2,1495230E+000	-3,110310746788801E-003	2,000000000000000E+000	1,5281696E-003	42	-6,6856846E-006
2	0	0	1	0	1,470465552078523E+005	2,1299736E+000	2,1294801E+000	-3,300178881386451E-003	2,000000000000000E+000	1,3579449E-003	42	-7,0276651E-006
2	0	0	1	0	1,470965346156710E+005	2,1099815E+000	2,1095214E+000	-3,490710765236334E-003	2,000000000000000E+000	1,1782475E-003	42	-7,3637289E-006
2	0	0	1	0	1,471465143234920E+005	2,0899897E+000	2,0895207E+000	-3,702349203981811E-003	2,000000000000000E+000	9,8843279E-004	42	-7,7361356E-006
2	0	0	1	0	1,471964940313124E+005	2,0699980E+000	2,0695462E+000	-3,918762689894134E-003	2,000000000000000E+000	7,8813854E-004	42	-8,1100607E-006
2	0	0	1	0	1,472464737391309E+005	2,0500062E+000	2,0495412E+000	-4,157254859494551E-003	2,000000000000000E+000	5,7667273E-004	42	-8,5204656E-006
2	0	0	1	0	1,472964532469517E+005	2,0300143E+000	2,0295603E+000	-4,406854459281215E-003	2,000000000000000E+000	3,5292917E-004	42	-8,9439773E-006
2	0	0	1	0	1,473464326547729E+005	2,0100222E+000	2,0095773E+000	-4,688427510821144E-003	2,000000000000000E+000	1,1548169E-004	42	-9,4217576E-006
2	0	0	1	0	1,473964124625907E+005	1,9900305E+000	1,9895858E+000	-5,017395164795175E-003	2,000000000000000E+000	-1,3710691E-004	42	-9,9825384E-006
2	0	0	1	0	1,474463921704110E+005	1,9700388E+000	1,9695925E+000	-5,383242286456189E-003	2,000000000000000E+000	-4,0662524E-004	42	-1,0602794E-005
2	0	0	1	0	1,474963714782326E+005	1,9500470E+000	1,9496125E+000	-5,776631982687588E-003	2,000000000000000E+000	-6,9503032E-004	42	-1,1262194E-005
2	0	0	1	0	1,475463511860520E+005	1,9300550E+000	1,9296038E+000	-6,220692842705398E-003	2,000000000000000E+000	-1,0045782E-003	42	-1,2003473E-005
2	0	0	1	0	1,475963306938703E+005	1,9100631E+000	1,9096377E+000	-6,713577092078823E-003	2,000000000000000E+000	-1,3373634E-003	42	-1,2820500E-005
2	0	0	1	0	1,476463105016912E+005	1,8900713E+000	1,8896464E+000	-7,245817463486653E-003	2,000000000000000E+000	-1,6958163E-003	42	-1,3692033E-005
2	0	0	0	0	1,476676299050255E+005	1,8815254E+000	1,8810769E+000	-7,538021238855080E-003	2,000000000000000E+000	-1,8573501E-003	42	-1,4179598E-005