File: Dati/201027/CV_LTO-C_Al_slurrymia_01_1mVs_06_CV_C03.mpt
EC-Lab ASCII FILE
Nb header lines : 63

Cyclic Voltammetry

Run on channel : 3 (SN 6807)
User :
Electrode connection : standard
Ewe ctrl range : min = 0,00 V, max = 5,00 V
Ewe,I filtering : 50 kHz
Safety Limits :
	Do not start on E overload
Channel : Grounded
Acquisition started on : 10/27/2020 18:19:16
Saved on :
	File : CV_LTO-C_Al_slurrymia_01_1mVs_06_CV_C03.mpr
	Directory : C:\Users\labsuperfici\Desktop\Biologic\Users\Prisca Viviani\201027\
	Host : 10.78.33.0
Device : VSP-300 (SN 0638)
Address : USB
EC-Lab for windows v11.31 (software)
Internet server v11.30 (firmware)
Command interpretor v11.31 (firmware)
Electrode material :
Initial state :
Electrolyte :
Comments :
Cable : standard
Reference electrode : SCE Saturated Calomel Electrode (0,241 V)
Electrode surface area : 0,001 cm²
Characteristic mass : 0,001 g
Equivalent Weight : 0,000 g/eq.
Density : 0,000 g/cm3
Cycle Definition : Charge/Discharge alternance
Ei (V)              0,000
vs.                 Eoc
dE/dt               0,600
dE/dt unit          mV/s
E1 (V)              1,000
vs.                 Ref
Step percent        50
N                   10
E range min (V)     0,000
E range max (V)     5,000
I Range             Auto
I Range min         Unset
I Range max         Unset
I Range init        Unset
Bandwidth           8
E2 (V)              3,000
vs.                 Ref
nc cycles           2
Reverse Scan        1
Ef (V)              0,000
vs.                 Eoc

Modify on : 10/28/2020 10:35
nc cycles           1

Modify on : 10/28/2020 10:37
E2 (V)              2,700

mode	ox/red	error	control changes	counter inc.	time/s	control/V	Ewe/V	<I>/mA	cycle number	(Q-Qo)/C	I Range	P/W
2	0	0	1	0	1,612682248329986E+005	1,8815254E+000	1,8808821E+000	-1,082594506442547E-002	1,000000000000000E+000	0,0000000E+000	41	-2,0362328E-005
2	0	0	1	0	1,613007949380956E+005	1,8619825E+000	1,8613651E+000	-1,171593321750691E-002	1,000000000000000E+000	-3,7286736E-004	41	-2,1807629E-005
2	0	0	1	0	1,613341146433074E+005	1,8419908E+000	1,8413697E+000	-1,293076340786992E-002	1,000000000000000E+000	-7,9728791E-004	41	-2,3810317E-005
2	0	0	1	0	1,613674344485227E+005	1,8219991E+000	1,8213949E+000	-1,398664194348787E-002	1,000000000000000E+000	-1,2591855E-003	41	-2,5475199E-005
2	0	0	1	0	1,614007541537336E+005	1,8020071E+000	1,8014110E+000	-1,497172629130211E-002	1,000000000000000E+000	-1,7550110E-003	41	-2,6970232E-005
2	0	0	1	0	1,614340739589497E+005	1,7820153E+000	1,7814097E+000	-1,599642058821867E-002	1,000000000000000E+000	-2,2839508E-003	41	-2,8496179E-005
2	0	0	1	0	1,614673936641603E+005	1,7620234E+000	1,7614298E+000	-1,692657417663557E-002	1,000000000000000E+000	-2,8460673E-003	41	-2,9814972E-005
2	0	0	1	0	1,615007133693760E+005	1,7420316E+000	1,7414303E+000	-1,784448143405460E-002	1,000000000000000E+000	-3,4385978E-003	41	-3,1074920E-005
2	0	0	1	0	1,615340330745876E+005	1,7220398E+000	1,7214738E+000	-1,873751696101281E-002	1,000000000000000E+000	-4,0607126E-003	41	-3,2256146E-005
2	0	0	0	0	1,615673528798018E+005	1,7020481E+000	1,7014809E+000	-1,988310399173562E-002	1,000000000000000E+000	-4,7165393E-003	41	-3,3830722E-005
2	0	0	1	0	1,616006726850143E+005	1,6820561E+000	1,6814926E+000	-2,159074906014150E-002	1,000000000000000E+000	-5,4189102E-003	41	-3,6304686E-005
2	0	0	0	0	1,616339924902278E+005	1,6620643E+000	1,6614418E+000	-2,429320563431875E-002	1,000000000000000E+000	-6,1930534E-003	41	-4,0361749E-005
2	0	0	1	0	1,616673121954409E+005	1,6420723E+000	1,6415006E+000	-2,826071821763765E-002	1,000000000000000E+000	-7,0756413E-003	41	-4,6389985E-005
2	0	0	1	0	1,617006319006542E+005	1,6220806E+000	1,6214813E+000	-3,433189135493075E-002	1,000000000000000E+000	-8,1248917E-003	41	-5,5668519E-005
2	0	0	1	0	1,617339517058680E+005	1,6020887E+000	1,6015164E+000	-4,292154850864793E-002	1,000000000000000E+000	-9,4162785E-003	41	-6,8739566E-005
2	0	0	1	0	1,617672714110804E+005	1,5820967E+000	1,5815505E+000	-5,493235898102294E-002	1,000000000000000E+000	-1,1046159E-002	41	-8,6878295E-005
2	0	0	1	0	1,618005912162950E+005	1,5621049E+000	1,5615705E+000	-7,268172681242013E-002	1,000000000000000E+000	-1,3163098E-002	41	-1,1349764E-004
2	0	0	1	0	1,618339110215064E+005	1,5421132E+000	1,5414927E+000	-1,103890064340047E-001	1,000000000000000E+000	-1,6109690E-002	40	-1,7016385E-004
2	0	0	0	0	1,618672307267222E+005	1,5221212E+000	1,5215485E+000	-2,168410939778842E-001	1,000000000000000E+000	-2,1424117E-002	40	-3,2993424E-004
2	0	0	1	0	1,619005504319328E+005	1,5021293E+000	1,5015546E+000	-3,162602429569783E-001	1,000000000000000E+000	-3,0431841E-002	40	-4,7488202E-004
2	0	0	1	0	1,619338702371488E+005	1,4821376E+000	1,4815451E+000	-3,755055630139814E-001	1,000000000000000E+000	-4,2082764E-002	40	-5,5632845E-004
2	0	0	1	0	1,619671900423598E+005	1,4621458E+000	1,4616007E+000	-3,992402216053423E-001	1,000000000000000E+000	-5,5090412E-002	40	-5,8352976E-004
2	0	0	1	0	1,620005098475749E+005	1,4421539E+000	1,4416023E+000	-3,969192609213597E-001	1,000000000000000E+000	-6,8423212E-002	40	-5,7219976E-004
2	0	0	1	0	1,620338295527867E+005	1,4221622E+000	1,4216341E+000	-3,793301391651962E-001	1,000000000000000E+000	-8,1397235E-002	40	-5,3926866E-004
2	0	0	1	0	1,620671492580008E+005	1,4021703E+000	1,4016161E+000	-3,556208792848921E-001	1,000000000000000E+000	-9,3663782E-002	40	-4,9844396E-004
2	0	0	1	0	1,621004690632134E+005	1,3821783E+000	1,3815787E+000	-3,301415665341239E-001	1,000000000000000E+000	-1,0510155E-001	40	-4,5611654E-004
2	0	0	1	0	1,621337887684270E+005	1,3621867E+000	1,3615810E+000	-3,064825568708820E-001	1,000000000000000E+000	-1,1571185E-001	40	-4,1730082E-004
2	0	0	1	0	1,621671084736400E+005	1,3421948E+000	1,3415899E+000	-2,861640158011871E-001	1,000000000000000E+000	-1,2558989E-001	40	-3,8391477E-004
2	0	0	1	0	1,622004282788532E+005	1,3222029E+000	1,3215985E+000	-2,678318361077103E-001	1,000000000000000E+000	-1,3482717E-001	40	-3,5396617E-004
2	0	0	1	0	1,622337479840671E+005	1,3022110E+000	1,3015950E+000	-2,505757536767408E-001	1,000000000000000E+000	-1,4347120E-001	40	-3,2614815E-004
2	0	0	0	0	1,622670677892789E+005	1,2822192E+000	1,2815993E+000	-2,338011598476437E-001	1,000000000000000E+000	-1,5154879E-001	40	-2,9963939E-004
2	0	0	1	0	1,623003874944944E+005	1,2622274E+000	1,2615746E+000	-2,174232978088524E-001	1,000000000000000E+000	-1,5907358E-001	40	-2,7429571E-004
2	0	0	1	0	1,623337071997053E+005	1,2422357E+000	1,2416193E+000	-2,016794700693212E-001	1,000000000000000E+000	-1,6606039E-001	40	-2,5040912E-004
2	0	0	1	0	1,623670269049215E+005	1,2222438E+000	1,2216181E+000	-1,869023081215024E-001	1,000000000000000E+000	-1,7253900E-001	40	-2,2832323E-004
2	0	0	1	0	1,624003467101322E+005	1,2022518E+000	1,2016150E+000	-1,727300427284708E-001	1,000000000000000E+000	-1,7853503E-001	40	-2,0755500E-004
2	0	0	1	0	1,624336665153475E+005	1,1822600E+000	1,1816286E+000	-1,592594681102970E-001	1,000000000000000E+000	-1,8407021E-001	40	-1,8818554E-004
2	0	0	1	0	1,624669863205591E+005	1,1622682E+000	1,1616397E+000	-1,464106321510512E-001	1,000000000000000E+000	-1,8916686E-001	40	-1,7007640E-004
2	0	0	0	0	1,625003060257733E+005	1,1422764E+000	1,1416551E+000	-1,343459063215757E-001	1,000000000000000E+000	-1,9384716E-001	40	-1,5337669E-004
2	0	0	1	0	1,625336257309858E+005	1,1222845E+000	1,1216490E+000	-1,231972997058601E-001	1,000000000000000E+000	-1,9814028E-001	40	-1,3818413E-004
2	0	0	1	0	1,625669455361995E+005	1,1022927E+000	1,1016364E+000	-1,132759653911430E-001	1,000000000000000E+000	-2,0208259E-001	40	-1,2478893E-004
2	0	0	1	0	1,626002653414125E+005	1,0823008E+000	1,0816725E+000	-1,045240531202549E-001	1,000000000000000E+000	-2,0571311E-001	40	-1,1306080E-004
2	0	0	1	0	1,626335850466257E+005	1,0623089E+000	1,0616901E+000	-9,691696875051870E-002	1,000000000000000E+000	-2,0907030E-001	40	-1,0289578E-004
2	0	0	0	0	1,626669048518391E+005	1,0423170E+000	1,0416787E+000	-9,074154138937152E-002	1,000000000000000E+000	-2,1219739E-001	40	-9,4523530E-005
2	0	0	1	0	1,627002245570519E+005	1,0223253E+000	1,0216852E+000	-8,620856327197957E-002	1,000000000000000E+000	-2,1514635E-001	40	-8,8078014E-005
2	0	0	1	0	1,627335443622665E+005	1,0023333E+000	1,0016928E+000	-8,340201928117974E-002	1,000000000000000E+000	-2,1797277E-001	40	-8,3543200E-005
2	0	0	1	0	1,627650319671920E+005	1,0165275E+000	1,0158943E+000	-5,788897010897126E-002	1,000000000000000E+000	-2,2015357E-001	40	-5,8809073E-005
2	0	0	1	0	1,627983517724061E+005	1,0365195E+000	1,0359118E+000	-4,283263705842644E-002	1,000000000000000E+000	-2,2180882E-001	41	-4,4370834E-005
2	0	0	1	0	1,628316715776186E+005	1,0565113E+000	1,0559181E+000	-3,228434060096796E-002	1,000000000000000E+000	-2,2304527E-001	41	-3,4089619E-005
2	0	0	0	0	1,628649912828319E+005	1,0765032E+000	1,0759076E+000	-2,444501049339595E-002	1,000000000000000E+000	-2,2397847E-001	41	-2,6300573E-005
2	0	0	1	0	1,628983110880452E+005	1,0964950E+000	1,0958892E+000	-1,848922329927558E-002	1,000000000000000E+000	-2,2468393E-001	41	-2,0262140E-005
2	0	0	1	0	1,629316307932581E+005	1,1164868E+000	1,1158867E+000	-1,387432379385431E-002	1,000000000000000E+000	-2,2521421E-001	41	-1,5482174E-005
2	0	0	1	0	1,629649505984727E+005	1,1364788E+000	1,1358541E+000	-1,026548048958709E-002	1,000000000000000E+000	-2,2560851E-001	41	-1,1660089E-005
2	0	0	1	0	1,629982704036841E+005	1,1564707E+000	1,1558348E+000	-7,364598029370277E-003	1,000000000000000E+000	-2,2589514E-001	41	-8,5122583E-006
2	0	0	1	0	1,630315903088998E+005	1,1764624E+000	1,1758548E+000	-5,004972111180554E-003	1,000000000000000E+000	-2,2609508E-001	42	-5,8851206E-006
2	0	0	1	0	1,630649100141104E+005	1,1964543E+000	1,1958352E+000	-3,122312052273642E-003	1,000000000000000E+000	-2,2622435E-001	42	-3,7337707E-006
2	0	0	1	0	1,630982298193267E+005	1,2164462E+000	1,2158139E+000	-1,535181226925690E-003	1,000000000000000E+000	-2,2629598E-001	42	-1,8664946E-006
2	0	0	1	0	1,631315496245376E+005	1,2364379E+000	1,2358032E+000	-1,404979254613819E-004	1,000000000000000E+000	-2,2631902E-001	43	-1,7362780E-007
2	1	0	1	0	1,631648693297524E+005	1,2564298E+000	1,2557707E+000	9,846313624131914E-004	1,000000000000000E+000	-2,2630091E-001	42	1,2364712E-006
2	1	0	1	0	1,631981890349644E+005	1,2764217E+000	1,2757286E+000	1,999264058322028E-003	1,000000000000000E+000	-2,2624615E-001	42	2,5505183E-006
2	1	0	1	0	1,632315089401784E+005	1,2964134E+000	1,2957463E+000	2,938927013808282E-003	1,000000000000000E+000	-2,2615850E-001	42	3,8081039E-006
2	1	0	0	0	1,632648287453910E+005	1,3164053E+000	1,3157120E+000	3,808319887861289E-003	1,000000000000000E+000	-2,2604081E-001	42	5,0106519E-006
2	1	0	1	0	1,632981485506049E+005	1,3363972E+000	1,3356770E+000	4,685348034550202E-003	1,000000000000000E+000	-2,2589429E-001	42	6,2581116E-006
2	1	0	1	0	1,633314682558177E+005	1,3563889E+000	1,3556564E+000	5,561737904042033E-003	1,000000000000000E+000	-2,2571880E-001	42	7,5398057E-006
2	1	0	1	0	1,633647879610308E+005	1,3763808E+000	1,3756658E+000	6,523678669722158E-003	1,000000000000000E+000	-2,2551258E-001	42	8,9744017E-006
2	1	0	1	0	1,633981076662444E+005	1,3963726E+000	1,3956751E+000	7,579692908464275E-003	1,000000000000000E+000	-2,2527328E-001	42	1,0578789E-005
2	1	0	1	0	1,634314276714572E+005	1,4163644E+000	1,4156888E+000	8,785926745450033E-003	1,000000000000000E+000	-2,2499631E-001	42	1,2438138E-005
2	1	0	1	0	1,634647474766718E+005	1,4363564E+000	1,4357219E+000	1,022089632758576E-002	1,000000000000000E+000	-2,2467507E-001	41	1,4674364E-005
2	1	0	1	0	1,634980671818829E+005	1,4563482E+000	1,4556998E+000	1,187909015664407E-002	1,000000000000000E+000	-2,2430223E-001	41	1,7292388E-005
2	1	0	1	0	1,635313868870991E+005	1,4763399E+000	1,4756774E+000	1,381421746084920E-002	1,000000000000000E+000	-2,2386959E-001	41	2,0385329E-005
2	1	0	1	0	1,635647066923096E+005	1,4963319E+000	1,4956838E+000	1,624220744021415E-002	1,000000000000000E+000	-2,2336550E-001	41	2,4293206E-005
2	1	0	1	0	1,635980264975256E+005	1,5163237E+000	1,5156367E+000	1,978285620035047E-002	1,000000000000000E+000	-2,2276448E-001	41	2,9983623E-005
2	1	0	1	0	1,636313464027366E+005	1,5363156E+000	1,5356258E+000	2,567657316560423E-002	1,000000000000000E+000	-2,2200987E-001	41	3,9429608E-005
2	1	0	0	0	1,636646662079515E+005	1,5563073E+000	1,5556033E+000	3,606759283372829E-002	1,000000000000000E+000	-2,2099127E-001	41	5,6106866E-005
2	1	0	1	0	1,636979859131635E+005	1,5762993E+000	1,5755775E+000	5,339489433570649E-002	1,000000000000000E+000	-2,1952569E-001	41	8,4127794E-005
2	1	0	1	0	1,637313057183777E+005	1,5962912E+000	1,5956517E+000	1,140708065311491E-001	1,000000000000000E+000	-2,1691208E-001	40	1,8201728E-004
2	1	0	1	0	1,637646255235901E+005	1,6162829E+000	1,6156291E+000	2,050072344882228E-001	1,000000000000000E+000	-2,1160960E-001	40	3,3121565E-004
2	1	0	1	0	1,637979452288039E+005	1,6362748E+000	1,6355956E+000	3,064884868328421E-001	1,000000000000000E+000	-2,0312110E-001	40	5,0129119E-004
2	1	0	1	0	1,638312651340168E+005	1,6562666E+000	1,6555605E+000	4,317739419141517E-001	1,000000000000000E+000	-1,9090009E-001	40	7,1482785E-004
2	1	0	0	0	1,638645848392299E+005	1,6762584E+000	1,6755410E+000	6,007695198597474E-001	1,000000000000000E+000	-1,7383188E-001	40	1,0066140E-003
2	1	0	1	0	1,638979047444435E+005	1,6962503E+000	1,6955318E+000	8,278738496403157E-001	1,000000000000000E+000	-1,5015070E-001	40	1,4036865E-003
2	1	0	0	0	1,639312244496560E+005	1,7162422E+000	1,7156316E+000	1,054558279215803E+000	1,000000000000000E+000	-1,1857921E-001	39	1,8092336E-003
2	1	0	1	0	1,639645442548709E+005	1,7362339E+000	1,7356174E+000	1,091828110843969E+000	1,000000000000000E+000	-8,1905574E-002	39	1,8949959E-003
2	1	0	1	0	1,639978640600820E+005	1,7562259E+000	1,7555985E+000	7,680353780772364E-001	1,000000000000000E+000	-5,0078016E-002	39	1,3483618E-003
2	1	0	1	0	1,640311838652981E+005	1,7762177E+000	1,7755126E+000	3,470165943227297E-001	1,000000000000000E+000	-3,1749848E-002	40	6,1613234E-004
2	1	0	1	0	1,640645035705087E+005	1,7962096E+000	1,7956048E+000	1,302278953424748E-001	1,000000000000000E+000	-2,4546018E-002	40	2,3383784E-004
2	1	0	1	0	1,640978233757247E+005	1,8162012E+000	1,8155564E+000	7,773784371747572E-002	1,000000000000000E+000	-2,1234833E-002	40	1,4113744E-004
2	1	0	1	0	1,641311431809359E+005	1,8361931E+000	1,8355871E+000	5,670250228078917E-002	1,000000000000000E+000	-1,9018732E-002	40	1,0408238E-004
2	1	0	1	0	1,641644628861505E+005	1,8561850E+000	1,8555218E+000	4,556448525772616E-002	1,000000000000000E+000	-1,7318292E-002	41	8,4545893E-005
2	1	0	0	0	1,641977826913625E+005	1,8761768E+000	1,8755386E+000	3,881899523690191E-002	1,000000000000000E+000	-1,5904341E-002	41	7,2806521E-005
2	1	0	1	0	1,642311025965768E+005	1,8961686E+000	1,8954957E+000	3,355669688086355E-002	1,000000000000000E+000	-1,4685035E-002	41	6,3606574E-005
2	1	0	1	0	1,642644224017892E+005	1,9161605E+000	1,9155321E+000	2,871101148066861E-002	1,000000000000000E+000	-1,3635096E-002	41	5,4996864E-005
2	1	0	1	0	1,642977422070033E+005	1,9361526E+000	1,9355301E+000	2,530651468611889E-002	1,000000000000000E+000	-1,2722093E-002	41	4,8981521E-005
2	1	0	0	0	1,643310619122159E+005	1,9561443E+000	1,9555234E+000	2,255929886105051E-002	1,000000000000000E+000	-1,1908625E-002	41	4,4115237E-005
2	1	0	1	0	1,643643816174292E+005	1,9761361E+000	1,9755064E+000	2,012898996612689E-002	1,000000000000000E+000	-1,1185058E-002	41	3,9764949E-005
2	1	0	1	0	1,643977014226426E+005	1,9961280E+000	1,9954989E+000	1,892997110456618E-002	1,000000000000000E+000	-1,0520413E-002	41	3,7774735E-005
2	1	0	1	0	1,644310215278552E+005	2,0161197E+000	2,0154819E+000	1,808634816668589E-002	1,000000000000000E+000	-9,8885074E-003	41	3,6452708E-005
2	1	0	1	0	1,644643413330698E+005	2,0361116E+000	2,0354946E+000	1,727729799161393E-002	1,000000000000000E+000	-9,2842821E-003	41	3,5167846E-005
2	1	0	1	0	1,644976608382813E+005	2,0561032E+000	2,0554490E+000	1,645038402850080E-002	1,000000000000000E+000	-8,7070325E-003	41	3,3812925E-005
2	1	0	1	0	1,645309806434973E+005	2,0760951E+000	2,0754709E+000	1,561916096282140E-002	1,000000000000000E+000	-8,1570651E-003	41	3,2417116E-005
2	1	0	1	0	1,645643004487078E+005	2,0960870E+000	2,0954185E+000	1,456240906238593E-002	1,000000000000000E+000	-7,6395068E-003	41	3,0514340E-005
2	1	0	1	0	1,645976202539238E+005	2,1160789E+000	2,1154563E+000	1,391226163659547E-002	1,000000000000000E+000	-7,1503748E-003	41	2,9430783E-005
2	1	0	1	0	1,646309404591348E+005	2,1360707E+000	2,1354146E+000	1,328707178604677E-002	1,000000000000000E+000	-6,6815619E-003	41	2,8373408E-005
2	1	0	1	0	1,646642601643498E+005	2,1560628E+000	2,1554153E+000	1,240698764098772E-002	1,000000000000000E+000	-6,2387963E-003	41	2,6742211E-005
2	1	0	1	0	1,646975799695615E+005	2,1760545E+000	2,1754169E+000	1,198606697192584E-002	1,000000000000000E+000	-5,8176992E-003	41	2,6074693E-005
2	1	0	1	0	1,647308995747757E+005	2,1960461E+000	2,1954348E+000	1,167880420784512E-002	1,000000000000000E+000	-5,4083802E-003	41	2,5640053E-005
2	1	0	1	0	1,647642193799883E+005	2,2160382E+000	2,2153797E+000	1,140181111464597E-002	1,000000000000000E+000	-5,0088721E-003	41	2,5259342E-005
2	1	0	1	0	1,647975391852017E+005	2,2360301E+000	2,2353737E+000	1,114119075467548E-002	1,000000000000000E+000	-4,6181637E-003	41	2,4904724E-005
2	1	0	1	0	1,648308591904150E+005	2,2560220E+000	2,2553759E+000	1,090420264858388E-002	1,000000000000000E+000	-4,2359456E-003	41	2,4593075E-005
2	1	0	1	0	1,648641789956284E+005	2,2760136E+000	2,2753744E+000	1,067356322814017E-002	1,000000000000000E+000	-3,8614178E-003	41	2,4286353E-005
2	1	0	1	0	1,648974988008416E+005	2,2960055E+000	2,2954137E+000	1,046909840991077E-002	1,000000000000000E+000	-3,4941367E-003	41	2,4030913E-005
2	1	0	1	0	1,649308186060544E+005	2,3159974E+000	2,3153882E+000	1,028468842490061E-002	1,000000000000000E+000	-3,1335778E-003	41	2,3813047E-005
2	1	0	1	0	1,649641384112688E+005	2,3359892E+000	2,3353677E+000	1,011758736410423E-002	1,000000000000000E+000	-2,7788961E-003	41	2,3628287E-005
2	1	0	1	0	1,649974582164804E+005	2,3559811E+000	2,3553529E+000	9,968923553090495E-003	1,000000000000000E+000	-2,4294998E-003	41	2,3480332E-005
2	1	0	1	0	1,650307782216959E+005	2,3759727E+000	2,3753374E+000	9,832090672529733E-003	1,000000000000000E+000	-2,0847877E-003	41	2,3354532E-005
2	1	0	1	0	1,650640980269066E+005	2,3959649E+000	2,3953600E+000	9,734004787837151E-003	1,000000000000000E+000	-1,7438479E-003	41	2,3316446E-005
2	1	0	1	0	1,650974178321231E+005	2,4159565E+000	2,4153280E+000	9,658613292359987E-003	1,000000000000000E+000	-1,4060884E-003	41	2,3328719E-005
2	1	0	1	0	1,651307376373336E+005	2,4359484E+000	2,4353335E+000	9,578503825022539E-003	1,000000000000000E+000	-1,0707756E-003	41	2,3326851E-005
2	1	0	1	0	1,651640572425490E+005	2,4559402E+000	2,4553020E+000	9,523440981723190E-003	1,000000000000000E+000	-7,3747442E-004	41	2,3382923E-005
2	1	0	1	0	1,651973769477608E+005	2,4759321E+000	2,4753020E+000	9,502758152045224E-003	1,000000000000000E+000	-4,0530154E-004	41	2,3522196E-005
2	1	0	1	0	1,652306971529755E+005	2,4959240E+000	2,4953167E+000	9,535837821045161E-003	1,000000000000000E+000	-7,3572759E-005	41	2,3794935E-005
2	1	0	1	0	1,652640169581875E+005	2,5159159E+000	2,5153105E+000	9,553801089407912E-003	1,000000000000000E+000	2,5864763E-004	41	2,4030776E-005
2	1	0	1	0	1,652973367634015E+005	2,5359077E+000	2,5353172E+000	9,588397750656563E-003	1,000000000000000E+000	5,9187354E-004	41	2,4309629E-005
2	1	0	1	0	1,653306565686141E+005	2,5558996E+000	2,5552759E+000	9,645062560600347E-003	1,000000000000000E+000	9,2666689E-004	41	2,4645797E-005
2	1	0	1	0	1,653639760738276E+005	2,5758913E+000	2,5752957E+000	9,755983836011062E-003	1,000000000000000E+000	1,2640961E-003	41	2,5124544E-005
2	1	0	1	0	1,653972958790407E+005	2,5958831E+000	2,5952902E+000	9,861215761856446E-003	1,000000000000000E+000	1,6049835E-003	41	2,5592717E-005
2	1	0	1	0	1,654306160842539E+005	2,6158750E+000	2,6152861E+000	1,000866415654597E-002	1,000000000000000E+000	1,9501759E-003	41	2,6175521E-005
2	1	0	1	0	1,654639356894675E+005	2,6358669E+000	2,6352501E+000	1,017775924054404E-002	1,000000000000000E+000	2,3004301E-003	41	2,6820941E-005
2	1	0	1	0	1,654972554946798E+005	2,6558588E+000	2,6552875E+000	1,035558411652898E-002	1,000000000000000E+000	2,6564689E-003	41	2,7497053E-005
2	1	0	1	0	1,655305752998949E+005	2,6758506E+000	2,6752205E+000	1,057291085990536E-002	1,000000000000000E+000	3,0193620E-003	41	2,8284867E-005
2	1	0	1	0	1,655638951051058E+005	2,6958425E+000	2,6952286E+000	1,085367556541056E-002	1,000000000000000E+000	3,3904631E-003	41	2,9253137E-005
2	1	0	1	1	1,655950491099809E+005	2,6854465E+000	2,6847990E+000	6,154152602133350E-003	1,000000000000000E+000	3,6424112E-003	41	1,6522663E-005
2	1	0	1	1	1,656283689151956E+005	2,6654551E+000	2,6648076E+000	3,915922394920862E-003	1,000000000000000E+000	3,7928766E-003	42	1,0435179E-005
2	1	0	1	1	1,656616887204078E+005	2,6454632E+000	2,6448159E+000	2,631984997317011E-003	1,000000000000000E+000	3,8877507E-003	42	6,9611160E-006
2	1	0	1	1	1,656950085256216E+005	2,6254711E+000	2,6248496E+000	1,755248632375969E-003	1,000000000000000E+000	3,9471672E-003	42	4,6072637E-006
2	1	0	1	1	1,657283283308345E+005	2,6054790E+000	2,6048310E+000	1,085531781848311E-003	1,000000000000000E+000	3,9810627E-003	42	2,8276268E-006
2	1	0	1	1	1,657616480360483E+005	2,5854874E+000	2,5848610E+000	5,585609402144159E-004	1,000000000000000E+000	3,9952081E-003	42	1,4438024E-006
2	1	0	1	1	1,657949676412612E+005	2,5654960E+000	2,5648825E+000	1,217196285227735E-004	1,000000000000000E+000	3,9936588E-003	42	3,1219653E-007
2	0	0	1	1	1,658282874464742E+005	2,5455041E+000	2,5449095E+000	-2,395561595677744E-004	1,000000000000000E+000	3,9788764E-003	42	-6,0964874E-007
2	0	0	1	1	1,658616072516884E+005	2,5255120E+000	2,5249114E+000	-5,626215065555893E-004	1,000000000000000E+000	3,9526545E-003	42	-1,4205694E-006
2	0	0	1	1	1,658949268569001E+005	2,5055201E+000	2,5049310E+000	-8,494889256023021E-004	1,000000000000000E+000	3,9166282E-003	42	-2,1279111E-006
2	0	0	1	1	1,659282466621157E+005	2,4855285E+000	2,4849415E+000	-1,092240565335683E-003	1,000000000000000E+000	3,8716840E-003	42	-2,7141539E-006
2	0	0	1	1	1,659615663673263E+005	2,4655364E+000	2,4649549E+000	-1,313426637558695E-003	1,000000000000000E+000	3,8186703E-003	42	-3,2375374E-006
2	0	0	1	1	1,659948861725423E+005	2,4455447E+000	2,4449830E+000	-1,546651750218165E-003	1,000000000000000E+000	3,7581730E-003	42	-3,7815373E-006
2	0	0	1	1	1,660282059777533E+005	2,4255528E+000	2,4249859E+000	-1,755305455836031E-003	1,000000000000000E+000	3,6906602E-003	42	-4,2565912E-006
2	0	0	1	1	1,660615257829684E+005	2,4055610E+000	2,4049921E+000	-1,952269944266123E-003	1,000000000000000E+000	3,6165167E-003	42	-4,6951936E-006
2	0	0	1	1	1,660948455881801E+005	2,3855691E+000	2,3850148E+000	-2,136153816492695E-003	1,000000000000000E+000	3,5358428E-003	42	-5,0947583E-006
2	0	0	1	1	1,661281651933943E+005	2,3655772E+000	2,3649931E+000	-2,315909154438566E-003	1,000000000000000E+000	3,4489874E-003	42	-5,4771090E-006
2	0	0	1	1	1,661614849986069E+005	2,3455853E+000	2,3450224E+000	-2,526828069580588E-003	1,000000000000000E+000	3,3558859E-003	42	-5,9254685E-006
2	0	0	1	1	1,661948048038203E+005	2,3255935E+000	2,3250141E+000	-2,696466060594482E-003	1,000000000000000E+000	3,2566041E-003	42	-6,2693216E-006
2	0	0	1	1	1,662281244090336E+005	2,3056018E+000	2,3050420E+000	-2,899177986011109E-003	1,000000000000000E+000	3,1508552E-003	42	-6,6827270E-006
2	0	0	1	1	1,662614442142467E+005	2,2856100E+000	2,2850144E+000	-3,098742051018330E-003	1,000000000000000E+000	3,0385070E-003	42	-7,0806700E-006
2	0	0	1	1	1,662947640194602E+005	2,2656181E+000	2,2650859E+000	-3,319238656346146E-003	1,000000000000000E+000	2,9191785E-003	42	-7,5183607E-006
2	0	0	1	1	1,663280838246727E+005	2,2456262E+000	2,2450647E+000	-3,529930353003155E-003	1,000000000000000E+000	2,7925735E-003	42	-7,9249221E-006
2	0	0	1	1	1,663614036298876E+005	2,2256343E+000	2,2250967E+000	-3,768588319761179E-003	1,000000000000000E+000	2,6584514E-003	42	-8,3854738E-006
2	0	0	1	1	1,663947234350988E+005	2,2056425E+000	2,2050927E+000	-4,007944971029465E-003	1,000000000000000E+000	2,5163887E-003	42	-8,8378902E-006
2	0	0	1	1	1,664280430403149E+005	2,1856506E+000	2,1850858E+000	-4,260449625616194E-003	1,000000000000000E+000	2,3659680E-003	42	-9,3094477E-006
2	0	0	1	1	1,664613628455254E+005	2,1656587E+000	2,1650832E+000	-4,547739263384226E-003	1,000000000000000E+000	2,2066429E-003	42	-9,8462333E-006
2	0	0	1	1	1,664946825507414E+005	2,1456668E+000	2,1451352E+000	-4,826373532489200E-003	1,000000000000000E+000	2,0380076E-003	42	-1,0353224E-005
2	0	0	1	1	1,665280023559527E+005	2,1256754E+000	2,1251454E+000	-5,131108351845520E-003	1,000000000000000E+000	1,8596692E-003	42	-1,0904351E-005
2	0	0	1	1	1,665613219611673E+005	2,1056833E+000	2,1051481E+000	-5,450163289036206E-003	1,000000000000000E+000	1,6707812E-003	42	-1,1473401E-005
2	0	0	1	1	1,665946417663794E+005	2,0856915E+000	2,0851307E+000	-5,818082883322528E-003	1,000000000000000E+000	1,4707696E-003	42	-1,2131463E-005
2	0	0	1	1	1,666279615715933E+005	2,0656993E+000	2,0651739E+000	-6,197643780732343E-003	1,000000000000000E+000	1,2587964E-003	42	-1,2799212E-005
2	0	0	1	1	1,666612812768060E+005	2,0457077E+000	2,0451479E+000	-6,589119130821719E-003	1,000000000000000E+000	1,0338482E-003	42	-1,3475723E-005
2	0	0	1	1	1,666946010820195E+005	2,0257156E+000	2,0252194E+000	-7,032236083607592E-003	1,000000000000000E+000	7,9474476E-004	42	-1,4241821E-005
2	0	0	1	1	1,667279208872326E+005	2,0057237E+000	2,0052066E+000	-7,545296753558223E-003	1,000000000000000E+000	5,3969544E-004	42	-1,5129879E-005
2	0	0	1	1	1,667612406924455E+005	1,9857323E+000	1,9851897E+000	-8,117540649499919E-003	1,000000000000000E+000	2,6655995E-004	42	-1,6114858E-005
2	0	0	1	1	1,667945603976594E+005	1,9657403E+000	1,9651191E+000	-8,726037870556425E-003	1,000000000000000E+000	-2,6841266E-005	41	-1,7147704E-005
2	0	0	1	1	1,668278802028717E+005	1,9457484E+000	1,9451293E+000	-9,385195592438032E-003	1,000000000000000E+000	-3,4246169E-004	41	-1,8255419E-005
2	0	0	1	1	1,668612000080871E+005	1,9257568E+000	1,9251399E+000	-1,006439320832438E-002	1,000000000000000E+000	-6,8100286E-004	41	-1,9375366E-005
2	0	0	0	1	1,668945197132980E+005	1,9057649E+000	1,9051331E+000	-1,079347300819050E-002	1,000000000000000E+000	-1,0429790E-003	41	-2,0563002E-005
2	0	0	1	1	1,669278394185142E+005	1,8857732E+000	1,8851461E+000	-1,157927742956399E-002	1,000000000000000E+000	-1,4296863E-003	41	-2,1828630E-005
2	0	0	1	1	1,669593267234388E+005	1,8668807E+000	1,8662325E+000	-1,240126805334239E-002	2,000000000000000E+000	-1,8202034E-003	41	-2,3143650E-005
2	0	0	0	1	1,669926463286513E+005	1,8468887E+000	1,8462739E+000	-1,328938328610199E-002	2,000000000000000E+000	-2,2620272E-003	41	-2,4535842E-005
2	0	0	1	1	1,670259661338662E+005	1,8268970E+000	1,8262488E+000	-1,409347491121246E-002	2,000000000000000E+000	-2,7330103E-003	41	-2,5738191E-005
2	0	0	1	1	1,670592859390774E+005	1,8069052E+000	1,8062969E+000	-1,494760776685689E-002	2,000000000000000E+000	-3,2305678E-003	41	-2,6999818E-005
2	0	0	1	1	1,670926056442936E+005	1,7869134E+000	1,7863019E+000	-1,580499241912914E-002	2,000000000000000E+000	-3,7565471E-003	41	-2,8232487E-005
2	0	0	1	1	1,671259253495040E+005	1,7669214E+000	1,7663240E+000	-1,667470640131161E-002	2,000000000000000E+000	-4,3118689E-003	41	-2,9452935E-005
2	0	0	0	1	1,671592451547198E+005	1,7469298E+000	1,7463211E+000	-1,747799853181768E-002	2,000000000000000E+000	-4,8951269E-003	41	-3,0522198E-005
2	0	0	1	1	1,671925648599314E+005	1,7269378E+000	1,7263466E+000	-1,835669243864857E-002	2,000000000000000E+000	-5,5063777E-003	41	-3,1690015E-005
2	0	0	1	1	1,672258845651457E+005	1,7069459E+000	1,7063406E+000	-1,946345393654186E-002	2,000000000000000E+000	-6,1497870E-003	41	-3,3211280E-005
2	0	0	1	1	1,672592043703579E+005	1,6869543E+000	1,6863763E+000	-2,107465529553365E-002	2,000000000000000E+000	-6,8375249E-003	41	-3,5539801E-005
2	0	0	1	1	1,672925241755717E+005	1,6669625E+000	1,6663376E+000	-2,357767575597186E-002	2,000000000000000E+000	-7,5924774E-003	41	-3,9288367E-005
2	0	0	1	1	1,673258439807846E+005	1,6469706E+000	1,6463569E+000	-2,733394225835739E-002	2,000000000000000E+000	-8,4498338E-003	41	-4,5001427E-005
2	0	0	1	1	1,673591636859984E+005	1,6269786E+000	1,6263560E+000	-3,303941286387313E-002	2,000000000000000E+000	-9,4644381E-003	41	-5,3733849E-005
2	0	0	1	1	1,673924834912113E+005	1,6069866E+000	1,6064124E+000	-4,118905554756397E-002	2,000000000000000E+000	-1,0706709E-002	41	-6,6166613E-005
2	0	0	1	1	1,674258032964244E+005	1,5869950E+000	1,5863991E+000	-5,254685782352264E-002	2,000000000000000E+000	-1,2273847E-002	41	-8,3360290E-005
2	0	0	0	1	1,674591230016381E+005	1,5670030E+000	1,5664636E+000	-6,908299643626270E-002	2,000000000000000E+000	-1,4295964E-002	41	-1,0821600E-004
2	0	0	1	1	1,674924428068502E+005	1,5470111E+000	1,5464778E+000	-1,005675822483312E-001	2,000000000000000E+000	-1,7059650E-002	41	-1,5552553E-004
2	0	0	1	1	1,675257625120657E+005	1,5270193E+000	1,5264262E+000	-2,023210323845470E-001	2,000000000000000E+000	-2,1862309E-002	40	-3,0882814E-004
2	0	0	1	1	1,675590823172764E+005	1,5070275E+000	1,5064284E+000	-3,171300373620287E-001	2,000000000000000E+000	-3,0652089E-002	40	-4,7773367E-004
2	0	0	1	1	1,675924021224924E+005	1,4870356E+000	1,4864682E+000	-3,866381046956452E-001	2,000000000000000E+000	-4,2521160E-002	40	-5,7472527E-004
2	0	0	1	1	1,676257218277033E+005	1,4670438E+000	1,4664888E+000	-4,145797978338805E-001	2,000000000000000E+000	-5,5986691E-002	40	-6,0797663E-004
2	0	0	1	1	1,676590415329188E+005	1,4470519E+000	1,4465085E+000	-4,128973046175819E-001	2,000000000000000E+000	-6,9853872E-002	40	-5,9725950E-004
2	0	0	1	1	1,676923613381304E+005	1,4270601E+000	1,4265110E+000	-3,940963580028800E-001	2,000000000000000E+000	-8,3344102E-002	40	-5,6218280E-004
2	0	0	1	1	1,677256810433446E+005	1,4070683E+000	1,4065104E+000	-3,681863870548840E-001	2,000000000000000E+000	-9,6066646E-002	40	-5,1785796E-004
2	0	0	1	1	1,677590007485572E+005	1,3870765E+000	1,3864942E+000	-3,407417997204538E-001	2,000000000000000E+000	-1,0789054E-001	40	-4,7243651E-004
2	0	0	1	1	1,677923205537712E+005	1,3670847E+000	1,3664994E+000	-3,144899874718654E-001	2,000000000000000E+000	-1,1881039E-001	40	-4,2975039E-004
2	0	0	1	1	1,678256402589837E+005	1,3470927E+000	1,3464965E+000	-2,905611042670362E-001	2,000000000000000E+000	-1,2889183E-001	40	-3,9123950E-004
2	0	0	0	1	1,678589600641970E+005	1,3271011E+000	1,3265204E+000	-2,704484701356513E-001	2,000000000000000E+000	-1,3824415E-001	40	-3,5875544E-004
2	0	0	1	1	1,678922797694104E+005	1,3071092E+000	1,3064955E+000	-2,516515909918495E-001	2,000000000000000E+000	-1,4694980E-001	40	-3,2878169E-004
2	0	0	1	1	1,679255994746229E+005	1,2871174E+000	1,2865298E+000	-2,338208192846363E-001	2,000000000000000E+000	-1,5504573E-001	40	-3,0081745E-004
2	0	0	1	1	1,679589191798375E+005	1,2671255E+000	1,2664973E+000	-2,167495077079380E-001	2,000000000000000E+000	-1,6255987E-001	40	-2,7451265E-004
2	0	0	1	1	1,679922389850491E+005	1,2471336E+000	1,2465442E+000	-2,002940281913768E-001	2,000000000000000E+000	-1,6951345E-001	40	-2,4967536E-004
2	0	0	1	1	1,680255587902647E+005	1,2271417E+000	1,2264879E+000	-1,849797088792156E-001	2,000000000000000E+000	-1,7593765E-001	40	-2,2687537E-004
2	0	0	1	1	1,680588785954753E+005	1,2071499E+000	1,2065463E+000	-1,703991695630123E-001	2,000000000000000E+000	-1,8186300E-001	40	-2,0559449E-004
2	0	0	0	1	1,680921983006913E+005	1,1871581E+000	1,1865343E+000	-1,566045392824447E-001	2,000000000000000E+000	-1,8731610E-001	40	-1,8581665E-004
2	0	0	1	1	1,681255180059029E+005	1,1671662E+000	1,1665411E+000	-1,435269815457527E-001	2,000000000000000E+000	-1,9232044E-001	40	-1,6743012E-004
2	0	0	1	1	1,681588378111175E+005	1,1471744E+000	1,1465501E+000	-1,311629840389750E-001	2,000000000000000E+000	-1,9690092E-001	40	-1,5038493E-004
2	0	0	1	1	1,681921576163296E+005	1,1271825E+000	1,1265409E+000	-1,199259421905223E-001	2,000000000000000E+000	-2,0108612E-001	40	-1,3510148E-004
2	0	0	1	1	1,682254773215433E+005	1,1071907E+000	1,1065835E+000	-1,097769120372021E-001	2,000000000000000E+000	-2,0491529E-001	40	-1,2147731E-004
2	0	0	1	1	1,682587971267563E+005	1,0871989E+000	1,0865650E+000	-1,008700455926621E-001	2,000000000000000E+000	-2,0842732E-001	40	-1,0960186E-004
2	0	0	1	1	1,682921168319699E+005	1,0672070E+000	1,0665710E+000	-9,326337384595429E-002	2,000000000000000E+000	-2,1166378E-001	40	-9,9472010E-005
2	0	0	1	1	1,683254366371828E+005	1,0472151E+000	1,0465492E+000	-8,726305003474466E-002	2,000000000000000E+000	-2,1467379E-001	40	-9,1325077E-005
2	0	0	1	1	1,683587563423957E+005	1,0272233E+000	1,0265849E+000	-8,283030342417685E-002	2,000000000000000E+000	-2,1750878E-001	40	-8,5032334E-005
2	0	0	1	1	1,683920760476096E+005	1,0072314E+000	1,0065888E+000	-8,020947778121956E-002	2,000000000000000E+000	-2,2022648E-001	40	-8,0737962E-005
2	0	0	1	1	1,684233972525098E+005	1,0115294E+000	1,0108970E+000	-5,915278788401568E-002	2,000000000000000E+000	-2,2247627E-001	40	-5,9797378E-005
2	0	0	1	1	1,684567170577232E+005	1,0315216E+000	1,0309197E+000	-4,256480869371548E-002	2,000000000000000E+000	-2,2414309E-001	41	-4,3880900E-005
2	0	0	1	1	1,684900368629359E+005	1,0515133E+000	1,0509071E+000	-3,142318090442114E-002	2,000000000000000E+000	-2,2535947E-001	41	-3,3022847E-005
2	0	0	1	1	1,685233565681502E+005	1,0715052E+000	1,0708852E+000	-2,328485903543132E-002	2,000000000000000E+000	-2,2625820E-001	41	-2,4935411E-005
2	0	0	0	1	1,685566763733616E+005	1,0914971E+000	1,0908806E+000	-1,714280811208231E-002	2,000000000000000E+000	-2,2692117E-001	41	-1,8700757E-005
2	0	0	1	1	1,685899960785778E+005	1,1114888E+000	1,1108338E+000	-1,250018398958827E-002	2,000000000000000E+000	-2,2740573E-001	41	-1,3885627E-005
2	0	0	1	1	1,686233158837885E+005	1,1314807E+000	1,1308719E+000	-8,873993800639413E-003	2,000000000000000E+000	-2,2775325E-001	41	-1,0035350E-005
2	0	0	1	1	1,686566356890043E+005	1,1514726E+000	1,1508267E+000	-6,045142938029088E-003	2,000000000000000E+000	-2,2799386E-001	41	-6,9569119E-006
2	0	0	0	1	1,686899555942155E+005	1,1714644E+000	1,1708639E+000	-3,743320659649874E-003	2,000000000000000E+000	-2,2814932E-001	42	-4,3829191E-006
2	0	0	1	1	1,687232753994302E+005	1,1914563E+000	1,1908457E+000	-1,937480952685575E-003	2,000000000000000E+000	-2,2823758E-001	42	-2,3072409E-006
2	0	0	1	1	1,687565951046424E+005	1,2114482E+000	1,2108685E+000	-3,490228630130474E-004	2,000000000000000E+000	-2,2827061E-001	43	-4,2262079E-007
2	1	0	1	1	1,687899149098564E+005	1,2314399E+000	1,2308226E+000	8,424831448166272E-004	2,000000000000000E+000	-2,2825828E-001	42	1,0369473E-006
2	1	0	1	1	1,688232347150690E+005	1,2514319E+000	1,2507734E+000	1,906808388251427E-003	2,000000000000000E+000	-2,2820702E-001	42	2,3849852E-006
2	1	0	1	1	1,688565544202821E+005	1,2714237E+000	1,2707466E+000	2,849770859047057E-003	2,000000000000000E+000	-2,2812223E-001	42	3,6213366E-006
2	1	0	1	1	1,688898742254956E+005	1,2914156E+000	1,2907505E+000	3,703438299467239E-003	2,000000000000000E+000	-2,2800753E-001	42	4,7802150E-006
2	1	0	1	1	1,689231940307086E+005	1,3114074E+000	1,3107332E+000	4,524651968094293E-003	2,000000000000000E+000	-2,2786517E-001	42	5,9306117E-006
2	1	0	0	1	1,689565138359222E+005	1,3313992E+000	1,3306829E+000	5,298265938451008E-003	2,000000000000000E+000	-2,2769649E-001	42	7,0503115E-006
2	1	0	1	1	1,689898335411348E+005	1,3513910E+000	1,3506864E+000	6,099017151023595E-003	2,000000000000000E+000	-2,2750103E-001	42	8,2378601E-006
2	1	0	1	1	1,690231533463495E+005	1,3713828E+000	1,3706827E+000	6,967817938080153E-003	2,000000000000000E+000	-2,2727786E-001	42	9,5506675E-006
2	1	0	1	1	1,690564730515606E+005	1,3913746E+000	1,3906515E+000	7,941703598879496E-003	2,000000000000000E+000	-2,2702433E-001	42	1,1044142E-005
2	1	0	1	1	1,690897929567769E+005	1,4113663E+000	1,4106362E+000	9,068180831242363E-003	2,000000000000000E+000	-2,2673599E-001	42	1,2791904E-005
2	1	0	1	1	1,691231127619876E+005	1,4313583E+000	1,4306765E+000	1,035929918329649E-002	2,000000000000000E+000	-2,2640687E-001	41	1,4820806E-005
2	1	0	1	1	1,691564324672031E+005	1,4513502E+000	1,4506584E+000	1,185165283282894E-002	2,000000000000000E+000	-2,2603145E-001	41	1,7192700E-005
2	1	0	1	1	1,691897522724147E+005	1,4713420E+000	1,4706582E+000	1,361157527346279E-002	2,000000000000000E+000	-2,2560188E-001	41	2,0017975E-005
2	1	0	1	1	1,692230719776293E+005	1,4913340E+000	1,4906698E+000	1,574775625933222E-002	2,000000000000000E+000	-2,2510853E-001	41	2,3474706E-005
2	1	0	1	1	1,692563917828415E+005	1,5113257E+000	1,5106690E+000	1,883910649143300E-002	2,000000000000000E+000	-2,2453055E-001	41	2,8459654E-005
2	1	0	1	1	1,692897117880555E+005	1,5313176E+000	1,5306400E+000	2,401005766543679E-002	2,000000000000000E+000	-2,2381847E-001	41	3,6750756E-005
2	1	0	1	1	1,693230314932681E+005	1,5513095E+000	1,5506154E+000	3,327173308458387E-002	2,000000000000000E+000	-2,2287412E-001	41	5,1591662E-005
2	1	0	1	1	1,693563511984819E+005	1,5713012E+000	1,5705920E+000	4,862337694976793E-002	2,000000000000000E+000	-2,2152273E-001	41	7,6367491E-005
2	1	0	1	1	1,693896710036947E+005	1,5912930E+000	1,5905384E+000	9,843341130056893E-002	2,000000000000000E+000	-2,1926653E-001	41	1,5656212E-004
2	1	0	1	1	1,694229908089079E+005	1,6112850E+000	1,6105907E+000	1,927622026025739E-001	2,000000000000000E+000	-2,1443409E-001	40	3,1046101E-004
2	1	0	0	1	1,694563105141215E+005	1,6312770E+000	1,6305817E+000	2,974474987511733E-001	2,000000000000000E+000	-2,0629355E-001	40	4,8501245E-004
2	1	0	1	1	1,694896305193338E+005	1,6512687E+000	1,6505605E+000	4,233806072047215E-001	2,000000000000000E+000	-1,9435649E-001	40	6,9881533E-004
2	1	0	1	1	1,695229502245486E+005	1,6712606E+000	1,6705147E+000	5,923783079468699E-001	2,000000000000000E+000	-1,7757514E-001	40	9,8957669E-004
2	1	0	1	1	1,695562701297598E+005	1,6912525E+000	1,6905123E+000	8,213980752233776E-001	2,000000000000000E+000	-1,5415709E-001	40	1,3885836E-003
2	1	0	1	1	1,695895897349762E+005	1,7112442E+000	1,7106053E+000	1,058311608840430E+000	2,000000000000000E+000	-1,2266014E-001	39	1,8103534E-003
2	1	0	0	1	1,696229095401866E+005	1,7312362E+000	1,7305895E+000	1,122183235094958E+000	2,000000000000000E+000	-8,5452616E-002	39	1,9420385E-003
2	1	0	1	1	1,696562293454022E+005	1,7512280E+000	1,7505790E+000	8,013759513033758E-001	2,000000000000000E+000	-5,2396026E-002	39	1,4028719E-003
2	1	0	1	1	1,696895492506139E+005	1,7712197E+000	1,7705288E+000	3,491423749902178E-001	2,000000000000000E+000	-3,3500306E-002	40	6,1816664E-004
2	1	0	1	1	1,697228689558282E+005	1,7912114E+000	1,7905494E+000	1,310086551075403E-001	2,000000000000000E+000	-2,6308917E-002	40	2,3457747E-004
2	1	0	0	1	1,697561887610406E+005	1,8112034E+000	1,8105767E+000	7,951620241048175E-002	2,000000000000000E+000	-2,2945341E-002	40	1,4397019E-004
2	1	0	1	1	1,697895084662545E+005	1,8311951E+000	1,8305459E+000	5,817139745002686E-002	2,000000000000000E+000	-2,0674404E-002	40	1,0648542E-004
2	1	0	1	1	1,698229948714948E+005	1,8512869E+000	1,8505840E+000	4,663732530257858E-002	2,000000000000000E+000	-1,8923726E-002	41	8,6306289E-005
2	1	0	1	1	1,698563146767062E+005	1,8712788E+000	1,8706188E+000	3,959800305295072E-002	2,000000000000000E+000	-1,7480260E-002	41	7,4072770E-005
2	1	0	1	1	1,698896345819207E+005	1,8912709E+000	1,8905902E+000	3,434414380397494E-002	2,000000000000000E+000	-1,6234530E-002	41	6,4930704E-005
2	1	0	1	1	1,699229542871331E+005	1,9112625E+000	1,9106042E+000	2,946227558047246E-002	2,000000000000000E+000	-1,5155748E-002	41	5,6290748E-005
2	1	0	1	1	1,699562739923466E+005	1,9312543E+000	1,9305692E+000	2,579079651301375E-002	2,000000000000000E+000	-1,4222157E-002	41	4,9790917E-005
2	1	0	1	1	1,699895937975597E+005	1,9512463E+000	1,9505852E+000	2,301734724022511E-002	2,000000000000000E+000	-1,3393384E-002	41	4,4897297E-005
2	1	0	0	1	1,700229136027731E+005	1,9712383E+000	1,9705538E+000	2,042417747386441E-002	2,000000000000000E+000	-1,2655466E-002	41	4,0246941E-005
2	1	0	1	1	1,700562334079862E+005	1,9912301E+000	1,9905982E+000	1,895893136011062E-002	2,000000000000000E+000	-1,1986624E-002	41	3,7739614E-005
2	1	0	1	1	1,700895534131993E+005	2,0112219E+000	2,0105801E+000	1,805312140496726E-002	2,000000000000000E+000	-1,1354241E-002	41	3,6297246E-005
2	1	0	1	1	1,701228730184129E+005	2,0312133E+000	2,0306144E+000	1,723608989412850E-002	2,000000000000000E+000	-1,0750068E-002	41	3,4999852E-005
2	1	0	1	1	1,701561928236252E+005	2,0512054E+000	2,0505538E+000	1,641420586774789E-002	2,000000000000000E+000	-1,0173707E-002	41	3,3658212E-005
2	1	0	1	1	1,701895126288401E+005	2,0711970E+000	2,0705547E+000	1,556078310276460E-002	2,000000000000000E+000	-9,6250875E-003	41	3,2219454E-005
2	1	0	1	1	1,702228324340512E+005	2,0911891E+000	2,0905576E+000	1,452955376879242E-002	2,000000000000000E+000	-9,1087604E-003	41	3,0374869E-005
2	1	0	1	1	1,702561520392671E+005	2,1111808E+000	2,1105609E+000	1,386762076521872E-002	2,000000000000000E+000	-8,6207762E-003	41	2,9268458E-005
2	1	0	1	1	1,702894722444778E+005	2,1311729E+000	2,1305335E+000	1,326998711306132E-002	2,000000000000000E+000	-8,1530996E-003	41	2,8272152E-005
2	1	0	1	1	1,703227920496939E+005	2,1511645E+000	2,1505539E+000	1,237489418484478E-002	2,000000000000000E+000	-7,7105490E-003	41	2,6612877E-005
2	1	0	1	1	1,703561118549053E+005	2,1711566E+000	2,1705348E+000	1,196695718108887E-002	2,000000000000000E+000	-7,2901184E-003	41	2,5974698E-005
2	1	0	1	1	1,703894316601199E+005	2,1911485E+000	2,1905375E+000	1,165876031363278E-002	2,000000000000000E+000	-6,8814461E-003	41	2,5538951E-005
2	1	0	1	1	1,704227514653321E+005	2,2111404E+000	2,2105532E+000	1,138995587837026E-002	2,000000000000000E+000	-6,4825732E-003	41	2,5178104E-005
2	1	0	1	1	1,704560710705458E+005	2,2311320E+000	2,2305448E+000	1,111680056096684E-002	2,000000000000000E+000	-6,0927249E-003	41	2,4796522E-005
2	1	0	1	1	1,704893912757588E+005	2,2511239E+000	2,2504923E+000	1,086821827219578E-002	2,000000000000000E+000	-5,7112407E-003	41	2,4458843E-005
2	1	0	1	1	1,705227110809721E+005	2,2711160E+000	2,2704809E+000	1,062638804320742E-002	2,000000000000000E+000	-5,3375633E-003	41	2,4127010E-005
2	1	0	1	1	1,705560306861853E+005	2,2911074E+000	2,2904737E+000	1,041729763297318E-002	2,000000000000000E+000	-4,9714809E-003	41	2,3860546E-005
2	1	0	1	1	1,705893503913987E+005	2,3110993E+000	2,3104849E+000	1,023126653612422E-002	2,000000000000000E+000	-4,6123620E-003	41	2,3639186E-005
2	1	0	1	1	1,706226701966120E+005	2,3310912E+000	2,3304420E+000	1,003905210753744E-002	2,000000000000000E+000	-4,2593768E-003	41	2,3395429E-005
2	1	0	1	1	1,706559900018247E+005	2,3510830E+000	2,3504441E+000	9,894206311060860E-003	2,000000000000000E+000	-3,9119110E-003	41	2,3255780E-005
2	1	0	1	1	1,706893102070389E+005	2,3710749E+000	2,3704212E+000	9,767851677334079E-003	2,000000000000000E+000	-3,5690945E-003	41	2,3153922E-005
2	1	0	1	1	1,707226300122510E+005	2,3910668E+000	2,3904467E+000	9,669752694439489E-003	2,000000000000000E+000	-3,2300188E-003	41	2,3115028E-005
2	1	0	1	1	1,707559497174660E+005	2,4110587E+000	2,4104400E+000	9,577009004180216E-003	2,000000000000000E+000	-2,8940812E-003	41	2,3084805E-005
2	1	0	1	1	1,707892693226768E+005	2,4310503E+000	2,4304304E+000	9,520486271430179E-003	2,000000000000000E+000	-2,5607704E-003	41	2,3138879E-005
2	1	0	1	1	1,708225891278931E+005	2,4510422E+000	2,4504278E+000	9,459572539253169E-003	2,000000000000000E+000	-2,2294209E-003	41	2,3179999E-005
2	1	0	1	1	1,708559089331042E+005	2,4710340E+000	2,4704096E+000	9,436177170861697E-003	2,000000000000000E+000	-1,8993425E-003	41	2,3311222E-005
2	1	0	1	1	1,708892291383194E+005	2,4910262E+000	2,4903870E+000	9,442213266993654E-003	2,000000000000000E+000	-1,5699554E-003	41	2,3514765E-005
2	1	0	1	1	1,709225487435312E+005	2,5110178E+000	2,5104258E+000	9,462511128772621E-003	2,000000000000000E+000	-1,2403115E-003	41	2,3754932E-005
2	1	0	1	1	1,709558685487453E+005	2,5310097E+000	2,5303771E+000	9,502720915389742E-003	2,000000000000000E+000	-9,0997183E-004	41	2,4045468E-005
2	1	0	1	1	1,709891883539579E+005	2,5510013E+000	2,5503724E+000	9,557638363792285E-003	2,000000000000000E+000	-5,7818647E-004	41	2,4375537E-005
2	1	0	1	1	1,710225081591713E+005	2,5709934E+000	2,5703549E+000	9,622017223838653E-003	2,000000000000000E+000	-2,4396213E-004	41	2,4732000E-005
2	1	0	1	1	1,710558279643845E+005	2,5909855E+000	2,5903873E+000	9,749152900402208E-003	2,000000000000000E+000	9,3429691E-005	41	2,5254083E-005
2	1	0	1	1	1,710891481695985E+005	2,6109772E+000	2,6103508E+000	9,880391069047423E-003	2,000000000000000E+000	4,3480637E-004	41	2,5791287E-005
2	1	0	1	1	1,711224677748111E+005	2,6309690E+000	2,6303518E+000	1,002973507905521E-002	2,000000000000000E+000	7,8109564E-004	41	2,6381731E-005
2	1	0	1	1	1,711557875800240E+005	2,6509607E+000	2,6503332E+000	1,020397706751426E-002	2,000000000000000E+000	1,1329314E-003	41	2,7043940E-005
2	1	0	1	1	1,711891073852377E+005	2,6709526E+000	2,6703241E+000	1,039582978169269E-002	2,000000000000000E+000	1,4913741E-003	41	2,7760234E-005
2	1	0	1	1	1,712224269904499E+005	2,6909442E+000	2,6903424E+000	1,068469043580303E-002	2,000000000000000E+000	1,8577884E-003	41	2,8745477E-005
2	1	0	1	0	1,712534143952997E+005	2,6904449E+000	2,6898355E+000	6,942768761870000E-003	2,000000000000000E+000	2,1483121E-003	41	1,8674906E-005
2	1	0	1	0	1,712867342005124E+005	2,6704528E+000	2,6698046E+000	4,318106337711465E-003	2,000000000000000E+000	2,3166472E-003	42	1,1528500E-005
2	1	0	1	0	1,713200540057258E+005	2,6504610E+000	2,6498051E+000	2,872902289609430E-003	2,000000000000000E+000	2,4213931E-003	42	7,6126312E-006
2	1	0	1	0	1,713533738109390E+005	2,6304691E+000	2,6298594E+000	1,916089171115375E-003	2,000000000000000E+000	2,4872620E-003	42	5,0390454E-006
2	1	0	1	0	1,713866936161518E+005	2,6104770E+000	2,6098483E+000	1,211912632746540E-003	2,000000000000000E+000	2,5257608E-003	42	3,1629081E-006
2	1	0	1	0	1,714200134213658E+005	2,5904853E+000	2,5898690E+000	6,652019170617224E-004	2,000000000000000E+000	2,5434960E-003	42	1,7227858E-006
2	1	0	1	0	1,714533330265777E+005	2,5704935E+000	2,5698600E+000	2,149516428437267E-004	2,000000000000000E+000	2,5447465E-003	42	5,5239565E-007
2	0	0	1	0	1,714866528317935E+005	2,5505018E+000	2,5498774E+000	-1,686021613598260E-004	2,000000000000000E+000	2,5323334E-003	42	-4,2991485E-007
2	0	0	1	0	1,715201393370315E+005	2,5304098E+000	2,5297689E+000	-4,952901639524374E-004	2,000000000000000E+000	2,5081390E-003	42	-1,2529697E-006
2	0	0	1	0	1,715536256422706E+005	2,5103183E+000	2,5097008E+000	-8,086735070160366E-004	2,000000000000000E+000	2,4734871E-003	42	-2,0295286E-006
2	0	0	1	0	1,715869454474850E+005	2,4903262E+000	2,4897072E+000	-1,068030739327402E-003	2,000000000000000E+000	2,4296637E-003	42	-2,6590837E-006
2	0	0	1	0	1,716202650526973E+005	2,4703343E+000	2,4697371E+000	-1,300072765971343E-003	2,000000000000000E+000	2,3774258E-003	42	-3,2108378E-006
2	0	0	1	0	1,716535848579104E+005	2,4503427E+000	2,4497373E+000	-1,542372510312415E-003	2,000000000000000E+000	2,3175168E-003	42	-3,7784075E-006
2	0	0	1	0	1,716869045631239E+005	2,4303508E+000	2,4297688E+000	-1,725863144228190E-003	2,000000000000000E+000	2,2503755E-003	42	-4,1934486E-006
2	0	0	1	0	1,717202241683365E+005	2,4103591E+000	2,4097683E+000	-1,925906589377007E-003	2,000000000000000E+000	2,1764638E-003	42	-4,6409887E-006
2	0	0	1	0	1,717535439735511E+005	2,3903670E+000	2,3897812E+000	-2,114178831435032E-003	2,000000000000000E+000	2,0960753E-003	42	-5,0524250E-006
2	0	0	1	0	1,717868637787625E+005	2,3703752E+000	2,3697746E+000	-2,289356011549729E-003	2,000000000000000E+000	2,0093988E-003	42	-5,4252578E-006
2	0	0	1	0	1,718201835839786E+005	2,3503835E+000	2,3498170E+000	-2,486115613324499E-003	2,000000000000000E+000	1,9165563E-003	42	-5,8419168E-006
2	0	0	1	0	1,718535032891892E+005	2,3303916E+000	2,3297837E+000	-2,694503789802780E-003	2,000000000000000E+000	1,8173828E-003	42	-6,2776107E-006
2	0	0	1	0	1,718868230944048E+005	2,3103998E+000	2,3098333E+000	-2,880527127881137E-003	2,000000000000000E+000	1,7119390E-003	42	-6,6535376E-006
2	0	0	1	0	1,719201428996164E+005	2,2904077E+000	2,2897890E+000	-3,081775831024605E-003	2,000000000000000E+000	1,5998108E-003	42	-7,0566161E-006
2	0	0	1	0	1,719534625048307E+005	2,2704160E+000	2,2698500E+000	-3,293151749829578E-003	2,000000000000000E+000	1,4808578E-003	42	-7,4749605E-006
2	0	0	1	0	1,719867823100431E+005	2,2504241E+000	2,2498305E+000	-3,510407586251922E-003	2,000000000000000E+000	1,3549010E-003	42	-7,8978219E-006
2	0	0	1	0	1,720201021152567E+005	2,2304323E+000	2,2298622E+000	-3,728185725509207E-003	2,000000000000000E+000	1,2214548E-003	42	-8,3133409E-006
2	0	0	1	0	1,720534217204697E+005	2,2104406E+000	2,2098720E+000	-3,970946566775727E-003	2,000000000000000E+000	1,0802671E-003	42	-8,7752833E-006
2	0	0	1	0	1,720867415256831E+005	2,1904488E+000	2,1899006E+000	-4,226775805639463E-003	2,000000000000000E+000	9,3085063E-004	42	-9,2562186E-006
2	0	0	1	0	1,721200613308963E+005	2,1704569E+000	2,1698895E+000	-4,492527463186471E-003	2,000000000000000E+000	7,7278586E-004	42	-9,7482880E-006
2	0	0	1	0	1,721533811361091E+005	2,1504650E+000	2,1499228E+000	-4,785636527312710E-003	2,000000000000000E+000	6,0545071E-004	42	-1,0288750E-005
2	0	0	1	0	1,721867009413231E+005	2,1304731E+000	2,1299164E+000	-5,090763800612043E-003	2,000000000000000E+000	4,2848912E-004	42	-1,0842901E-005
2	0	0	1	0	1,722200207465352E+005	2,1104813E+000	2,1099610E+000	-5,403091847119262E-003	2,000000000000000E+000	2,4124538E-004	42	-1,1400313E-005
2	0	0	1	0	1,722533405517503E+005	2,0904891E+000	2,0899262E+000	-5,725878915595006E-003	2,000000000000000E+000	4,2993393E-005	42	-1,1966665E-005
2	0	0	1	0	1,722866601569611E+005	2,0704975E+000	2,0699611E+000	-6,108969091550905E-003	2,000000000000000E+000	-1,6699047E-004	42	-1,2645328E-005
2	0	0	1	0	1,723199799621776E+005	2,0505056E+000	2,0499742E+000	-6,515078864282375E-003	2,000000000000000E+000	-3,8975419E-004	42	-1,3355743E-005
2	0	0	1	0	1,723532997673885E+005	2,0305138E+000	2,0300109E+000	-6,955675625092403E-003	2,000000000000000E+000	-6,2651630E-004	42	-1,4120098E-005
2	0	0	1	0	1,723866194726038E+005	2,0105221E+000	2,0100005E+000	-7,471363229701988E-003	2,000000000000000E+000	-8,7910751E-004	42	-1,5017444E-005
2	0	0	1	0	1,724199392778156E+005	1,9905303E+000	1,9900364E+000	-8,004804267998142E-003	2,000000000000000E+000	-1,1494929E-003	42	-1,5929852E-005
2	0	0	1	0	1,724532589830295E+005	1,9705385E+000	1,9700147E+000	-8,653582177511325E-003	2,000000000000000E+000	-1,4396954E-003	42	-1,7047683E-005
2	0	0	0	0	1,724865787882422E+005	1,9505465E+000	1,9499693E+000	-9,254693138050003E-003	2,000000000000000E+000	-1,7523462E-003	41	-1,8046367E-005
2	0	0	1	0	1,725198985934556E+005	1,9305547E+000	1,9299462E+000	-9,952151340113333E-003	2,000000000000000E+000	-2,0874240E-003	41	-1,9207117E-005
2	0	0	1	0	1,725532181986689E+005	1,9105630E+000	1,9099482E+000	-1,064776406031648E-002	2,000000000000000E+000	-2,4456063E-003	41	-2,0336678E-005
2	0	0	1	0	1,725865380038819E+005	1,8905711E+000	1,8899713E+000	-1,140979610084478E-002	2,000000000000000E+000	-2,8276241E-003	41	-2,1564187E-005
2	0	0	0	0	1,726015842062356E+005	1,8815254E+000	1,8809090E+000	-1,191382458740384E-002	2,000000000000000E+000	-3,0086047E-003	41	-2,2408820E-005