File: Dati/210416_2/CV_LTO-CB_grafite nuova_15 layers__02_CV_C01.mpt
EC-Lab ASCII FILE
Nb header lines : 57

Cyclic Voltammetry

Run on channel : 1 (SN 6806)
User : Seelab
Electrode connection : standard
Ewe ctrl range : min = 0,00 V, max = 5,00 V
Ewe,I filtering : 50 kHz
Safety Limits :
	Do not start on E overload
Channel : Grounded
Acquisition started on : 04/16/2021 18:47:00
Saved on :
	File : CV_LTO-CB_grafite nuova_15 layers__02_CV_C01.mpr
	Directory : C:\Users\labsuperfici\Desktop\Biologic\Users\Prisca Viviani\210416_2\
	Host : 10.78.33.0
Device : VSP-300 (SN 0638)
Address : USB
EC-Lab for windows v11.31 (software)
Internet server v11.30 (firmware)
Command interpretor v11.31 (firmware)
Electrode material :
Initial state :
Electrolyte :
Comments :
Cable : standard
Reference electrode : SCE Saturated Calomel Electrode (0,241 V)
Electrode surface area : 0,001 cm²
Characteristic mass : 0,001 g
Equivalent Weight : 0,000 g/eq.
Density : 0,000 g/cm3
Cycle Definition : Charge/Discharge alternance
Ei (V)              0,000
vs.                 Eoc
dE/dt               0,100
dE/dt unit          mV/s
E1 (V)              1,000
vs.                 Ref
Step percent        50
N                   10
E range min (V)     0,000
E range max (V)     5,000
I Range             Auto
I Range min         Unset
I Range max         Unset
I Range init        Unset
Bandwidth           8
E2 (V)              3,000
vs.                 Ref
nc cycles           1
Reverse Scan        1
Ef (V)              0,000
vs.                 Eoc

mode	ox/red	error	control changes	counter inc.	time/s	control/V	Ewe/V	<I>/mA	cycle number	(Q-Qo)/C	I Range	P/W
2	1	0	1	0	1,280049967663217E+003	2,2496376E+000	2,2504377E+000	6,442083395086229E-004	1,000000000000000E+000	0,0000000E+000	42	1,4497508E-006
2	0	0	1	0	1,515506661715081E+003	2,2260909E+000	2,2270126E+000	-7,330101326208146E-004	1,000000000000000E+000	-1,4161062E-004	43	-1,6324228E-006
2	0	0	1	0	1,755462255653292E+003	2,2020950E+000	2,2029529E+000	-9,774132537118682E-004	1,000000000000000E+000	-3,6260457E-004	42	-2,1531953E-006
2	0	0	1	0	1,995418949591476E+003	2,1780994E+000	2,1789289E+000	-1,230324734738219E-003	1,000000000000000E+000	-6,4527831E-004	42	-2,6807900E-006
2	0	0	1	0	2,235375743529657E+003	2,1541030E+000	2,1549118E+000	-1,503271141538962E-003	1,000000000000000E+000	-9,8857458E-004	42	-3,2394166E-006
2	0	0	1	0	2,475329137467925E+003	2,1301079E+000	2,1309390E+000	-1,779275611703920E-003	1,000000000000000E+000	-1,3998060E-003	42	-3,7915279E-006
2	0	0	1	0	2,715284931406131E+003	2,1061115E+000	2,1069381E+000	-2,101193243669967E-003	1,000000000000000E+000	-1,8809297E-003	42	-4,4270841E-006
2	0	0	1	0	2,955241725344313E+003	2,0821159E+000	2,0829408E+000	-2,383160679002790E-003	1,000000000000000E+000	-2,4417082E-003	42	-4,9639825E-006
2	0	0	1	0	3,195197219282527E+003	2,0581205E+000	2,0589354E+000	-2,807636010752838E-003	1,000000000000000E+000	-3,0792586E-003	42	-5,7807410E-006
2	0	0	1	0	3,435152813220739E+003	2,0341244E+000	2,0349410E+000	-3,260659183753983E-003	1,000000000000000E+000	-3,8271463E-003	42	-6,6352491E-006
2	0	0	1	0	3,675108607158945E+003	2,0101287E+000	2,0109501E+000	-3,696713271596187E-003	1,000000000000000E+000	-4,6816287E-003	42	-7,4339059E-006
2	0	0	1	0	3,915064901097139E+003	1,9861330E+000	1,9869763E+000	-4,074247864611302E-003	1,000000000000000E+000	-5,6387815E-003	42	-8,0954342E-006
2	0	0	1	0	4,155022295811737E+003	1,9621370E+000	1,9629915E+000	-4,423629899349364E-003	1,000000000000000E+000	-6,6748681E-003	42	-8,6835480E-006
2	0	0	1	0	4,394979692906549E+003	1,9381412E+000	1,9389746E+000	-4,879217100113074E-003	1,000000000000000E+000	-7,8076944E-003	42	-9,4606785E-006
2	0	0	1	0	4,634937090001316E+003	1,9141457E+000	1,9150041E+000	-5,396619350669971E-003	1,000000000000000E+000	-9,0584513E-003	42	-1,0334548E-005
2	0	0	1	0	4,874893387096119E+003	1,8901498E+000	1,8910055E+000	-5,988210058629762E-003	1,000000000000000E+000	-1,0440225E-002	42	-1,1323738E-005
2	0	0	1	0	5,114850384190911E+003	1,8661541E+000	1,8670177E+000	-6,777703003513519E-003	1,000000000000000E+000	-1,1982340E-002	42	-1,2654092E-005
2	0	0	1	0	5,354807681285703E+003	1,8421580E+000	1,8430312E+000	-7,546939443249537E-003	1,000000000000000E+000	-1,3720117E-002	42	-1,3909244E-005
2	0	0	1	0	5,594765078380493E+003	1,8181624E+000	1,8190426E+000	-8,468583995542983E-003	1,000000000000000E+000	-1,5657684E-002	42	-1,5404714E-005
2	0	0	1	0	5,834722475475282E+003	1,7941663E+000	1,7949678E+000	-9,815840865650037E-003	1,000000000000000E+000	-1,7858190E-002	41	-1,7619119E-005
2	0	0	1	0	6,074678872570090E+003	1,7701708E+000	1,7709349E+000	-1,147938635315046E-002	1,000000000000000E+000	-2,0434365E-002	41	-2,0329246E-005
2	0	0	1	0	6,314635769664877E+003	1,7461752E+000	1,7469276E+000	-1,326743306920949E-002	1,000000000000000E+000	-2,3424910E-002	41	-2,3177245E-005
2	0	0	1	0	6,554593166759667E+003	1,7221791E+000	1,7229525E+000	-1,516771040822694E-002	1,000000000000000E+000	-2,6857775E-002	41	-2,6133244E-005
2	0	0	1	0	6,794550463854481E+003	1,6981835E+000	1,6989968E+000	-1,719974144422644E-002	1,000000000000000E+000	-3,0759102E-002	41	-2,9222305E-005
2	0	0	1	0	7,034507860949248E+003	1,6741874E+000	1,6749716E+000	-1,926745959472081E-002	1,000000000000000E+000	-3,5162199E-002	41	-3,2272448E-005
2	0	0	1	0	7,274465258044038E+003	1,6501919E+000	1,6509888E+000	-2,081229605162360E-002	1,000000000000000E+000	-3,9989740E-002	41	-3,4360866E-005
2	0	0	1	0	7,514421855138833E+003	1,6261959E+000	1,6269915E+000	-2,246165724376964E-002	1,000000000000000E+000	-4,5203969E-002	41	-3,6544927E-005
2	0	0	1	0	7,754379152233625E+003	1,6022003E+000	1,6030009E+000	-2,439705247874030E-002	1,000000000000000E+000	-5,0838050E-002	41	-3,9108498E-005
2	0	0	1	0	7,994335949328422E+003	1,5782046E+000	1,5789908E+000	-2,803699514392954E-002	1,000000000000000E+000	-5,7104401E-002	41	-4,4270157E-005
2	0	0	1	0	8,234293246423214E+003	1,5542085E+000	1,5550013E+000	-3,486858599717080E-002	1,000000000000000E+000	-6,4587474E-002	41	-5,4220694E-005
2	0	0	1	0	8,474250643517997E+003	1,5302129E+000	1,5310289E+000	-5,473752591068670E-002	1,000000000000000E+000	-7,4796461E-002	41	-8,3804734E-005
2	0	0	1	0	8,714207240612785E+003	1,5062168E+000	1,5070549E+000	-8,609140168481488E-002	1,000000000000000E+000	-9,1970228E-002	41	-1,2974447E-004
2	0	0	1	0	8,954164037707589E+003	1,4822212E+000	1,4830972E+000	-1,000188618246414E-001	1,000000000000000E+000	-1,1465501E-001	41	-1,4833770E-004
2	0	0	1	0	9,194121334802359E+003	1,4582255E+000	1,4589745E+000	-1,016749139318195E-001	1,000000000000000E+000	-1,3902849E-001	40	-1,4834110E-004
2	0	0	1	0	9,434078731897200E+003	1,4342296E+000	1,4350039E+000	-9,791584226581679E-002	1,000000000000000E+000	-1,6305377E-001	40	-1,4050961E-004
2	0	0	1	0	9,674036028991992E+003	1,4102337E+000	1,4109801E+000	-9,218624443676693E-002	1,000000000000000E+000	-1,8590629E-001	40	-1,3007296E-004
2	0	0	1	0	9,913992626086780E+003	1,3862380E+000	1,3870318E+000	-8,582816604079579E-002	1,000000000000000E+000	-2,0728488E-001	40	-1,1904640E-004
2	0	0	1	0	1,015394942318155E+004	1,3622421E+000	1,3630048E+000	-7,996346112089614E-002	1,000000000000000E+000	-2,2717911E-001	40	-1,0899058E-004
2	0	0	1	0	1,039390672027634E+004	1,3382465E+000	1,3390185E+000	-7,494962254916784E-002	1,000000000000000E+000	-2,4575840E-001	40	-1,0035893E-004
2	0	0	1	0	1,063386411737114E+004	1,3142506E+000	1,3150451E+000	-7,066710104272800E-002	1,000000000000000E+000	-2,6323712E-001	40	-9,2930430E-005
2	0	0	1	0	1,087382151446596E+004	1,2902548E+000	1,2910630E+000	-6,690369108885452E-002	1,000000000000000E+000	-2,7975148E-001	40	-8,6376880E-005
2	0	0	1	0	1,111377741156075E+004	1,2662592E+000	1,2670333E+000	-6,361955417048273E-002	1,000000000000000E+000	-2,9542023E-001	40	-8,0608093E-005
2	0	0	1	0	1,135373480865554E+004	1,2422632E+000	1,2430280E+000	-6,072160377521474E-002	1,000000000000000E+000	-3,1034175E-001	40	-7,5478660E-005
2	0	0	1	0	1,159369220575030E+004	1,2182674E+000	1,2190433E+000	-5,814219899415773E-002	1,000000000000000E+000	-3,2460883E-001	40	-7,0877853E-005
2	0	0	1	0	1,183364950284510E+004	1,1942716E+000	1,1950358E+000	-5,586641556050098E-002	1,000000000000000E+000	-3,3829448E-001	40	-6,6762368E-005
2	0	0	1	0	1,207360629993990E+004	1,1702758E+000	1,1710451E+000	-5,365274115505303E-002	1,000000000000000E+000	-3,5145849E-001	40	-6,2829778E-005
2	0	0	1	0	1,231356289703469E+004	1,1462799E+000	1,1470121E+000	-5,179801825203012E-002	1,000000000000000E+000	-3,6411035E-001	40	-5,9412956E-005
2	0	0	1	0	1,255352019412949E+004	1,1222841E+000	1,1230379E+000	-5,045970889497189E-002	1,000000000000000E+000	-3,7639096E-001	40	-5,6668167E-005
2	0	0	1	0	1,279347759122429E+004	1,0982884E+000	1,0990354E+000	-4,895687099723942E-002	1,000000000000000E+000	-3,8833770E-001	40	-5,3805332E-005
2	0	0	1	0	1,303443448830696E+004	1,0741928E+000	1,0750523E+000	-4,786650138737442E-002	1,000000000000000E+000	-4,0001303E-001	41	-5,1458992E-005
2	0	0	1	0	1,327439188540174E+004	1,0501969E+000	1,0510199E+000	-4,720305275281442E-002	1,000000000000000E+000	-4,1143057E-001	41	-4,9611350E-005
2	0	0	1	0	1,351434788249657E+004	1,0262011E+000	1,0270337E+000	-4,677129556396604E-002	1,000000000000000E+000	-4,2271808E-001	41	-4,8035698E-005
2	0	0	1	0	1,375430517959135E+004	1,0022053E+000	1,0030429E+000	-4,624285487276136E-002	1,000000000000000E+000	-4,3389094E-001	41	-4,6383568E-005
2	0	0	1	0	1,398226767683136E+004	1,0205021E+000	1,0213135E+000	-3,395521305068766E-002	1,000000000000000E+000	-4,4291306E-001	41	-3,4678920E-005
2	0	0	1	0	1,422222567392614E+004	1,0444978E+000	1,0452874E+000	-2,684698605214746E-002	1,000000000000000E+000	-4,5012072E-001	41	-2,8062816E-005
2	0	0	1	0	1,446218417102093E+004	1,0684936E+000	1,0692611E+000	-2,213877502397943E-002	1,000000000000000E+000	-4,5594180E-001	41	-2,3672130E-005
2	0	0	1	0	1,470214316811570E+004	1,0924895E+000	1,0932330E+000	-1,873707567847251E-002	1,000000000000000E+000	-4,6081614E-001	41	-2,0483989E-005
2	0	0	1	0	1,494210166521050E+004	1,1164854E+000	1,1172547E+000	-1,609200845293046E-002	1,000000000000000E+000	-4,6496707E-001	41	-1,7978873E-005
2	0	0	1	0	1,518205966230528E+004	1,1404811E+000	1,1412356E+000	-1,392722043430977E-002	1,000000000000000E+000	-4,6854556E-001	41	-1,5894240E-005
2	0	0	1	0	1,542201815940003E+004	1,1644768E+000	1,1652508E+000	-1,215980668704946E-002	1,000000000000000E+000	-4,7165507E-001	41	-1,4169224E-005
2	0	0	1	0	1,566197675649484E+004	1,1884727E+000	1,1892726E+000	-1,065589412335946E-002	1,000000000000000E+000	-4,7437546E-001	41	-1,2672764E-005
2	0	0	1	0	1,590193575358957E+004	1,2124684E+000	1,2132624E+000	-9,357905173010841E-003	1,000000000000000E+000	-4,7675517E-001	41	-1,1353595E-005
2	0	0	1	0	1,614189365068435E+004	1,2364641E+000	1,2372292E+000	-8,176048845892098E-003	1,000000000000000E+000	-4,7884077E-001	41	-1,0115647E-005
2	0	0	1	0	1,638185224777911E+004	1,2604603E+000	1,2612548E+000	-7,106743227627811E-003	1,000000000000000E+000	-4,8065898E-001	41	-8,9634141E-006
2	0	0	1	0	1,662181074487395E+004	1,2844558E+000	1,2852247E+000	-6,154053191048420E-003	1,000000000000000E+000	-4,8223436E-001	41	-7,9093406E-006
2	0	0	1	0	1,686176934196868E+004	1,3084517E+000	1,3092378E+000	-5,254433288625543E-003	1,000000000000000E+000	-4,8358741E-001	41	-6,8793029E-006
2	0	0	1	0	1,710172833906350E+004	1,3324474E+000	1,3332810E+000	-4,437829883084592E-003	1,000000000000000E+000	-4,8473650E-001	42	-5,9168742E-006
2	0	0	1	0	1,734168623615825E+004	1,3564432E+000	1,3572797E+000	-3,639731231600683E-003	1,000000000000000E+000	-4,8569027E-001	42	-4,9401333E-006
2	0	0	1	0	1,758164483325303E+004	1,3804390E+000	1,3812231E+000	-2,813722029158713E-003	1,000000000000000E+000	-4,8644918E-001	42	-3,8863777E-006
2	0	0	1	0	1,782160333034783E+004	1,4044348E+000	1,4052050E+000	-1,969666886204778E-003	1,000000000000000E+000	-4,8700958E-001	42	-2,7677859E-006
2	0	0	1	0	1,806156192744256E+004	1,4284306E+000	1,4291866E+000	-1,061234512508873E-003	1,000000000000000E+000	-4,8736095E-001	42	-1,5167021E-006
2	0	0	1	0	1,830152022453735E+004	1,4524266E+000	1,4531940E+000	-6,911079172597465E-005	1,000000000000000E+000	-4,8748407E-001	43	-1,0043139E-007
2	1	0	1	0	1,854247892162006E+004	1,4765222E+000	1,4772694E+000	1,103896363262226E-003	1,000000000000000E+000	-4,8734945E-001	42	1,6307523E-006
2	1	0	1	0	1,878243691871484E+004	1,5005180E+000	1,5012442E+000	2,478473874957247E-003	1,000000000000000E+000	-4,8691154E-001	42	3,7207944E-006
2	1	0	1	0	1,902239551580959E+004	1,5245138E+000	1,5252463E+000	4,290188071805187E-003	1,000000000000000E+000	-4,8609942E-001	42	6,5435934E-006
2	1	0	1	0	1,926235401290446E+004	1,5485096E+000	1,5491785E+000	7,307344739594018E-003	1,000000000000000E+000	-4,8472854E-001	42	1,1320381E-005
2	1	0	1	0	1,950231300999911E+004	1,5725056E+000	1,5732484E+000	1,299517686459904E-002	1,000000000000000E+000	-4,8241219E-001	41	2,0444641E-005
2	1	0	1	0	1,974227150709389E+004	1,5965011E+000	1,5972054E+000	3,555244537682445E-002	1,000000000000000E+000	-4,7688922E-001	41	5,6784556E-005
2	1	0	1	0	1,998222950418870E+004	1,6204970E+000	1,6211932E+000	6,389923661498154E-002	1,000000000000000E+000	-4,6493456E-001	41	1,0359300E-004
2	1	0	1	0	2,022218810128351E+004	1,6444929E+000	1,6451358E+000	9,029800771600094E-002	1,000000000000000E+000	-4,4634119E-001	41	1,4855248E-004
2	1	0	1	0	2,046214659837823E+004	1,6684886E+000	1,6691931E+000	1,123258814877062E-001	1,000000000000000E+000	-4,2189091E-001	40	1,8749360E-004
2	1	0	1	0	2,070210559547300E+004	1,6924845E+000	1,6932491E+000	1,272676304115700E-001	1,000000000000000E+000	-3,9296645E-001	40	2,1549581E-004
2	1	0	1	0	2,094206409256780E+004	1,7164801E+000	1,7172513E+000	1,343299395874258E-001	1,000000000000000E+000	-3,6140236E-001	40	2,3067827E-004
2	1	0	1	0	2,118202268966264E+004	1,7404760E+000	1,7412256E+000	1,332974400031817E-001	1,000000000000000E+000	-3,2914624E-001	40	2,3210091E-004
2	1	0	1	0	2,142198118675733E+004	1,7644719E+000	1,7652165E+000	1,256104659733976E-001	1,000000000000000E+000	-2,9794201E-001	40	2,2172966E-004
2	1	0	1	0	2,166193918385214E+004	1,7884678E+000	1,7892296E+000	1,128242906906064E-001	1,000000000000000E+000	-2,6923522E-001	40	2,0186856E-004
2	1	0	1	0	2,190189808094688E+004	1,8124634E+000	1,8132266E+000	9,718656540953431E-002	1,000000000000000E+000	-2,4399912E-001	40	1,7622126E-004
2	1	0	1	0	2,214185667804169E+004	1,8364593E+000	1,8372226E+000	8,101193782689387E-002	1,000000000000000E+000	-2,2263795E-001	40	1,4883696E-004
2	1	0	1	0	2,238181527513638E+004	1,8604548E+000	1,8612475E+000	6,597716156613642E-002	1,000000000000000E+000	-2,0501441E-001	40	1,2279983E-004
2	1	0	1	0	2,262177377223130E+004	1,8844508E+000	1,8852307E+000	5,175360159186571E-002	1,000000000000000E+000	-1,9091704E-001	40	9,7567477E-005
2	1	0	1	0	2,286173176932603E+004	1,9084466E+000	1,9091771E+000	3,989674382687958E-002	1,000000000000000E+000	-1,7998485E-001	41	7,6169948E-005
2	1	0	1	0	2,310169066642085E+004	1,9324422E+000	1,9332210E+000	3,112985719088712E-002	1,000000000000000E+000	-1,7150328E-001	41	6,0180893E-005
2	1	0	1	0	2,334164926351549E+004	1,9564381E+000	1,9572104E+000	2,468092004072497E-002	1,000000000000000E+000	-1,6483653E-001	41	4,8305756E-005
2	1	0	1	0	2,358160786061033E+004	1,9804339E+000	1,9811971E+000	1,996581242146844E-002	1,000000000000000E+000	-1,5949810E-001	41	3,9556209E-005
2	1	0	1	0	2,382156635770507E+004	2,0044296E+000	2,0051739E+000	1,663216816248125E-002	1,000000000000000E+000	-1,5512021E-001	41	3,3350389E-005
2	1	0	1	0	2,406152555479994E+004	2,0284255E+000	2,0291770E+000	1,426754745000389E-002	1,000000000000000E+000	-1,5141535E-001	41	2,8951379E-005
2	1	0	1	0	2,430148385189462E+004	2,0524213E+000	2,0531919E+000	1,254375985755690E-002	1,000000000000000E+000	-1,4819737E-001	41	2,5754745E-005
2	1	0	1	0	2,454144184898946E+004	2,0764170E+000	2,0771842E+000	1,124482419126447E-002	1,000000000000000E+000	-1,4534065E-001	41	2,3357572E-005
2	1	0	1	0	2,478140094608418E+004	2,1004128E+000	2,1011732E+000	1,027995880764726E-002	1,000000000000000E+000	-1,4275318E-001	41	2,1599973E-005
2	1	0	1	0	2,502136014317896E+004	2,1244090E+000	2,1252084E+000	9,536388270173030E-003	1,000000000000000E+000	-1,4036596E-001	41	2,0266812E-005
2	1	0	1	0	2,526131684027379E+004	2,1484044E+000	2,1491795E+000	8,958364032903343E-003	1,000000000000000E+000	-1,3813666E-001	41	1,9253132E-005
2	1	0	1	0	2,550127643736854E+004	2,1724002E+000	2,1731746E+000	8,485968246299248E-003	1,000000000000000E+000	-1,3603313E-001	41	1,8441491E-005
2	1	0	1	0	2,574123563446332E+004	2,1963959E+000	2,1971850E+000	8,110064324466398E-003	1,000000000000000E+000	-1,3403195E-001	41	1,7819311E-005
2	1	0	1	0	2,598119353155806E+004	2,2203918E+000	2,2211943E+000	7,815665275306583E-003	1,000000000000000E+000	-1,3210985E-001	41	1,7360111E-005
2	1	0	1	0	2,622115152865287E+004	2,2443876E+000	2,2451639E+000	7,549166225877459E-003	1,000000000000000E+000	-1,3025673E-001	41	1,6949116E-005
2	1	0	1	0	2,646111062574765E+004	2,2683833E+000	2,2691658E+000	7,318563211267753E-003	1,000000000000000E+000	-1,2846214E-001	41	1,6607033E-005
2	1	0	1	0	2,670106902284239E+004	2,2923791E+000	2,2931762E+000	7,160334629448623E-003	1,000000000000000E+000	-1,2671445E-001	41	1,6419908E-005
2	1	0	1	0	2,694102701993720E+004	2,3163748E+000	2,3171291E+000	6,976192676359960E-003	1,000000000000000E+000	-1,2500823E-001	41	1,6164739E-005
2	1	0	1	0	2,718098611703198E+004	2,3403707E+000	2,3411567E+000	6,832224697068345E-003	1,000000000000000E+000	-1,2334054E-001	41	1,5995309E-005
2	1	0	1	0	2,742094521412675E+004	2,3643663E+000	2,3651609E+000	6,719487875289198E-003	1,000000000000000E+000	-1,2170430E-001	41	1,5892670E-005
2	1	0	1	0	2,766090201122154E+004	2,3883622E+000	2,3891187E+000	6,594417199809379E-003	1,000000000000000E+000	-1,2009656E-001	41	1,5754846E-005
2	1	0	1	0	2,790086160831631E+004	2,4123580E+000	2,4131351E+000	6,529901230363289E-003	1,000000000000000E+000	-1,1851025E-001	41	1,5757534E-005
2	1	0	1	0	2,814082070541102E+004	2,4363542E+000	2,4371347E+000	6,480619485670261E-003	1,000000000000000E+000	-1,1693932E-001	41	1,5794143E-005
2	1	0	1	0	2,838077870250581E+004	2,4603498E+000	2,4611509E+000	6,479465349722574E-003	1,000000000000000E+000	-1,1537448E-001	41	1,5946942E-005
2	1	0	1	0	2,862073659960064E+004	2,4843454E+000	2,4851797E+000	6,611234623798944E-003	1,000000000000000E+000	-1,1379918E-001	41	1,6430105E-005
2	1	0	1	0	2,886069579669542E+004	2,5083416E+000	2,5091772E+000	6,515007538877203E-003	1,000000000000000E+000	-1,1220332E-001	41	1,6347309E-005
2	1	0	1	0	2,910065409379016E+004	2,5323372E+000	2,5331690E+000	6,420174882600299E-003	1,000000000000000E+000	-1,1064291E-001	41	1,6263388E-005
2	1	0	1	0	2,934061209088494E+004	2,5563328E+000	2,5571508E+000	6,369153230548402E-003	1,000000000000000E+000	-1,0909861E-001	41	1,6286886E-005
2	1	0	1	0	2,958057128797972E+004	2,5803289E+000	2,5811255E+000	6,327358103782120E-003	1,000000000000000E+000	-1,0756494E-001	41	1,6331705E-005
2	1	0	1	0	2,982053038507450E+004	2,6043248E+000	2,6051512E+000	6,297033328481493E-003	1,000000000000000E+000	-1,0604171E-001	41	1,6404723E-005
2	1	0	1	0	3,006048718216922E+004	2,6283202E+000	2,6291199E+000	6,298568013946446E-003	1,000000000000000E+000	-1,0452119E-001	41	1,6559690E-005
2	1	0	1	0	3,030044667926407E+004	2,6523163E+000	2,6531439E+000	6,342121525571384E-003	1,000000000000000E+000	-1,0299469E-001	41	1,6826561E-005
2	1	0	1	0	3,054040587635885E+004	2,6763117E+000	2,6771109E+000	6,395898946916209E-003	1,000000000000000E+000	-1,0145637E-001	41	1,7122531E-005
2	1	0	1	0	3,078036257345363E+004	2,7003076E+000	2,7011321E+000	6,263165101526580E-003	1,000000000000000E+000	-9,9929944E-002	41	1,6917636E-005
2	1	0	1	0	3,102032177054841E+004	2,7243037E+000	2,7251084E+000	6,217132699340815E-003	1,000000000000000E+000	-9,8414965E-002	41	1,6942360E-005
2	1	0	1	0	3,126028096764316E+004	2,7482991E+000	2,7491081E+000	6,159314048534620E-003	1,000000000000000E+000	-9,6923918E-002	41	1,6932619E-005
2	1	0	1	0	3,150023926473793E+004	2,7722950E+000	2,7731426E+000	6,259428770226772E-003	1,000000000000000E+000	-9,5426530E-002	41	1,7358288E-005
2	1	0	1	0	3,174019726183268E+004	2,7962911E+000	2,7970939E+000	6,664213526546808E-003	1,000000000000000E+000	-9,3873382E-002	41	1,8640430E-005
2	1	0	1	0	3,198015635892749E+004	2,8202868E+000	2,8211367E+000	7,488841397894408E-003	1,000000000000000E+000	-9,2174597E-002	41	2,1127045E-005
2	1	0	1	0	3,222011435602227E+004	2,8442829E+000	2,8451285E+000	8,428153057895571E-003	1,000000000000000E+000	-9,0259202E-002	41	2,3979179E-005
2	1	0	1	0	3,246007235311705E+004	2,8682783E+000	2,8691146E+000	8,922716265118563E-003	1,000000000000000E+000	-8,8141881E-002	41	2,5600295E-005
2	1	0	1	0	3,270003185021179E+004	2,8922744E+000	2,8931270E+000	8,674071002799988E-003	1,000000000000000E+000	-8,6014949E-002	41	2,5095189E-005
2	1	0	1	0	3,293999094970932E+004	2,9162698E+000	2,9171116E+000	8,419686789227110E-003	1,000000000000000E+000	-8,3959088E-002	41	2,4561166E-005
2	1	0	1	0	3,317994775015640E+004	2,9402654E+000	2,9410739E+000	8,351517174079920E-003	1,000000000000000E+000	-8,1940003E-002	41	2,4562429E-005
2	1	0	1	0	3,341990695060330E+004	2,9642613E+000	2,9650919E+000	8,445046867574534E-003	1,000000000000000E+000	-7,9918362E-002	41	2,5040341E-005
2	1	0	1	0	3,365986605105037E+004	2,9882574E+000	2,9890900E+000	8,607503101767104E-003	1,000000000000000E+000	-7,7862456E-002	41	2,5728601E-005
2	1	0	1	1	3,388282375146550E+004	2,9894574E+000	2,9902883E+000	6,513988687903323E-003	1,000000000000000E+000	-7,5637549E-002	41	1,9478704E-005
2	1	0	1	1	3,412278055191250E+004	2,9654615E+000	2,9662247E+000	4,820395539135214E-003	1,000000000000000E+000	-7,4307799E-002	42	1,4298376E-005
2	1	0	1	1	3,436273735235946E+004	2,9414654E+000	2,9422858E+000	1,043070316841987E-002	1,000000000000000E+000	-7,2204910E-002	41	3,0690109E-005
2	1	0	1	1	3,460269285280642E+004	2,9174700E+000	2,9183388E+000	1,020032873258392E-002	1,000000000000000E+000	-7,0622817E-002	41	2,9768014E-005
2	1	0	1	1	3,484264845325332E+004	2,8934741E+000	2,8942955E+000	6,634086073259979E-003	1,000000000000000E+000	-6,9356315E-002	42	1,9201005E-005
2	1	0	1	1	3,508260425370035E+004	2,8694782E+000	2,8703260E+000	2,433407559930963E-003	1,000000000000000E+000	-6,8131700E-002	42	6,9846733E-006
2	1	0	1	1	3,532455795415095E+004	2,8452823E+000	2,8460958E+000	2,236071185429581E-003	1,000000000000000E+000	-6,7107640E-002	42	6,3640728E-006
2	1	0	1	1	3,556551375459984E+004	2,8211868E+000	2,8219306E+000	7,772097585898669E-003	1,000000000000000E+000	-6,5619089E-002	42	2,1932321E-005
2	1	0	1	1	3,580547045504674E+004	2,7971907E+000	2,7980046E+000	1,937932829559636E-003	1,000000000000000E+000	-6,4875558E-002	42	5,4223451E-006
2	1	0	1	1	3,604542725549359E+004	2,7731950E+000	2,7740312E+000	2,630939954077189E-003	1,000000000000000E+000	-6,4289391E-002	42	7,2983094E-006
2	1	0	1	1	3,628537965594069E+004	2,7491992E+000	2,7499924E+000	2,304693659092135E-003	1,000000000000000E+000	-6,3541912E-002	42	6,3378898E-006
2	1	0	1	1	3,652533645638754E+004	2,7252033E+000	2,7260203E+000	2,746056198322001E-003	1,000000000000000E+000	-6,2818825E-002	42	7,4858049E-006
2	1	0	1	1	3,676529315683449E+004	2,7012076E+000	2,7020576E+000	1,164757791568969E-003	1,000000000000000E+000	-6,2103979E-002	42	3,1472428E-006
2	1	0	1	1	3,700524875728146E+004	2,6772120E+000	2,6780310E+000	7,322966245865495E-003	1,000000000000000E+000	-6,1032146E-002	41	1,9611130E-005
2	1	0	1	1	3,724520435772836E+004	2,6532161E+000	2,6540315E+000	6,962042433702409E-003	1,000000000000000E+000	-5,9326652E-002	41	1,8477480E-005
2	1	0	1	1	3,748515915817535E+004	2,6292202E+000	2,6300523E+000	6,595647080475817E-003	1,000000000000000E+000	-5,7708424E-002	41	1,7346896E-005
2	1	0	1	1	3,772511465862242E+004	2,6052246E+000	2,6060553E+000	6,166910311286567E-003	1,000000000000000E+000	-5,6185104E-002	41	1,6071310E-005
2	1	0	1	1	3,796507025906921E+004	2,5812287E+000	2,5820343E+000	5,695605932108772E-003	1,000000000000000E+000	-5,4770704E-002	41	1,4706250E-005
2	1	0	1	1	3,820502705951620E+004	2,5572329E+000	2,5580106E+000	4,916847201848982E-003	1,000000000000000E+000	-5,3489752E-002	42	1,2577347E-005
2	1	0	1	1	3,844498265996319E+004	2,5332372E+000	2,5340500E+000	5,584705531812132E-005	1,000000000000000E+000	-5,3144094E-002	44	1,4151922E-007
2	0	0	1	1	3,868493616041029E+004	2,5092413E+000	2,5100889E+000	-4,863732751957020E-005	1,000000000000000E+000	-5,3086624E-002	43	-1,2208402E-007
2	1	0	1	1	3,892589196085907E+004	2,4851456E+000	2,4859235E+000	2,523639379958260E-003	1,000000000000000E+000	-5,3086895E-002	42	6,2735744E-006
2	0	0	1	1	3,916784906130983E+004	2,4609497E+000	2,4617801E+000	-2,568752010119954E-004	1,000000000000000E+000	-5,3052619E-002	43	-6,3237025E-007
2	1	0	1	1	3,940880476175848E+004	2,4368539E+000	2,4376714E+000	2,431406582175690E-004	1,000000000000000E+000	-5,3105641E-002	42	5,9269701E-007
2	1	0	1	1	3,964876036220533E+004	2,4128582E+000	2,4136462E+000	1,733908330839133E-003	1,000000000000000E+000	-5,2522145E-002	42	4,1850412E-006
2	1	0	1	1	3,988871396265237E+004	2,3888624E+000	2,3896565E+000	8,534793132230457E-004	1,000000000000000E+000	-5,2251127E-002	42	2,0395223E-006
2	0	0	1	1	4,012966976310126E+004	2,3647666E+000	2,3655667E+000	1,451956733517872E-003	1,000000000000000E+000	-5,2274965E-002	43	3,4347006E-006
2	0	0	1	1	4,036962646354828E+004	2,3407707E+000	2,3415937E+000	-8,739856271599636E-004	1,000000000000000E+000	-5,2400917E-002	42	-2,0465193E-006
2	0	0	1	1	4,061058216399694E+004	2,3166752E+000	2,3175111E+000	-1,009124730701739E-003	1,000000000000000E+000	-5,2619006E-002	42	-2,3386579E-006
2	0	0	1	1	4,085153796444577E+004	2,2925789E+000	2,2934172E+000	-1,142598930241055E-003	1,000000000000000E+000	-5,2846435E-002	42	-2,6204561E-006
2	0	0	1	1	4,109149276489270E+004	2,2685835E+000	2,2693980E+000	-1,248329546136441E-003	1,000000000000000E+000	-5,3125080E-002	42	-2,8329566E-006
2	0	0	1	1	4,131745076531358E+004	2,2459877E+000	2,2468004E+000	-8,123866793462095E-004	2,000000000000000E+000	-5,3304683E-002	42	-1,8252707E-006
2	0	0	1	1	4,155740636576054E+004	2,2219915E+000	2,2228067E+000	-9,682006944171564E-004	2,000000000000000E+000	-5,3522199E-002	42	-2,1521230E-006
2	0	0	1	1	4,179736316620754E+004	2,1979957E+000	2,1988308E+000	-1,707106642737877E-003	2,000000000000000E+000	-5,3841833E-002	42	-3,7536388E-006
2	0	0	1	1	4,203731866665452E+004	2,1740000E+000	2,1748211E+000	-1,877426394882587E-003	2,000000000000000E+000	-5,4191582E-002	42	-4,0830664E-006
2	0	0	1	1	4,227727326710138E+004	2,1500044E+000	2,1508129E+000	-2,020520995228557E-003	2,000000000000000E+000	-5,4667704E-002	42	-4,3457626E-006
2	0	0	1	1	4,251722906754853E+004	2,1260083E+000	2,1268375E+000	-2,177219806254096E-003	2,000000000000000E+000	-5,5171344E-002	42	-4,6305927E-006
2	0	0	1	1	4,275818476799713E+004	2,1019125E+000	2,1027036E+000	-2,368090906977305E-003	2,000000000000000E+000	-5,5712130E-002	42	-4,9793930E-006
2	0	0	1	1	4,299814156844415E+004	2,0779169E+000	2,0787172E+000	-2,570207984174813E-003	2,000000000000000E+000	-5,6297544E-002	42	-5,3427357E-006
2	0	0	1	1	4,323809716889111E+004	2,0539212E+000	2,0547397E+000	-2,802693653193897E-003	2,000000000000000E+000	-5,6942750E-002	42	-5,7588059E-006
2	0	0	1	1	4,347805176933808E+004	2,0299253E+000	2,0307372E+000	-3,015774319202922E-003	2,000000000000000E+000	-5,7645481E-002	42	-6,1242449E-006
2	0	0	1	1	4,371800746978496E+004	2,0059292E+000	2,0067484E+000	-3,251722008232705E-003	2,000000000000000E+000	-5,8406040E-002	42	-6,5253880E-006
2	0	0	1	1	4,395796487023195E+004	1,9819338E+000	1,9827538E+000	-3,540040816609691E-003	2,000000000000000E+000	-5,9204333E-002	42	-7,0190290E-006
2	0	0	1	1	4,419792217067891E+004	1,9579380E+000	1,9587723E+000	-3,867486143354679E-003	2,000000000000000E+000	-6,0102616E-002	42	-7,5755247E-006
2	0	0	1	1	4,443787957112590E+004	1,9339422E+000	1,9347832E+000	-4,234292516300208E-003	2,000000000000000E+000	-6,1081421E-002	42	-8,1924381E-006
2	0	0	1	1	4,467783657157281E+004	1,9099463E+000	1,9107790E+000	-4,652719791969878E-003	2,000000000000000E+000	-6,2152617E-002	42	-8,8903189E-006
2	0	0	1	1	4,491779297201970E+004	1,8859503E+000	1,8868058E+000	-5,080408697864289E-003	2,000000000000000E+000	-6,3328415E-002	42	-9,5857440E-006
2	0	0	1	1	4,515775027246671E+004	1,8619549E+000	1,8627968E+000	-5,538377437452981E-003	2,000000000000000E+000	-6,4611055E-002	42	-1,0316871E-005
2	0	0	1	1	4,539770767291368E+004	1,8379588E+000	1,8388520E+000	-6,084667715826386E-003	2,000000000000000E+000	-6,6013649E-002	42	-1,1188804E-005
2	0	0	1	1	4,563766497336066E+004	1,8139631E+000	1,8148253E+000	-6,742203931754398E-003	2,000000000000000E+000	-6,7563206E-002	42	-1,2235922E-005
2	0	0	1	1	4,587762197380746E+004	1,7899673E+000	1,7908331E+000	-7,559217488736022E-003	2,000000000000000E+000	-6,9286652E-002	42	-1,3537297E-005
2	0	0	1	1	4,611757837425458E+004	1,7659715E+000	1,7668357E+000	-8,492536895039045E-003	2,000000000000000E+000	-7,1219034E-002	42	-1,5004917E-005
2	0	0	1	1	4,635753577470145E+004	1,7419758E+000	1,7428917E+000	-9,558877224717599E-003	2,000000000000000E+000	-7,3393501E-002	42	-1,6660088E-005
2	0	0	1	1	4,659749307514844E+004	1,7179799E+000	1,7187476E+000	-1,075667131356792E-002	2,000000000000000E+000	-7,5840086E-002	41	-1,8488003E-005
2	0	0	1	1	4,683745047559543E+004	1,6939843E+000	1,6947757E+000	-1,203409021879050E-002	2,000000000000000E+000	-7,8584448E-002	41	-2,0395084E-005
2	0	0	1	1	4,707740737604257E+004	1,6699885E+000	1,6707571E+000	-1,333655786970269E-002	2,000000000000000E+000	-8,1629321E-002	41	-2,2282147E-005
2	0	0	1	1	4,731736437648931E+004	1,6459926E+000	1,6467887E+000	-1,467210001145616E-002	2,000000000000000E+000	-8,4995121E-002	41	-2,4161849E-005
2	0	0	1	1	4,755732177693630E+004	1,6219966E+000	1,6227782E+000	-1,647010789170708E-002	2,000000000000000E+000	-8,8738307E-002	41	-2,6727332E-005
2	0	0	1	1	4,779727857738314E+004	1,5980010E+000	1,5987947E+000	-1,880256334113384E-002	2,000000000000000E+000	-9,2965625E-002	41	-3,0061439E-005
2	0	0	1	1	4,803723587783007E+004	1,5740052E+000	1,5747997E+000	-2,227151781246391E-002	2,000000000000000E+000	-9,7883560E-002	41	-3,5073179E-005
2	0	0	1	1	4,827719287827727E+004	1,5500094E+000	1,5508422E+000	-2,741956402511003E-002	2,000000000000000E+000	-1,0381405E-001	41	-4,2523418E-005
2	0	0	1	1	4,851714977872407E+004	1,5260135E+000	1,5268308E+000	-3,741558768778031E-002	2,000000000000000E+000	-1,1143563E-001	41	-5,7127272E-005
2	0	0	1	1	4,875710717917117E+004	1,5020177E+000	1,5028528E+000	-5,355120837047267E-002	2,000000000000000E+000	-1,2235936E-001	41	-8,0479585E-005
2	0	0	1	1	4,899706397961802E+004	1,4780220E+000	1,4788364E+000	-6,636945411620632E-002	2,000000000000000E+000	-1,3687475E-001	41	-9,8149569E-005
2	0	0	1	1	4,923702138006501E+004	1,4540262E+000	1,4548652E+000	-7,327618292429972E-002	2,000000000000000E+000	-1,5374915E-001	41	-1,0660697E-004
2	0	0	1	1	4,947697828051192E+004	1,4300303E+000	1,4308887E+000	-7,596938315292912E-002	2,000000000000000E+000	-1,7173789E-001	41	-1,0870373E-004
2	0	0	1	1	4,971693528095889E+004	1,4060346E+000	1,4068915E+000	-7,580779332138043E-002	2,000000000000000E+000	-1,8998922E-001	41	-1,0665334E-004
2	0	0	1	1	4,995689258140582E+004	1,3820387E+000	1,3828970E+000	-7,486522438323040E-002	2,000000000000000E+000	-2,0807140E-001	41	-1,0353090E-004
2	0	0	1	1	5,019684938185266E+004	1,3580428E+000	1,3589035E+000	-7,272425232874558E-002	2,000000000000000E+000	-2,2581704E-001	41	-9,8825243E-005
2	0	0	1	1	5,043680678229989E+004	1,3340471E+000	1,3349108E+000	-6,886123775620701E-002	2,000000000000000E+000	-2,4284215E-001	41	-9,1923604E-005
2	0	0	1	1	5,067676368274668E+004	1,3100514E+000	1,3108940E+000	-6,470427824896408E-002	2,000000000000000E+000	-2,5887552E-001	41	-8,4820451E-005
2	0	0	1	1	5,091672068319377E+004	1,2860556E+000	1,2868932E+000	-6,102273876159914E-002	2,000000000000000E+000	-2,7396551E-001	41	-7,8529752E-005
2	0	0	1	1	5,115667748364061E+004	1,2620599E+000	1,2629067E+000	-5,777046549641746E-002	2,000000000000000E+000	-2,8821969E-001	41	-7,2958705E-005
2	0	0	1	1	5,139663478408766E+004	1,2380639E+000	1,2388777E+000	-5,453459992366899E-002	2,000000000000000E+000	-3,0170506E-001	41	-6,7561698E-005
2	0	0	1	1	5,163659218453453E+004	1,2140683E+000	1,2149258E+000	-5,171843196827225E-002	2,000000000000000E+000	-3,1445551E-001	41	-6,2834057E-005
2	0	0	1	1	5,187654918498138E+004	1,1900723E+000	1,1908900E+000	-4,908638801510243E-002	2,000000000000000E+000	-3,2655564E-001	41	-5,8456488E-005
2	0	0	1	1	5,211650558542856E+004	1,1660765E+000	1,1669041E+000	-4,696663513637542E-002	2,000000000000000E+000	-3,3808362E-001	41	-5,4805558E-005
2	0	0	1	1	5,235646288587549E+004	1,1420808E+000	1,1428741E+000	-4,508054650926466E-002	2,000000000000000E+000	-3,4913096E-001	41	-5,1521391E-005
2	0	0	1	1	5,259642028632236E+004	1,1180850E+000	1,1188989E+000	-4,341371856037790E-002	2,000000000000000E+000	-3,5975638E-001	41	-4,8575559E-005
2	0	0	1	1	5,283637758676929E+004	1,0940893E+000	1,0948975E+000	-4,199176879747335E-002	2,000000000000000E+000	-3,7000993E-001	41	-4,5976682E-005
2	0	0	1	1	5,307633458721626E+004	1,0700935E+000	1,0709009E+000	-4,104675092706600E-002	2,000000000000000E+000	-3,7998044E-001	41	-4,3957003E-005
2	0	0	1	1	5,331629098766320E+004	1,0460976E+000	1,0468979E+000	-4,026342835857466E-002	2,000000000000000E+000	-3,8974550E-001	41	-4,2151700E-005
2	0	0	1	1	5,355624828811013E+004	1,0221019E+000	1,0229131E+000	-3,971632727440089E-002	2,000000000000000E+000	-3,9934781E-001	41	-4,0626350E-005
2	0	0	1	1	5,378320988853299E+004	1,0005056E+000	1,0013385E+000	-3,861172437670146E-002	2,000000000000000E+000	-4,0834203E-001	41	-3,8663406E-005
2	0	0	1	1	5,402316808897982E+004	1,0245016E+000	1,0253074E+000	-2,836523944526948E-002	2,000000000000000E+000	-4,1613770E-001	41	-2,9083090E-005
2	0	0	1	1	5,426312598942674E+004	1,0484971E+000	1,0492734E+000	-2,309403227797358E-002	2,000000000000000E+000	-4,2224866E-001	41	-2,4231953E-005
2	0	0	1	1	5,450308498987381E+004	1,0724930E+000	1,0732418E+000	-1,943670710260204E-002	2,000000000000000E+000	-4,2731422E-001	41	-2,0860287E-005
2	0	0	1	1	5,474304349032068E+004	1,0964888E+000	1,0972625E+000	-1,671107351732837E-002	2,000000000000000E+000	-4,3162066E-001	41	-1,8336434E-005
2	0	0	1	1	5,498300209076784E+004	1,1204846E+000	1,1212418E+000	-1,452343466093681E-002	2,000000000000000E+000	-4,3534702E-001	41	-1,6284283E-005
2	0	0	1	1	5,522295999121468E+004	1,1444802E+000	1,1452429E+000	-1,269685202493713E-002	2,000000000000000E+000	-4,3859375E-001	41	-1,4540980E-005
2	0	0	1	1	5,546291859166155E+004	1,1684762E+000	1,1692166E+000	-1,120963005447850E-002	2,000000000000000E+000	-4,4144586E-001	41	-1,3106486E-005
2	0	0	1	1	5,570287759210868E+004	1,1924719E+000	1,1932315E+000	-9,945554519725772E-003	2,000000000000000E+000	-4,4396850E-001	41	-1,1867349E-005
2	0	0	1	1	5,594283609255558E+004	1,2164677E+000	1,2172445E+000	-8,844295236371702E-003	2,000000000000000E+000	-4,4620705E-001	41	-1,0765670E-005
2	0	0	1	1	5,618279469300248E+004	1,2404636E+000	1,2412419E+000	-7,839353153702794E-003	2,000000000000000E+000	-4,4819516E-001	41	-9,7305337E-006
2	0	0	1	1	5,642275259344943E+004	1,2644593E+000	1,2652540E+000	-6,897321510295713E-003	2,000000000000000E+000	-4,4995099E-001	41	-8,7268636E-006
2	0	0	1	1	5,666271119389645E+004	1,2884551E+000	1,2892678E+000	-6,046437522801193E-003	2,000000000000000E+000	-4,5149449E-001	41	-7,7954774E-006
2	0	0	1	1	5,690267019434331E+004	1,3124509E+000	1,3132142E+000	-5,250170156965689E-003	2,000000000000000E+000	-4,5283756E-001	41	-6,8945978E-006
2	0	0	1	1	5,714262869479034E+004	1,3364469E+000	1,3372746E+000	-4,513574398952641E-003	2,000000000000000E+000	-4,5399705E-001	42	-6,0358880E-006
2	0	0	1	1	5,738258669523732E+004	1,3604426E+000	1,3612157E+000	-3,766305721396320E-003	2,000000000000000E+000	-4,5497873E-001	42	-5,1267543E-006
2	0	0	1	1	5,762254519568430E+004	1,3844383E+000	1,3852352E+000	-2,991431154915014E-003	2,000000000000000E+000	-4,5577890E-001	42	-4,1438357E-006
2	0	0	1	1	5,786250379613122E+004	1,4084342E+000	1,4092234E+000	-2,160122987515320E-003	2,000000000000000E+000	-4,5638847E-001	42	-3,0440960E-006
2	0	0	1	1	5,810246269657835E+004	1,4324300E+000	1,4332188E+000	-1,263076330121607E-003	2,000000000000000E+000	-4,5679122E-001	42	-1,8102647E-006
2	0	0	1	1	5,834242069702502E+004	1,4564258E+000	1,4572164E+000	-2,412174226715599E-004	2,000000000000000E+000	-4,5696357E-001	43	-3,5150597E-007
2	1	0	1	1	5,858237919747210E+004	1,4804215E+000	1,4811857E+000	9,515759939669136E-004	2,000000000000000E+000	-4,5687461E-001	42	1,4094608E-006
2	1	0	1	1	5,882233779791906E+004	1,5044172E+000	1,5051719E+000	2,330944263466223E-003	2,000000000000000E+000	-4,5647550E-001	42	3,5084718E-006
2	1	0	1	1	5,906229639836599E+004	1,5284132E+000	1,5291125E+000	4,224211805453432E-003	2,000000000000000E+000	-4,5568955E-001	42	6,4592950E-006
2	1	0	1	1	5,930225529881287E+004	1,5524091E+000	1,5530829E+000	7,312708008480939E-003	2,000000000000000E+000	-4,5431933E-001	42	1,1357242E-005
2	1	0	1	1	5,954221329926001E+004	1,5764047E+000	1,5771494E+000	1,321074026138910E-002	2,000000000000000E+000	-4,5200121E-001	41	2,0835310E-005
2	1	0	1	1	5,978217179970686E+004	1,6004006E+000	1,6011233E+000	3,190185354353792E-002	2,000000000000000E+000	-4,4674814E-001	41	5,1078801E-005
2	1	0	1	1	6,002213040015381E+004	1,6243962E+000	1,6250757E+000	5,347641300031536E-002	2,000000000000000E+000	-4,3648496E-001	41	8,6903216E-005
2	1	0	1	1	6,026208900060074E+004	1,6483922E+000	1,6490496E+000	7,468337773214517E-002	2,000000000000000E+000	-4,2106667E-001	41	1,2315660E-004
2	1	0	1	1	6,050204790104786E+004	1,6723878E+000	1,6730310E+000	9,418140276354392E-002	2,000000000000000E+000	-4,0073603E-001	41	1,5756840E-004
2	1	0	1	1	6,074200640149461E+004	1,6963836E+000	1,6971562E+000	1,108627870669510E-001	2,000000000000000E+000	-3,7603685E-001	40	1,8815146E-004
2	1	0	1	1	6,098196500194160E+004	1,7203794E+000	1,7211524E+000	1,232446152256939E-001	2,000000000000000E+000	-3,4779578E-001	40	2,1212277E-004
2	1	0	1	1	6,122192360238847E+004	1,7443752E+000	1,7451195E+000	1,296619086819564E-001	2,000000000000000E+000	-3,1732658E-001	40	2,2627552E-004
2	1	0	1	1	6,146188150283555E+004	1,7683712E+000	1,7691258E+000	1,298081845838048E-001	2,000000000000000E+000	-2,8605345E-001	40	2,2964700E-004
2	1	0	1	1	6,170184050328250E+004	1,7923666E+000	1,7931100E+000	1,227414579778328E-001	2,000000000000000E+000	-2,5559747E-001	40	2,2008894E-004
2	1	0	1	1	6,194179900372948E+004	1,8163627E+000	1,8171147E+000	1,092138447273475E-001	2,000000000000000E+000	-2,2764798E-001	40	1,9845409E-004
2	1	0	1	1	6,218175760417638E+004	1,8403584E+000	1,8411535E+000	9,192511009537352E-002	2,000000000000000E+000	-2,0344959E-001	40	1,6924823E-004
2	1	0	1	1	6,242171560462337E+004	1,8643543E+000	1,8651100E+000	7,402997325498251E-002	2,000000000000000E+000	-1,8358436E-001	40	1,3807404E-004
2	1	0	1	1	6,266167410507030E+004	1,8883500E+000	1,8891066E+000	5,785196391749869E-002	2,000000000000000E+000	-1,6773742E-001	40	1,0928853E-004
2	1	0	1	1	6,290163310551725E+004	1,9123460E+000	1,9130957E+000	4,277382866324025E-002	2,000000000000000E+000	-1,5573701E-001	41	8,1830425E-005
2	1	0	1	1	6,314159160596435E+004	1,9363419E+000	1,9370778E+000	3,227650208747423E-002	2,000000000000000E+000	-1,4679293E-001	41	6,2522093E-005
2	1	0	1	1	6,338155020641116E+004	1,9603375E+000	1,9610949E+000	2,502259277435867E-002	2,000000000000000E+000	-1,3995242E-001	41	4,9071677E-005
2	1	0	1	1	6,362150820685813E+004	1,9843333E+000	1,9850963E+000	2,042841148205203E-002	2,000000000000000E+000	-1,3452458E-001	41	4,0552364E-005
2	1	0	1	1	6,386146730730531E+004	2,0083289E+000	2,0090983E+000	1,660155434010202E-002	2,000000000000000E+000	-1,3011745E-001	41	3,3354154E-005
2	1	0	1	1	6,410142680775211E+004	2,0323248E+000	2,0330701E+000	1,411357969874312E-002	2,000000000000000E+000	-1,2643382E-001	41	2,8693898E-005
2	1	0	1	1	6,434138480819913E+004	2,0563207E+000	2,0570736E+000	1,234867351271104E-002	2,000000000000000E+000	-1,2326359E-001	41	2,5402131E-005
2	1	0	1	1	6,458134280864603E+004	2,0803163E+000	2,0811133E+000	1,112196877163241E-002	2,000000000000000E+000	-1,2044360E-001	41	2,3146078E-005
2	1	0	1	1	6,482130190909281E+004	2,1043124E+000	2,1050661E+000	1,019008056832524E-002	2,000000000000000E+000	-1,1787377E-001	41	2,1450793E-005
2	1	0	1	1	6,506125990953995E+004	2,1283078E+000	2,1291142E+000	9,442394543678422E-003	2,000000000000000E+000	-1,1551028E-001	41	2,0103937E-005
2	1	0	1	1	6,530121820998692E+004	2,1523035E+000	2,1530807E+000	8,842772143011379E-003	2,000000000000000E+000	-1,1330669E-001	41	1,9039202E-005
2	1	0	1	1	6,554117740919837E+004	2,1762998E+000	2,1771057E+000	8,336089633452913E-003	2,000000000000000E+000	-1,1123387E-001	41	1,8148548E-005
2	1	0	1	1	6,578113645240571E+004	2,2002954E+000	2,2010674E+000	7,911349407719925E-003	2,000000000000000E+000	-1,0927614E-001	41	1,7413413E-005
2	1	0	1	1	6,602109319567686E+004	2,2242911E+000	2,2250593E+000	7,562676654160050E-003	2,000000000000000E+000	-1,0740998E-001	41	1,6827404E-005
2	1	0	1	1	6,626105233889003E+004	2,2482870E+000	2,2490685E+000	7,272255385890491E-003	2,000000000000000E+000	-1,0562038E-001	41	1,6355800E-005
2	1	0	1	1	6,650101178214792E+004	2,2722828E+000	2,2730432E+000	6,993149189737605E-003	2,000000000000000E+000	-1,0389741E-001	41	1,5895730E-005
2	1	0	1	1	6,674096972537908E+004	2,2962785E+000	2,2970767E+000	6,794656819707909E-003	2,000000000000000E+000	-1,0222133E-001	41	1,5607848E-005
2	1	0	1	1	6,698092756862100E+004	2,3202744E+000	2,3210688E+000	6,541882191103601E-003	2,000000000000000E+000	-1,0060473E-001	41	1,5184159E-005
2	1	0	1	1	6,722088671186659E+004	2,3442705E+000	2,3450334E+000	6,597079812023026E-003	2,000000000000000E+000	-9,8974019E-002	41	1,5470372E-005
2	1	0	1	1	6,746084455509292E+004	2,3682659E+000	2,3690708E+000	6,227139239672622E-003	2,000000000000000E+000	-9,7403929E-002	41	1,4752533E-005
2	1	0	1	1	6,770080289835425E+004	2,3922617E+000	2,3930497E+000	6,070163704606918E-003	2,000000000000000E+000	-9,5890187E-002	41	1,4526204E-005
2	1	0	1	1	6,794076204156550E+004	2,4162574E+000	2,4170234E+000	6,222040119184924E-003	2,000000000000000E+000	-9,4415076E-002	41	1,5038817E-005
2	1	0	1	1	6,818072108483850E+004	2,4402533E+000	2,4410625E+000	5,893262473429188E-003	2,000000000000000E+000	-9,2928901E-002	41	1,4385821E-005
2	1	0	1	1	6,842067782804603E+004	2,4642491E+000	2,4650471E+000	6,150408807652621E-003	2,000000000000000E+000	-9,1470979E-002	41	1,5161047E-005
2	1	0	1	1	6,866063687131763E+004	2,4882445E+000	2,4890287E+000	5,892240940338109E-003	2,000000000000000E+000	-8,9997396E-002	41	1,4665957E-005
2	1	0	1	1	6,890059641452553E+004	2,5122411E+000	2,5130527E+000	5,782179126927203E-003	2,000000000000000E+000	-8,8564038E-002	41	1,4530920E-005
2	1	0	1	1	6,914055425779306E+004	2,5362370E+000	2,5370417E+000	5,956496569868283E-003	2,000000000000000E+000	-8,7185755E-002	41	1,5111880E-005
2	1	0	1	1	6,938051220101281E+004	2,5602324E+000	2,5610611E+000	5,551294511310506E-003	2,000000000000000E+000	-8,5843317E-002	41	1,4217205E-005
2	1	0	1	1	6,962047124426509E+004	2,5842283E+000	2,5850732E+000	5,419875042374130E-003	2,000000000000000E+000	-8,4522918E-002	41	1,4010774E-005
2	1	0	1	1	6,986042918750062E+004	2,6082242E+000	2,6090574E+000	5,627416003288949E-003	2,000000000000000E+000	-8,3217502E-002	41	1,4682251E-005
2	1	0	1	1	7,010038753073546E+004	2,6322198E+000	2,6330309E+000	5,221991705799837E-003	2,000000000000000E+000	-8,1928238E-002	41	1,3749665E-005
2	1	0	1	1	7,034034657398798E+004	2,6562159E+000	2,6570394E+000	5,163568574395656E-003	2,000000000000000E+000	-8,0634601E-002	41	1,3719805E-005
2	1	0	1	1	7,058030571720749E+004	2,6802115E+000	2,6810005E+000	5,167373743757059E-003	2,000000000000000E+000	-7,9326734E-002	41	1,3853732E-005
2	1	0	1	1	7,082026236047549E+004	2,7042072E+000	2,7050138E+000	5,158751075372614E-003	2,000000000000000E+000	-7,7978633E-002	41	1,3954493E-005
2	1	0	1	1	7,106022150368313E+004	2,7282031E+000	2,7290378E+000	5,238191417002644E-003	2,000000000000000E+000	-7,6664306E-002	41	1,4295222E-005
2	1	0	1	1	7,130018104695540E+004	2,7521985E+000	2,7529838E+000	5,371283331359760E-003	2,000000000000000E+000	-7,5358734E-002	41	1,4787056E-005
2	1	0	1	1	7,154013769016275E+004	2,7761943E+000	2,7770073E+000	5,666045294201005E-003	2,000000000000000E+000	-7,4009128E-002	41	1,5734649E-005
2	1	0	1	1	7,178009683343582E+004	2,8001904E+000	2,8009892E+000	7,257705399084990E-003	2,000000000000000E+000	-7,2364248E-002	41	2,0328755E-005
2	1	0	1	1	7,202005587664666E+004	2,8241861E+000	2,8250225E+000	7,877860424569366E-003	2,000000000000000E+000	-7,0542604E-002	41	2,2255133E-005
2	1	0	1	1	7,226001381990791E+004	2,8481822E+000	2,8490162E+000	7,975436154161325E-003	2,000000000000000E+000	-6,8619385E-002	41	2,2722146E-005
2	1	0	1	1	7,249997206313489E+004	2,8721776E+000	2,8730278E+000	7,710122878163771E-003	2,000000000000000E+000	-6,6721156E-002	41	2,2151396E-005
2	1	0	1	1	7,273993120638048E+004	2,8961735E+000	2,8970163E+000	7,062382921968619E-003	2,000000000000000E+000	-6,4921960E-002	41	2,0459838E-005
2	1	0	1	1	7,297988904962223E+004	2,9201694E+000	2,9210236E+000	7,120648451484468E-003	2,000000000000000E+000	-6,3194260E-002	41	2,0799582E-005
2	1	0	1	1	7,321984699285310E+004	2,9441650E+000	2,9449859E+000	6,521565711269911E-003	2,000000000000000E+000	-6,1524682E-002	41	1,9205920E-005
2	1	0	1	1	7,345980613611080E+004	2,9681609E+000	2,9689803E+000	6,326134448698742E-003	2,000000000000000E+000	-5,9991654E-002	41	1,8782168E-005
2	1	0	1	1	7,369976557932363E+004	2,9921570E+000	2,9929922E+000	6,289939850580665E-003	2,000000000000000E+000	-5,8479346E-002	41	1,8825740E-005
2	1	0	1	0	7,392372432635236E+004	2,9854579E+000	2,9862580E+000	4,075892745843766E-003	2,000000000000000E+000	-5,7295300E-002	42	1,2171668E-005
2	1	0	1	0	7,416367866961053E+004	2,9614620E+000	2,9622941E+000	2,831128121866928E-003	2,000000000000000E+000	-5,6479961E-002	42	8,3866344E-006
2	1	0	1	0	7,440363541284204E+004	2,9374664E+000	2,9382784E+000	2,102020815059565E-003	2,000000000000000E+000	-5,5906873E-002	42	6,1763226E-006
2	1	0	1	0	7,464359205608279E+004	2,9134707E+000	2,9143071E+000	1,567552534731242E-003	2,000000000000000E+000	-5,5470936E-002	42	4,5683296E-006
2	1	0	1	0	7,488354659933000E+004	2,8894746E+000	2,8902886E+000	1,198400827407260E-003	2,000000000000000E+000	-5,5149291E-002	42	3,4637242E-006
2	1	0	1	0	7,512350114255550E+004	2,8654790E+000	2,8662927E+000	9,735141954855513E-004	2,000000000000000E+000	-5,4898202E-002	42	2,7903766E-006
2	1	0	1	0	7,536345788581832E+004	2,8414831E+000	2,8423240E+000	7,242204741530880E-004	2,000000000000000E+000	-5,4704558E-002	42	2,0584691E-006
2	1	0	1	0	7,560341342903033E+004	2,8174870E+000	2,8182642E+000	4,456160687167773E-004	2,000000000000000E+000	-5,4577876E-002	43	1,2558638E-006
2	1	0	1	0	7,584336887230398E+004	2,7934918E+000	2,7942975E+000	2,705086871053475E-004	2,000000000000000E+000	-5,4501574E-002	43	7,5588173E-007
2	1	0	1	0	7,608332461551158E+004	2,7694955E+000	2,7702868E+000	1,477142377349111E-004	2,000000000000000E+000	-5,4461546E-002	43	4,0921080E-007
2	1	0	1	0	7,632327915878478E+004	2,7455001E+000	2,7463276E+000	6,204369140860522E-005	2,000000000000000E+000	-5,4445487E-002	44	1,7039230E-007
2	0	0	1	0	7,656323470199388E+004	2,7215044E+000	2,7223384E+000	-2,362240097169486E-005	2,000000000000000E+000	-5,4452114E-002	44	-6,4308168E-008
2	0	0	1	0	7,680419034502422E+004	2,6974084E+000	2,6982560E+000	-1,141721381325707E-004	2,000000000000000E+000	-5,4478653E-002	43	-3,0806567E-007
2	0	0	1	0	7,704414708824840E+004	2,6734123E+000	2,6742580E+000	-2,112201645428702E-004	2,000000000000000E+000	-5,4526702E-002	43	-5,6485720E-007
2	0	0	1	0	7,728410283149686E+004	2,6494169E+000	2,6502759E+000	-3,401114732085745E-004	2,000000000000000E+000	-5,4599945E-002	43	-9,0138923E-007
2	0	0	1	0	7,752405727473740E+004	2,6254208E+000	2,6262715E+000	-4,559868969930998E-004	2,000000000000000E+000	-5,4704633E-002	43	-1,1975454E-006
2	0	0	1	0	7,776401281796908E+004	2,6014252E+000	2,6023207E+000	-5,291343006877795E-004	2,000000000000000E+000	-5,4833204E-002	43	-1,3769771E-006
2	0	0	1	0	7,800396956122585E+004	2,5774295E+000	2,5783002E+000	-5,828176275890305E-004	2,000000000000000E+000	-5,4973148E-002	43	-1,5026789E-006
2	0	0	1	0	7,824392510444205E+004	2,5534337E+000	2,5543153E+000	-6,534357840999525E-004	2,000000000000000E+000	-5,5128079E-002	43	-1,6690810E-006
2	0	0	1	0	7,848387954771286E+004	2,5294378E+000	2,5303690E+000	-7,504761487096686E-004	2,000000000000000E+000	-5,5304345E-002	43	-1,8989816E-006
2	0	0	1	0	7,872383529092080E+004	2,5054419E+000	2,5063465E+000	-7,890110203260595E-004	2,000000000000000E+000	-5,5493806E-002	43	-1,9775350E-006
2	0	0	1	0	7,896379083419428E+004	2,4814463E+000	2,4822440E+000	-9,237948457606598E-004	2,000000000000000E+000	-5,5711307E-002	42	-2,2930842E-006
2	0	0	1	0	7,920374637740245E+004	2,4574504E+000	2,4582191E+000	-1,006468429169199E-003	2,000000000000000E+000	-5,5952884E-002	42	-2,4741198E-006
2	0	0	1	0	7,944370302067441E+004	2,4334545E+000	2,4342687E+000	-1,059026424578280E-003	2,000000000000000E+000	-5,6211617E-002	42	-2,5779550E-006
2	0	0	1	0	7,968365876388922E+004	2,4094586E+000	2,4102349E+000	-1,087804306580804E-003	2,000000000000000E+000	-5,6482065E-002	42	-2,6218640E-006
2	0	0	1	0	7,992361210714863E+004	2,3854630E+000	2,3862484E+000	-1,234870871649880E-003	2,000000000000000E+000	-5,6771159E-002	42	-2,9467085E-006
2	0	0	1	0	8,016356885037886E+004	2,3614671E+000	2,3622494E+000	-1,258283594713196E-003	2,000000000000000E+000	-5,7078224E-002	42	-2,9723797E-006
2	0	0	1	0	8,040352549362136E+004	2,3374712E+000	2,3382752E+000	-1,335859110981979E-003	2,000000000000000E+000	-5,7398513E-002	42	-3,1236061E-006
2	0	0	1	0	8,064348103686748E+004	2,3134756E+000	2,3142614E+000	-1,407446905972243E-003	2,000000000000000E+000	-5,7737708E-002	42	-3,2572002E-006
2	0	0	1	0	8,088443577985547E+004	2,2893798E+000	2,2901661E+000	-1,490176522284919E-003	2,000000000000000E+000	-5,8092080E-002	42	-3,4127518E-006
2	0	0	1	0	8,112439022312165E+004	2,2653842E+000	2,2661927E+000	-1,572365327678397E-003	2,000000000000000E+000	-5,8469530E-002	42	-3,5632827E-006
2	0	0	0	0	8,128121508602216E+004	2,2496376E+000	2,2503650E+000	-1,756715865571058E-003	2,000000000000000E+000	-5,8728196E-002	42	-3,9532520E-006