File: Dati/210416_2/CV_LTO-CB_grafite nuova_15 layers__10_CV_C01.mpt
EC-Lab ASCII FILE
Nb header lines : 57

Cyclic Voltammetry

Run on channel : 1 (SN 6806)
User : Seelab
Electrode connection : standard
Ewe ctrl range : min = 0,00 V, max = 5,00 V
Ewe,I filtering : 50 kHz
Safety Limits :
	Do not start on E overload
Channel : Grounded
Acquisition started on : 04/16/2021 18:47:00
Saved on :
	File : CV_LTO-CB_grafite nuova_15 layers__10_CV_C01.mpr
	Directory : C:\Users\labsuperfici\Desktop\Biologic\Users\Prisca Viviani\210416_2\
	Host : 10.78.33.0
Device : VSP-300 (SN 0638)
Address : USB
EC-Lab for windows v11.31 (software)
Internet server v11.30 (firmware)
Command interpretor v11.31 (firmware)
Electrode material :
Initial state :
Electrolyte :
Comments :
Cable : standard
Reference electrode : SCE Saturated Calomel Electrode (0,241 V)
Electrode surface area : 0,001 cm²
Characteristic mass : 0,001 g
Equivalent Weight : 0,000 g/eq.
Density : 0,000 g/cm3
Cycle Definition : Charge/Discharge alternance
Ei (V)              0,000
vs.                 Eoc
dE/dt               0,900
dE/dt unit          mV/s
E1 (V)              1,000
vs.                 Ref
Step percent        50
N                   10
E range min (V)     0,000
E range max (V)     5,000
I Range             Auto
I Range min         Unset
I Range max         Unset
I Range init        Unset
Bandwidth           8
E2 (V)              3,000
vs.                 Ref
nc cycles           1
Reverse Scan        1
Ef (V)              0,000
vs.                 Eoc

mode	ox/red	error	control changes	counter inc.	time/s	control/V	Ewe/V	<I>/mA	cycle number	(Q-Qo)/C	I Range	P/W
2	0	0	0	0	2,187147864211868E+005	2,2496376E+000	2,2503841E+000	-1,089842431247234E-002	1,000000000000000E+000	0,0000000E+000	41	-2,4525641E-005
2	0	0	1	0	2,187409485252826E+005	2,2260909E+000	2,2269068E+000	-1,092256001420078E-002	1,000000000000000E+000	-2,7909101E-004	41	-2,4323523E-005
2	0	0	1	0	2,187676105294524E+005	2,2020953E+000	2,2028866E+000	-1,170213129358531E-002	1,000000000000000E+000	-5,8615068E-004	41	-2,5778469E-005
2	0	0	1	0	2,187942725336240E+005	2,1780994E+000	2,1789148E+000	-1,247461701437914E-002	1,000000000000000E+000	-9,1463019E-004	41	-2,7181128E-005
2	0	0	1	0	2,188209347377967E+005	2,1541033E+000	2,1549315E+000	-1,336398081804742E-002	1,000000000000000E+000	-1,2650295E-003	41	-2,8798464E-005
2	0	0	1	0	2,188475965419668E+005	2,1301079E+000	2,1309230E+000	-1,426909275559049E-002	1,000000000000000E+000	-1,6389745E-003	41	-3,0406338E-005
2	0	0	1	0	2,188742585461391E+005	2,1061120E+000	2,1069298E+000	-1,523800363098390E-002	1,000000000000000E+000	-2,0379990E-003	41	-3,2105403E-005
2	0	0	1	0	2,189009206503108E+005	2,0821159E+000	2,0828931E+000	-1,630210735845813E-002	1,000000000000000E+000	-2,4639920E-003	41	-3,3955548E-005
2	0	0	1	0	2,189275824544807E+005	2,0581205E+000	2,0589154E+000	-1,742045679565318E-002	1,000000000000000E+000	-2,9192523E-003	41	-3,5867248E-005
2	0	0	1	0	2,189542443586546E+005	2,0341249E+000	2,0349114E+000	-1,863808485577728E-002	1,000000000000000E+000	-3,4060359E-003	41	-3,7926849E-005
2	0	0	1	0	2,189809065628250E+005	2,0101287E+000	2,0109074E+000	-2,003082384166183E-002	1,000000000000000E+000	-3,9274963E-003	41	-4,0280131E-005
2	0	0	1	0	2,190075685669966E+005	1,9861332E+000	1,9869781E+000	-2,141762680662315E-002	1,000000000000000E+000	-4,4854078E-003	41	-4,2556356E-005
2	0	0	1	0	2,190342305711699E+005	1,9621372E+000	1,9629561E+000	-2,288956245277679E-002	1,000000000000000E+000	-5,0818543E-003	41	-4,4931207E-005
2	0	0	1	0	2,190608925753398E+005	1,9381415E+000	1,9389545E+000	-2,431642770955389E-002	1,000000000000000E+000	-5,7170247E-003	41	-4,7148445E-005
2	0	0	1	0	2,190875545795118E+005	1,9141457E+000	1,9149845E+000	-2,594657999536966E-002	1,000000000000000E+000	-6,3927285E-003	41	-4,9687296E-005
2	0	0	1	0	2,191142165836836E+005	1,8901500E+000	1,8909812E+000	-2,780443575871694E-002	1,000000000000000E+000	-7,1146549E-003	41	-5,2577667E-005
2	0	0	1	0	2,191408785878536E+005	1,8661541E+000	1,8669635E+000	-2,996408355365865E-002	1,000000000000000E+000	-7,8905877E-003	41	-5,5941851E-005
2	0	0	1	0	2,191675405920269E+005	1,8421583E+000	1,8429695E+000	-3,247722976440975E-002	1,000000000000000E+000	-8,7284641E-003	41	-5,9854545E-005
2	0	0	1	0	2,191942025961981E+005	1,8181624E+000	1,8189738E+000	-3,539705775773316E-002	1,000000000000000E+000	-9,6378373E-003	41	-6,4386317E-005
2	0	0	1	0	2,192208646003688E+005	1,7941667E+000	1,7949864E+000	-3,887671431536488E-002	1,000000000000000E+000	-1,0632242E-002	41	-6,9783171E-005
2	0	0	1	0	2,192475266045425E+005	1,7701709E+000	1,7710038E+000	-4,296066634016536E-002	1,000000000000000E+000	-1,1728355E-002	41	-7,6083503E-005
2	0	0	1	0	2,192741886087123E+005	1,7461749E+000	1,7469964E+000	-4,795549900756563E-002	1,000000000000000E+000	-1,2945347E-002	41	-8,3778083E-005
2	0	0	1	0	2,193008506128844E+005	1,7221793E+000	1,7230285E+000	-5,372598253223926E-002	1,000000000000000E+000	-1,4305225E-002	41	-9,2571405E-005
2	0	0	1	0	2,193275127170568E+005	1,6981834E+000	1,6990356E+000	-6,059864063791831E-002	1,000000000000000E+000	-1,5833080E-002	41	-1,0295925E-004
2	0	0	1	0	2,193541746212265E+005	1,6741878E+000	1,6750000E+000	-6,863199494363670E-002	1,000000000000000E+000	-1,7558830E-002	41	-1,1495859E-004
2	0	0	1	0	2,193808367253994E+005	1,6501919E+000	1,6510249E+000	-7,792071233325229E-002	1,000000000000000E+000	-1,9515455E-002	41	-1,2864904E-004
2	0	0	1	0	2,194074987295708E+005	1,6261960E+000	1,6270638E+000	-8,880317472743915E-002	1,000000000000000E+000	-2,1740383E-002	41	-1,4448843E-004
2	0	0	1	0	2,194341607337408E+005	1,6022004E+000	1,6030136E+000	-1,018307434732605E-001	1,000000000000000E+000	-2,4282534E-002	40	-1,6323607E-004
2	0	0	1	0	2,194608227379145E+005	1,5782045E+000	1,5789958E+000	-1,175406262749539E-001	1,000000000000000E+000	-2,7203938E-002	40	-1,8559616E-004
2	0	0	1	0	2,194874847420854E+005	1,5542086E+000	1,5549824E+000	-1,376785850482065E-001	1,000000000000000E+000	-3,0601947E-002	40	-2,1408778E-004
2	0	0	1	0	2,195141467462564E+005	1,5302129E+000	1,5310082E+000	-1,648857947943183E-001	1,000000000000000E+000	-3,4619473E-002	40	-2,5244150E-004
2	0	0	1	0	2,195408088504300E+005	1,5062170E+000	1,5070050E+000	-2,026505480442803E-001	1,000000000000000E+000	-3,9514937E-002	40	-3,0539540E-004
2	0	0	1	0	2,195674707545994E+005	1,4822212E+000	1,4830036E+000	-2,325189170966553E-001	1,000000000000000E+000	-4,5358893E-002	40	-3,4482640E-004
2	0	0	1	0	2,195941327587720E+005	1,4582254E+000	1,4590300E+000	-2,478667935714293E-001	1,000000000000000E+000	-5,1795796E-002	40	-3,6164510E-004
2	0	0	1	0	2,196207948629437E+005	1,4342296E+000	1,4350361E+000	-2,539513729147840E-001	1,000000000000000E+000	-5,8506660E-002	40	-3,6442938E-004
2	0	0	1	0	2,196474567671132E+005	1,4102340E+000	1,4110132E+000	-2,549721253323449E-001	1,000000000000000E+000	-6,5305434E-002	40	-3,5976904E-004
2	0	0	1	0	2,196741188712874E+005	1,3862380E+000	1,3870360E+000	-2,534531117659964E-001	1,000000000000000E+000	-7,2093911E-002	40	-3,5154857E-004
2	0	0	1	0	2,197007807754581E+005	1,3622423E+000	1,3630314E+000	-2,511932944501520E-001	1,000000000000000E+000	-7,8828655E-002	40	-3,4238436E-004
2	0	0	1	0	2,197274427796286E+005	1,3382466E+000	1,3390346E+000	-2,487358517121030E-001	1,000000000000000E+000	-8,5503429E-002	40	-3,3306589E-004
2	0	0	1	0	2,197541048838026E+005	1,3142505E+000	1,3150862E+000	-2,438133123145554E-001	1,000000000000000E+000	-9,2083037E-002	40	-3,2063553E-004
2	0	0	1	0	2,197807668879727E+005	1,2902550E+000	1,2910216E+000	-2,369949051420979E-001	1,000000000000000E+000	-9,8500863E-002	40	-3,0596554E-004
2	0	0	1	0	2,198074287921442E+005	1,2662591E+000	1,2670736E+000	-2,297388661966360E-001	1,000000000000000E+000	-1,0472891E-001	40	-2,9109605E-004
2	0	0	1	0	2,198340908963168E+005	1,2422632E+000	1,2430364E+000	-2,231500526740522E-001	1,000000000000000E+000	-1,1077072E-001	40	-2,7738363E-004
2	0	0	1	0	2,198607528004863E+005	1,2182674E+000	1,2190875E+000	-2,170129825707994E-001	1,000000000000000E+000	-1,1664241E-001	40	-2,6455781E-004
2	0	0	1	0	2,198874149046596E+005	1,1942716E+000	1,1950675E+000	-2,114834606636313E-001	1,000000000000000E+000	-1,2236025E-001	40	-2,5273702E-004
2	0	0	1	0	2,199140769088310E+005	1,1702758E+000	1,1710865E+000	-2,066744294726635E-001	1,000000000000000E+000	-1,2793945E-001	40	-2,4203364E-004
2	0	0	1	0	2,199407388130007E+005	1,1462801E+000	1,1470579E+000	-2,024584771958318E-001	1,000000000000000E+000	-1,3339840E-001	40	-2,3223160E-004
2	0	0	1	0	2,199674009171752E+005	1,1222843E+000	1,1230727E+000	-1,988525806573125E-001	1,000000000000000E+000	-1,3875090E-001	40	-2,2332591E-004
2	0	0	1	0	2,199940629213454E+005	1,0982885E+000	1,0990863E+000	-1,958448919962910E-001	1,000000000000000E+000	-1,4401747E-001	40	-2,1525043E-004
2	0	0	1	0	2,200207249255166E+005	1,0742928E+000	1,0751197E+000	-1,934962749061415E-001	1,000000000000000E+000	-1,4921151E-001	40	-2,0803166E-004
2	0	0	1	0	2,200473869296899E+005	1,0502968E+000	1,0511144E+000	-1,919356676272850E-001	1,000000000000000E+000	-1,5435405E-001	40	-2,0174636E-004
2	0	0	1	0	2,200740489338599E+005	1,0263011E+000	1,0271106E+000	-1,913208346911458E-001	1,000000000000000E+000	-1,5946704E-001	40	-1,9650765E-004
2	0	0	1	0	2,201007109380323E+005	1,0023053E+000	1,0030946E+000	-1,912175317281650E-001	1,000000000000000E+000	-1,6456965E-001	40	-1,9180926E-004
2	0	0	1	0	2,201261515420135E+005	1,0205022E+000	1,0212911E+000	-1,488532568845450E-001	1,000000000000000E+000	-1,6880400E-001	40	-1,5202251E-004
2	0	0	1	0	2,201528135461838E+005	1,0444980E+000	1,0452673E+000	-1,281631048879168E-001	1,000000000000000E+000	-1,7247091E-001	40	-1,3396471E-004
2	0	0	1	0	2,201794755503554E+005	1,0684937E+000	1,0692480E+000	-1,137171054819812E-001	1,000000000000000E+000	-1,7567943E-001	40	-1,2159178E-004
2	0	0	1	0	2,202061375545280E+005	1,0924895E+000	1,0932511E+000	-1,024517461858554E-001	1,000000000000000E+000	-1,7855048E-001	40	-1,1200549E-004
2	0	0	1	0	2,202327995586980E+005	1,1164852E+000	1,1172558E+000	-9,332606941611618E-002	1,000000000000000E+000	-1,8115254E-001	40	-1,0426909E-004
2	0	0	1	0	2,202594615628705E+005	1,1404811E+000	1,1412721E+000	-8,567264743984859E-002	1,000000000000000E+000	-1,8353151E-001	40	-9,7775803E-005
2	0	0	1	0	2,202861235670421E+005	1,1644769E+000	1,1652548E+000	-7,892966215082126E-002	1,000000000000000E+000	-1,8572007E-001	40	-9,1973168E-005
2	0	0	1	0	2,203127855712119E+005	1,1884725E+000	1,1892399E+000	-7,304965620120241E-002	1,000000000000000E+000	-1,8774013E-001	40	-8,6873566E-005
2	0	0	1	0	2,203394475753861E+005	1,2124685E+000	1,2132524E+000	-6,763973871178453E-002	1,000000000000000E+000	-1,8960990E-001	40	-8,2064078E-005
2	0	0	1	0	2,203661095795564E+005	1,2364643E+000	1,2372357E+000	-6,262481991462771E-002	1,000000000000000E+000	-1,9134144E-001	40	-7,7481658E-005
2	0	0	1	0	2,203927715837276E+005	1,2604603E+000	1,2612152E+000	-5,799418902619624E-002	1,000000000000000E+000	-1,9294415E-001	40	-7,3143150E-005
2	0	0	1	0	2,204194335879008E+005	1,2844559E+000	1,2852471E+000	-5,349966144065925E-002	1,000000000000000E+000	-1,9442466E-001	40	-6,8760281E-005
2	0	0	1	0	2,204460956920710E+005	1,3084518E+000	1,3092238E+000	-4,921008607551763E-002	1,000000000000000E+000	-1,9578905E-001	40	-6,4427011E-005
2	0	0	1	0	2,204727575962432E+005	1,3324475E+000	1,3332870E+000	-4,523350219693845E-002	1,000000000000000E+000	-1,9704655E-001	41	-6,0309241E-005
2	0	0	1	0	2,204994198004147E+005	1,3564433E+000	1,3572581E+000	-4,100208708981952E-002	1,000000000000000E+000	-1,9819202E-001	41	-5,5650413E-005
2	0	0	1	0	2,205260818045847E+005	1,3804392E+000	1,3812318E+000	-3,658968784904537E-002	1,000000000000000E+000	-1,9922227E-001	41	-5,0538842E-005
2	0	0	1	0	2,205527438087584E+005	1,4044348E+000	1,4052184E+000	-3,190682220130558E-002	1,000000000000000E+000	-2,0013167E-001	41	-4,4836052E-005
2	0	0	1	0	2,205794058129293E+005	1,4284308E+000	1,4292156E+000	-2,675437843613449E-002	1,000000000000000E+000	-2,0091058E-001	41	-3,8237773E-005
2	0	0	1	0	2,206060678170999E+005	1,4524266E+000	1,4532062E+000	-2,095721205817297E-002	1,000000000000000E+000	-2,0154396E-001	41	-3,0455150E-005
2	0	0	1	0	2,206327298212741E+005	1,4764224E+000	1,4772028E+000	-1,420918511212607E-002	1,000000000000000E+000	-2,0201084E-001	41	-2,0989848E-005
2	0	0	1	0	2,206593918254437E+005	1,5004182E+000	1,5011656E+000	-6,184945620010235E-003	1,000000000000000E+000	-2,0228142E-001	41	-9,2846276E-006
2	1	0	1	0	2,206860538296155E+005	1,5244138E+000	1,5251300E+000	3,626246265789605E-003	1,000000000000000E+000	-2,0231518E-001	42	5,5304972E-006
2	1	0	1	0	2,207127159337881E+005	1,5484096E+000	1,5491620E+000	1,625956322784977E-002	1,000000000000000E+000	-2,0205195E-001	41	2,5188698E-005
2	1	0	1	0	2,207393779379579E+005	1,5724056E+000	1,5731258E+000	3,206097096112792E-002	1,000000000000000E+000	-2,0141290E-001	41	5,0435941E-005
2	1	0	1	0	2,207660400421307E+005	1,5964012E+000	1,5971078E+000	6,053561595974966E-002	1,000000000000000E+000	-2,0023109E-001	41	9,6681899E-005
2	1	0	1	0	2,207927020463019E+005	1,6203971E+000	1,6211427E+000	1,186292321619552E-001	1,000000000000000E+000	-1,9789222E-001	40	1,9231492E-004
2	1	0	1	0	2,208193640504726E+005	1,6443931E+000	1,6451366E+000	1,913392692164423E-001	1,000000000000000E+000	-1,9377229E-001	40	3,1477923E-004
2	1	0	1	0	2,208460260546464E+005	1,6683888E+000	1,6690965E+000	2,686903295152749E-001	1,000000000000000E+000	-1,8763785E-001	40	4,4847009E-004
2	1	0	1	0	2,208726880588166E+005	1,6923846E+000	1,6931057E+000	3,460079401558469E-001	1,000000000000000E+000	-1,7943045E-001	40	5,8582803E-004
2	1	0	1	0	2,208993502629879E+005	1,7163804E+000	1,7170706E+000	4,179926093545649E-001	1,000000000000000E+000	-1,6921899E-001	40	7,1772281E-004
2	1	0	1	0	2,209260122671612E+005	1,7403761E+000	1,7410580E+000	4,787472080866904E-001	1,000000000000000E+000	-1,5722492E-001	40	8,3352666E-004
2	1	0	1	0	2,209526742713309E+005	1,7643719E+000	1,7650365E+000	5,219158757792073E-001	1,000000000000000E+000	-1,4383191E-001	40	9,2120055E-004
2	1	0	1	0	2,209793361755027E+005	1,7883677E+000	1,7890601E+000	5,419392225186641E-001	1,000000000000000E+000	-1,2958471E-001	40	9,6956186E-004
2	1	0	1	0	2,210059982796750E+005	1,8123634E+000	1,8130219E+000	5,350406557467178E-001	1,000000000000000E+000	-1,1515907E-001	40	9,7004045E-004
2	1	0	1	0	2,210326602838449E+005	1,8363594E+000	1,8370751E+000	5,016906259095225E-001	1,000000000000000E+000	-1,0127527E-001	40	9,2164334E-004
2	1	0	1	0	2,210593221880184E+005	1,8603550E+000	1,8610340E+000	4,475931423406774E-001	1,000000000000000E+000	-8,8581219E-002	40	8,3298609E-004
2	1	0	1	0	2,210859842921892E+005	1,8843509E+000	1,8850505E+000	3,825485908333395E-001	1,000000000000000E+000	-7,7499762E-002	40	7,2112342E-004
2	1	0	1	0	2,211126463963604E+005	1,9083469E+000	1,9090450E+000	3,171543109705537E-001	1,000000000000000E+000	-6,8177730E-002	40	6,0546183E-004
2	1	0	1	0	2,211393085005339E+005	1,9323425E+000	1,9330761E+000	2,572806673361310E-001	1,000000000000000E+000	-6,0530465E-002	40	4,9734314E-004
2	1	0	1	0	2,211659703047039E+005	1,9563383E+000	1,9570712E+000	2,060481228092006E-001	1,000000000000000E+000	-5,4372378E-002	40	4,0325083E-004
2	1	0	1	0	2,211926324088755E+005	1,9803343E+000	1,9810574E+000	1,655478899830867E-001	1,000000000000000E+000	-4,9436886E-002	40	3,2795986E-004
2	1	0	1	0	2,212192945130479E+005	2,0043299E+000	2,0050967E+000	1,352110799463404E-001	1,000000000000000E+000	-4,5441404E-002	40	2,7111129E-004
2	1	0	1	0	2,212459565172179E+005	2,0283258E+000	2,0290737E+000	1,129548782404372E-001	1,000000000000000E+000	-4,2142007E-002	40	2,2919377E-004
2	1	0	1	0	2,212726185213909E+005	2,0523217E+000	2,0530660E+000	9,638151950095208E-002	1,000000000000000E+000	-3,9356533E-002	40	1,9787763E-004
2	1	0	1	0	2,212992808255623E+005	2,0763171E+000	2,0770855E+000	8,384909144604169E-002	1,000000000000000E+000	-3,6954891E-002	40	1,7416173E-004
2	1	0	1	0	2,213259429297331E+005	2,1003129E+000	2,1010706E+000	7,428240829744592E-002	1,000000000000000E+000	-3,4844533E-002	40	1,5607259E-004
2	1	0	1	0	2,213526047339067E+005	2,1243088E+000	2,1250577E+000	6,699670030903931E-002	1,000000000000000E+000	-3,2957926E-002	40	1,4237185E-004
2	1	0	1	0	2,213792667380765E+005	2,1483045E+000	2,1490607E+000	6,121211512378036E-002	1,000000000000000E+000	-3,1245105E-002	40	1,3154856E-004
2	1	0	1	0	2,214059289422487E+005	2,1723006E+000	2,1730547E+000	5,662216262203588E-002	1,000000000000000E+000	-2,9670073E-002	40	1,2304305E-004
2	1	0	1	0	2,214325907464209E+005	2,1962962E+000	2,1970761E+000	5,289194556196075E-002	1,000000000000000E+000	-2,8206266E-002	40	1,1620763E-004
2	1	0	1	0	2,214592527505909E+005	2,2202921E+000	2,2210839E+000	4,966415752783632E-002	1,000000000000000E+000	-2,6834389E-002	40	1,1030826E-004
2	1	0	1	0	2,214860259547816E+005	2,2443879E+000	2,2451284E+000	4,673234836459889E-002	1,000000000000000E+000	-2,5539298E-002	41	1,0492012E-004
2	1	0	1	0	2,215126881589522E+005	2,2683835E+000	2,2690914E+000	4,451316562966615E-002	1,000000000000000E+000	-2,4317168E-002	41	1,0100444E-004
2	1	0	1	0	2,215393500631233E+005	2,2923791E+000	2,2931111E+000	4,265245186629818E-002	1,000000000000000E+000	-2,3149636E-002	41	9,7806813E-005
2	1	0	1	0	2,215660119672967E+005	2,3163750E+000	2,3171005E+000	4,101855658002125E-002	1,000000000000000E+000	-2,2028418E-002	41	9,5044117E-005
2	1	0	1	0	2,215926741714661E+005	2,3403711E+000	2,3410828E+000	3,962154505261217E-002	1,000000000000000E+000	-2,0947497E-002	41	9,2757320E-005
2	1	0	1	0	2,216193361756387E+005	2,3643670E+000	2,3651042E+000	3,846984627697903E-002	1,000000000000000E+000	-1,9900559E-002	41	9,0985195E-005
2	1	0	1	0	2,216459979798105E+005	2,3883624E+000	2,3891020E+000	3,751426532635430E-002	1,000000000000000E+000	-1,8881690E-002	41	8,9625406E-005
2	1	0	1	0	2,216726601839801E+005	2,4123583E+000	2,4131236E+000	3,682434110613897E-002	1,000000000000000E+000	-1,7884174E-002	41	8,8861685E-005
2	1	0	1	0	2,216993223881545E+005	2,4363542E+000	2,4370565E+000	3,612722536997703E-002	1,000000000000000E+000	-1,6905600E-002	41	8,8044093E-005
2	1	0	1	0	2,217259842923249E+005	2,4603500E+000	2,4610932E+000	3,523393824927112E-002	1,000000000000000E+000	-1,5947226E-002	41	8,6714004E-005
2	1	0	1	0	2,217526461964957E+005	2,4843454E+000	2,4851179E+000	3,437297409957649E-002	1,000000000000000E+000	-1,5012626E-002	41	8,5420892E-005
2	1	0	1	0	2,217793084006696E+005	2,5083416E+000	2,5091078E+000	3,356268274823923E-002	1,000000000000000E+000	-1,4101110E-002	41	8,4212392E-005
2	1	0	1	0	2,218059703048394E+005	2,5323374E+000	2,5331435E+000	3,292220343965657E-002	1,000000000000000E+000	-1,3208659E-002	41	8,3396670E-005
2	1	0	1	0	2,218326322090114E+005	2,5563331E+000	2,5571179E+000	3,219530633597012E-002	1,000000000000000E+000	-1,2334996E-002	41	8,2327198E-005
2	1	0	1	0	2,218592944131834E+005	2,5803289E+000	2,5810943E+000	3,154545699573047E-002	1,000000000000000E+000	-1,1479667E-002	41	8,1421800E-005
2	1	0	1	0	2,218859564173529E+005	2,6043251E+000	2,6050978E+000	3,120127539309575E-002	1,000000000000000E+000	-1,0637381E-002	41	8,1282371E-005
2	1	0	1	0	2,219126184215266E+005	2,6283205E+000	2,6291103E+000	3,115869954240685E-002	1,000000000000000E+000	-9,7990222E-003	41	8,1919658E-005
2	1	0	1	0	2,219392804256977E+005	2,6523163E+000	2,6531062E+000	3,071716829234591E-002	1,000000000000000E+000	-8,9662001E-003	41	8,1495913E-005
2	1	0	1	0	2,219659426298682E+005	2,6763124E+000	2,6770945E+000	3,001483252057457E-002	1,000000000000000E+000	-8,1501156E-003	41	8,0352540E-005
2	1	0	1	0	2,219926044340422E+005	2,7003081E+000	2,7010918E+000	2,941466724803501E-002	1,000000000000000E+000	-7,3531033E-003	41	7,9451718E-005
2	1	0	1	0	2,220192664382121E+005	2,7243035E+000	2,7250960E+000	2,892520107612168E-002	1,000000000000000E+000	-6,5705846E-003	41	7,8823949E-005
2	1	0	1	0	2,220459286423838E+005	2,7482998E+000	2,7490518E+000	2,868646978757719E-002	1,000000000000000E+000	-5,7971086E-003	41	7,8860590E-005
2	1	0	1	0	2,220725905465563E+005	2,7722952E+000	2,7730598E+000	2,858569895182295E-002	1,000000000000000E+000	-5,0280741E-003	41	7,9269856E-005
2	1	0	1	0	2,220992526507266E+005	2,7962914E+000	2,7971034E+000	2,871830671082903E-002	1,000000000000000E+000	-4,2584771E-003	41	8,0328071E-005
2	1	0	1	0	2,221259146548989E+005	2,8202870E+000	2,8211200E+000	2,900128787520612E-002	1,000000000000000E+000	-3,4830312E-003	41	8,1816113E-005
2	1	0	1	0	2,221525766590703E+005	2,8442826E+000	2,8450887E+000	2,920296410716656E-002	1,000000000000000E+000	-2,7005135E-003	41	8,3085026E-005
2	1	0	1	0	2,221792386632403E+005	2,8682785E+000	2,8690970E+000	2,907237968057059E-002	1,000000000000000E+000	-1,9165671E-003	41	8,3411476E-005
2	1	0	1	0	2,222059006674145E+005	2,8922744E+000	2,8930855E+000	2,884932054884468E-002	1,000000000000000E+000	-1,1378860E-003	41	8,3463550E-005
2	1	0	1	0	2,222325627715850E+005	2,9162700E+000	2,9170489E+000	2,867975527777361E-002	1,000000000000000E+000	-3,6460886E-004	41	8,3660248E-005
2	1	0	1	0	2,222592246757559E+005	2,9402659E+000	2,9410708E+000	2,864389062059125E-002	1,000000000000000E+000	4,0556697E-004	41	8,4243708E-005
2	1	0	1	0	2,222858866799297E+005	2,9642618E+000	2,9650495E+000	2,870298029267931E-002	1,000000000000000E+000	1,1752028E-003	41	8,5105756E-005
2	1	0	1	0	2,223125488840993E+005	2,9882579E+000	2,9890504E+000	2,885301983624547E-002	1,000000000000000E+000	1,9476601E-003	41	8,6243133E-005
2	1	0	1	1	2,223373220879766E+005	2,9894574E+000	2,9902878E+000	1,775617129860725E-002	1,000000000000000E+000	2,5673569E-003	41	5,3096061E-005
2	1	0	1	1	2,223639840921473E+005	2,9654617E+000	2,9662588E+000	1,187148887883850E-002	1,000000000000000E+000	2,9458667E-003	41	3,5213907E-005
2	1	0	1	1	2,223906462963186E+005	2,9414654E+000	2,9422545E+000	8,515134406043536E-003	1,000000000000000E+000	3,2080400E-003	41	2,5053692E-005
2	1	0	1	1	2,224173082004921E+005	2,9174697E+000	2,9183083E+000	6,285110456072943E-003	1,000000000000000E+000	3,3975954E-003	41	1,8341891E-005
2	1	0	1	1	2,224439701046620E+005	2,8934743E+000	2,8942707E+000	4,541279144278126E-003	1,000000000000000E+000	3,5349240E-003	42	1,3143691E-005
2	1	0	1	1	2,224706322088335E+005	2,8694780E+000	2,8702798E+000	3,230160050061215E-003	1,000000000000000E+000	3,6324367E-003	42	9,2714627E-006
2	1	0	1	1	2,224972942130060E+005	2,8454823E+000	2,8462818E+000	2,092326628904635E-003	1,000000000000000E+000	3,6977630E-003	42	5,9553513E-006
2	1	0	1	1	2,225239561171762E+005	2,8214869E+000	2,8222959E+000	1,199189888451378E-003	1,000000000000000E+000	3,7359865E-003	42	3,3844688E-006
2	1	0	1	1	2,225506182213486E+005	2,7974904E+000	2,7983465E+000	5,027154310406137E-004	1,000000000000000E+000	3,7525897E-003	42	1,4067720E-006
2	1	0	1	1	2,225772800255204E+005	2,7734950E+000	2,7743199E+000	-1,350599764470338E-004	1,000000000000000E+000	3,7516325E-003	42	-3,7469957E-007
2	0	0	1	1	2,226039419296905E+005	2,7494993E+000	2,7503407E+000	-6,711677158056494E-004	1,000000000000000E+000	3,7351497E-003	42	-1,8459399E-006
2	0	0	1	1	2,226306041338644E+005	2,7255032E+000	2,7263443E+000	-1,217952215148053E-003	1,000000000000000E+000	3,7040066E-003	42	-3,3205572E-006
2	0	0	1	1	2,226572661380345E+005	2,7015073E+000	2,7023761E+000	-1,751317561542391E-003	1,000000000000000E+000	3,6588125E-003	42	-4,7327189E-006
2	0	0	1	1	2,226839279422062E+005	2,6775122E+000	2,6783760E+000	-2,332996553354132E-003	1,000000000000000E+000	3,5987860E-003	42	-6,2486420E-006
2	0	0	1	1	2,227105901463793E+005	2,6535158E+000	2,6543686E+000	-3,066203023750859E-003	1,000000000000000E+000	3,5220888E-003	42	-8,1388334E-006
2	0	0	1	1	2,227372521505493E+005	2,6295204E+000	2,6303761E+000	-3,969701083862374E-003	1,000000000000000E+000	3,4238365E-003	42	-1,0441807E-005
2	0	0	1	1	2,227639140547211E+005	2,6055248E+000	2,6064250E+000	-4,726067621926046E-003	1,000000000000000E+000	3,3011232E-003	42	-1,2318141E-005
2	0	0	1	1	2,227905759588932E+005	2,5815289E+000	2,5823925E+000	-4,985038362437424E-003	1,000000000000000E+000	3,1641505E-003	42	-1,2873325E-005
2	0	0	1	1	2,228172379630632E+005	2,5575333E+000	2,5584064E+000	-5,281612741154030E-003	1,000000000000000E+000	3,0220589E-003	42	-1,3512512E-005
2	0	0	1	1	2,228439000672363E+005	2,5335371E+000	2,5344031E+000	-5,686719498626903E-003	1,000000000000000E+000	2,8709162E-003	42	-1,4412440E-005
2	0	0	1	1	2,228705619714077E+005	2,5095410E+000	2,5104721E+000	-6,200806210562763E-003	1,000000000000000E+000	2,7067803E-003	42	-1,5566951E-005
2	0	0	1	1	2,228972239755783E+005	2,4855456E+000	2,4864562E+000	-6,776311003666855E-003	1,000000000000000E+000	2,5283776E-003	42	-1,6849001E-005
2	0	0	1	1	2,229238861797522E+005	2,4615498E+000	2,4624746E+000	-7,287513010477558E-003	1,000000000000000E+000	2,3361105E-003	42	-1,7945316E-005
2	0	0	1	1	2,229505479839218E+005	2,4375539E+000	2,4384615E+000	-7,786381536244232E-003	1,000000000000000E+000	2,1297312E-003	42	-1,8986791E-005
2	0	0	1	1	2,229772098880936E+005	2,4135580E+000	2,4144611E+000	-8,183804561190250E-003	1,000000000000000E+000	1,9109668E-003	42	-1,9759478E-005
2	0	0	1	1	2,230038719922665E+005	2,3895624E+000	2,3904576E+000	-8,454931286859674E-003	1,000000000000000E+000	1,6836146E-003	42	-2,0211155E-005
2	0	0	1	1	2,230305338964360E+005	2,3655663E+000	2,3664317E+000	-8,723059857938906E-003	1,000000000000000E+000	1,4493557E-003	42	-2,0642525E-005
2	0	0	1	1	2,230571959006088E+005	2,3415706E+000	2,3424730E+000	-9,011725862152205E-003	1,000000000000000E+000	1,2069886E-003	42	-2,1109725E-005
2	0	0	1	1	2,230838580047804E+005	2,3175750E+000	2,3183637E+000	-9,427005730035964E-003	1,000000000000000E+000	9,5457328E-004	41	-2,1855227E-005
2	0	0	1	1	2,231105199089502E+005	2,2935791E+000	2,2943940E+000	-9,813474093407798E-003	1,000000000000000E+000	6,9178827E-004	41	-2,2515977E-005
2	0	0	1	1	2,231371819131239E+005	2,2695832E+000	2,2703743E+000	-1,035421580177956E-002	1,000000000000000E+000	4,1680786E-004	41	-2,3507946E-005
2	0	0	1	1	2,231622886170517E+005	2,2469873E+000	2,2477670E+000	-1,085600118501925E-002	2,000000000000000E+000	1,4500458E-004	41	-2,4401761E-005
2	0	0	1	1	2,231889506212235E+005	2,2229915E+000	2,2237806E+000	-1,148178764876281E-002	2,000000000000000E+000	-1,5841686E-004	41	-2,5532978E-005
2	0	0	1	1	2,232156124253939E+005	2,1989958E+000	2,1998036E+000	-1,214284236129667E-002	2,000000000000000E+000	-4,7907408E-004	41	-2,6711868E-005
2	0	0	1	1	2,232422746295668E+005	2,1750002E+000	2,1757913E+000	-1,292150190768699E-002	2,000000000000000E+000	-8,1870292E-004	41	-2,8114491E-005
2	0	0	1	1	2,232689366337378E+005	2,1510041E+000	2,1518054E+000	-1,366979284727388E-002	2,000000000000000E+000	-1,1791897E-003	41	-2,9414734E-005
2	0	0	1	1	2,232955985379079E+005	2,1270082E+000	2,1278150E+000	-1,458965597786285E-002	2,000000000000000E+000	-1,5620643E-003	41	-3,1044088E-005
2	0	0	1	1	2,233222606420824E+005	2,1030128E+000	2,1038496E+000	-1,557539580401027E-002	2,000000000000000E+000	-1,9694618E-003	41	-3,2768290E-005
2	0	0	1	1	2,233489226462526E+005	2,0790167E+000	2,0798025E+000	-1,662460708716094E-002	2,000000000000000E+000	-2,4041876E-003	41	-3,4575900E-005
2	0	0	1	1	2,233755845504235E+005	2,0550208E+000	2,0558140E+000	-1,775884840246333E-002	2,000000000000000E+000	-2,8681066E-003	41	-3,6508889E-005
2	0	0	1	1	2,234022464545972E+005	2,0310254E+000	2,0318227E+000	-1,900849505127589E-002	2,000000000000000E+000	-3,3639062E-003	41	-3,8621893E-005
2	0	0	1	1	2,234289084587670E+005	2,0070293E+000	2,0078428E+000	-2,034981784568662E-002	2,000000000000000E+000	-3,8941284E-003	41	-4,0859235E-005
2	0	0	1	1	2,234555706629390E+005	1,9830337E+000	1,9838415E+000	-2,177723599113174E-002	2,000000000000000E+000	-4,4618300E-003	41	-4,3202584E-005
2	0	0	1	1	2,234822325671104E+005	1,9590377E+000	1,9598584E+000	-2,326229273852853E-002	2,000000000000000E+000	-5,0681885E-003	41	-4,5590801E-005
2	0	0	1	1	2,235088945712806E+005	1,9350421E+000	1,9358718E+000	-2,474953315067890E-002	2,000000000000000E+000	-5,7138833E-003	41	-4,7911923E-005
2	0	0	1	1	2,235355566754546E+005	1,9110463E+000	1,9118800E+000	-2,642002419408956E-002	2,000000000000000E+000	-6,4016222E-003	41	-5,0511917E-005
2	0	0	1	1	2,235622186796251E+005	1,8870503E+000	1,8878489E+000	-2,841949307339758E-002	2,000000000000000E+000	-7,1384069E-003	41	-5,3651707E-005
2	0	0	1	1	2,235888806837965E+005	1,8630546E+000	1,8638774E+000	-3,063479962253099E-002	2,000000000000000E+000	-7,9312492E-003	41	-5,7099511E-005
2	0	0	1	1	2,236155426879702E+005	1,8390589E+000	1,8398623E+000	-3,330582308598662E-002	2,000000000000000E+000	-8,7892581E-003	41	-6,1278130E-005
2	0	0	1	1	2,236422045921398E+005	1,8150631E+000	1,8158538E+000	-3,637451939534520E-002	2,000000000000000E+000	-9,7227460E-003	41	-6,6050809E-005
2	0	0	1	1	2,236688666963116E+005	1,7910672E+000	1,7918576E+000	-3,998339155584450E-002	2,000000000000000E+000	-1,0745328E-002	41	-7,1644543E-005
2	0	0	1	1	2,236955287004840E+005	1,7670714E+000	1,7678710E+000	-4,428981132200183E-002	2,000000000000000E+000	-1,1874651E-002	41	-7,8298675E-005
2	0	0	1	1	2,237221906046537E+005	1,7430756E+000	1,7439191E+000	-4,946542542622549E-002	2,000000000000000E+000	-1,3129394E-002	41	-8,6263703E-005
2	0	0	1	1	2,237488527088268E+005	1,7190799E+000	1,7199322E+000	-5,554544396560035E-002	2,000000000000000E+000	-1,4533279E-002	41	-9,5534400E-005
2	0	0	1	1	2,237755147129978E+005	1,6950841E+000	1,6959363E+000	-6,260501348860692E-002	2,000000000000000E+000	-1,6112957E-002	41	-1,0617411E-004
2	0	0	1	1	2,238021767171687E+005	1,6710881E+000	1,6719173E+000	-7,098653064391725E-002	2,000000000000000E+000	-1,7897485E-002	41	-1,1868361E-004
2	0	0	1	1	2,238288387213424E+005	1,6470925E+000	1,6479470E+000	-8,059329189013265E-002	2,000000000000000E+000	-1,9920519E-002	41	-1,3281347E-004
2	0	0	1	1	2,238555007255124E+005	1,6230967E+000	1,6240159E+000	-9,184756293433061E-002	2,000000000000000E+000	-2,2222308E-002	41	-1,4916190E-004
2	0	0	1	1	2,238821627296843E+005	1,5991008E+000	1,5999050E+000	-1,053981674941209E-001	2,000000000000000E+000	-2,4856521E-002	40	-1,6862706E-004
2	0	0	1	1	2,239088247338571E+005	1,5751050E+000	1,5758791E+000	-1,223288915546581E-001	2,000000000000000E+000	-2,7891312E-002	40	-1,9277554E-004
2	0	0	1	1	2,239354867380271E+005	1,5511092E+000	1,5518968E+000	-1,438937719818263E-001	2,000000000000000E+000	-3,1434853E-002	40	-2,2330829E-004
2	0	0	1	1	2,239621487421989E+005	1,5271134E+000	1,5278841E+000	-1,740697456964941E-001	2,000000000000000E+000	-3,5653893E-002	40	-2,6595840E-004
2	0	0	1	1	2,239888107463709E+005	1,5031177E+000	1,5039102E+000	-2,140318504672116E-001	2,000000000000000E+000	-4,0836699E-002	40	-3,2188467E-004
2	0	0	1	1	2,240154728505407E+005	1,4791218E+000	1,4799469E+000	-2,426374270186861E-001	2,000000000000000E+000	-4,6968646E-002	40	-3,5909051E-004
2	0	0	1	1	2,240421347547146E+005	1,4551260E+000	1,4559158E+000	-2,564606422551958E-001	2,000000000000000E+000	-5,3654101E-002	40	-3,7338509E-004
2	0	0	1	1	2,240687967588855E+005	1,4311302E+000	1,4319459E+000	-2,614227248147307E-001	2,000000000000000E+000	-6,0579333E-002	40	-3,7434322E-004
2	0	0	1	1	2,240954587630564E+005	1,4071345E+000	1,4079485E+000	-2,615180297250886E-001	2,000000000000000E+000	-6,7565598E-002	40	-3,6820391E-004
2	0	0	1	1	2,241221207672302E+005	1,3831387E+000	1,3839610E+000	-2,594771715233133E-001	2,000000000000000E+000	-7,4520521E-002	40	-3,5910629E-004
2	0	0	1	1	2,241487828713997E+005	1,3591428E+000	1,3599563E+000	-2,569055453212759E-001	2,000000000000000E+000	-8,1409663E-002	40	-3,4938031E-004
2	0	0	1	1	2,241754447755720E+005	1,3351470E+000	1,3359580E+000	-2,536873180714192E-001	2,000000000000000E+000	-8,8228658E-002	40	-3,3891559E-004
2	0	0	1	1	2,242021067797439E+005	1,3111513E+000	1,3119525E+000	-2,478220154729267E-001	2,000000000000000E+000	-9,4926164E-002	40	-3,2513071E-004
2	0	0	1	1	2,242287688839138E+005	1,2871554E+000	1,2879415E+000	-2,404394177870481E-001	2,000000000000000E+000	-1,0144309E-001	40	-3,0967189E-004
2	0	0	1	1	2,242554307880867E+005	1,2631595E+000	1,2639174E+000	-2,329896906546747E-001	2,000000000000000E+000	-1,0775971E-001	40	-2,9447975E-004
2	0	0	1	1	2,242820927922582E+005	1,2391639E+000	1,2399752E+000	-2,259966944700986E-001	2,000000000000000E+000	-1,1388280E-001	40	-2,8023031E-004
2	0	0	1	1	2,243087548964284E+005	1,2151680E+000	1,2159915E+000	-2,196600750353962E-001	2,000000000000000E+000	-1,1983050E-001	40	-2,6710477E-004
2	0	0	1	1	2,243354168006023E+005	1,1911722E+000	1,1919839E+000	-2,140227932194074E-001	2,000000000000000E+000	-1,2561773E-001	40	-2,5511172E-004
2	0	0	1	1	2,243620789047728E+005	1,1671764E+000	1,1679677E+000	-2,089810750323546E-001	2,000000000000000E+000	-1,3126130E-001	40	-2,4408314E-004
2	0	0	1	1	2,243887409089440E+005	1,1431805E+000	1,1439409E+000	-2,047717009122061E-001	2,000000000000000E+000	-1,3678154E-001	40	-2,3424673E-004
2	0	0	1	1	2,244154028131173E+005	1,1191850E+000	1,1199536E+000	-2,009256528908141E-001	2,000000000000000E+000	-1,4219384E-001	40	-2,2502741E-004
2	0	0	1	1	2,244420649172866E+005	1,0951890E+000	1,0959437E+000	-1,977717397397984E-001	2,000000000000000E+000	-1,4751168E-001	40	-2,1674669E-004
2	0	0	1	1	2,244687269214592E+005	1,0711932E+000	1,0719861E+000	-1,952751918396158E-001	2,000000000000000E+000	-1,5275414E-001	40	-2,0933228E-004
2	0	0	1	1	2,244953889256308E+005	1,0471973E+000	1,0479851E+000	-1,936808638924705E-001	2,000000000000000E+000	-1,5794459E-001	40	-2,0297465E-004
2	0	0	1	1	2,245220509298006E+005	1,0232016E+000	1,0239975E+000	-1,929574167542695E-001	2,000000000000000E+000	-1,6310322E-001	40	-1,9758793E-004
2	0	0	0	1	2,245478803338427E+005	9,9995601E-001	1,0007634E+000	-1,932334135082889E-001	2,000000000000000E+000	-1,6809452E-001	40	-1,9338093E-004
2	0	0	1	1	2,245740424379385E+005	1,0235015E+000	1,0242614E+000	-1,473990542268842E-001	2,000000000000000E+000	-1,7236412E-001	40	-1,5097516E-004
2	0	0	1	1	2,246007045421081E+005	1,0474974E+000	1,0482577E+000	-1,276552508814008E-001	2,000000000000000E+000	-1,7600648E-001	40	-1,3381560E-004
2	0	0	1	1	2,246273665462802E+005	1,0714931E+000	1,0722883E+000	-1,134904457387117E-001	2,000000000000000E+000	-1,7920743E-001	40	-1,2169447E-004
2	0	0	1	1	2,246540285504523E+005	1,0954890E+000	1,0962688E+000	-1,027164713816850E-001	2,000000000000000E+000	-1,8207988E-001	40	-1,1260486E-004
2	0	0	1	1	2,246806905546223E+005	1,1194849E+000	1,1202345E+000	-9,380127078710365E-002	2,000000000000000E+000	-1,8469089E-001	40	-1,0507942E-004
2	0	0	1	1	2,247073524587955E+005	1,1434807E+000	1,1442068E+000	-8,629271783704628E-002	2,000000000000000E+000	-1,8708386E-001	40	-9,8736709E-005
2	0	0	1	1	2,247340145629667E+005	1,1674763E+000	1,1682475E+000	-7,958514204732231E-002	2,000000000000000E+000	-1,8928845E-001	40	-9,2975140E-005
2	0	0	1	1	2,247606766671371E+005	1,1914722E+000	1,1922382E+000	-7,363842232119255E-002	2,000000000000000E+000	-1,9132394E-001	40	-8,7794542E-005
2	0	0	1	1	2,247873384713107E+005	1,2154679E+000	1,2162465E+000	-6,818675427103005E-002	2,000000000000000E+000	-1,9320852E-001	40	-8,2931903E-005
2	0	0	1	1	2,248140005754813E+005	1,2394637E+000	1,2402123E+000	-6,316268992254659E-002	2,000000000000000E+000	-1,9495347E-001	40	-7,8335150E-005
2	0	0	1	1	2,248406625796524E+005	1,2634594E+000	1,2642365E+000	-5,834802286094956E-002	2,000000000000000E+000	-1,9656728E-001	40	-7,3765696E-005
2	0	0	1	1	2,248673245838257E+005	1,2874553E+000	1,2882227E+000	-5,380542503527719E-002	2,000000000000000E+000	-1,9805729E-001	40	-6,9313370E-005
2	0	0	1	1	2,248939866879953E+005	1,3114511E+000	1,3122513E+000	-4,941419825841631E-002	2,000000000000000E+000	-1,9942863E-001	40	-6,4843851E-005
2	0	0	1	1	2,249206485921680E+005	1,3354468E+000	1,3362604E+000	-4,537225866888593E-002	2,000000000000000E+000	-2,0069033E-001	41	-6,0629154E-005
2	0	0	1	1	2,249473106963394E+005	1,3594428E+000	1,3602227E+000	-4,109251777875522E-002	2,000000000000000E+000	-2,0183866E-001	41	-5,5894976E-005
2	0	0	1	1	2,249739727005092E+005	1,3834386E+000	1,3842419E+000	-3,660071871685699E-002	2,000000000000000E+000	-2,0287062E-001	41	-5,0664250E-005
2	0	0	1	1	2,250006348046833E+005	1,4074343E+000	1,4082175E+000	-3,185495618937162E-002	2,000000000000000E+000	-2,0378006E-001	41	-4,4858709E-005
2	0	0	1	1	2,250272968088540E+005	1,4314301E+000	1,4321805E+000	-2,663343926207831E-002	2,000000000000000E+000	-2,0455736E-001	41	-3,8143891E-005
2	0	0	1	1	2,250539587130249E+005	1,4554259E+000	1,4561586E+000	-2,068284065889137E-002	2,000000000000000E+000	-2,0518556E-001	41	-3,0117497E-005
2	0	0	1	1	2,250806208171984E+005	1,4794217E+000	1,4801574E+000	-1,366027876532933E-002	2,000000000000000E+000	-2,0564170E-001	41	-2,0219362E-005
2	0	0	1	1	2,251072828213685E+005	1,5034175E+000	1,5042028E+000	-5,096229521621629E-003	2,000000000000000E+000	-2,0589197E-001	41	-7,6657625E-006
2	1	0	1	1	2,251340559255583E+005	1,5275134E+000	1,5282209E+000	5,253441667014778E-003	2,000000000000000E+000	-2,0589149E-001	42	8,0284190E-006
2	1	0	1	1	2,251607180297294E+005	1,5515091E+000	1,5522529E+000	1,866827322578105E-002	2,000000000000000E+000	-2,0557439E-001	41	2,8977882E-005
2	1	0	1	1	2,251873801338999E+005	1,5755050E+000	1,5762017E+000	3,569014092208345E-002	2,000000000000000E+000	-2,0485714E-001	41	5,6254859E-005
2	1	0	1	1	2,252140419380739E+005	1,5995005E+000	1,6001581E+000	6,915181653081337E-002	2,000000000000000E+000	-2,0352367E-001	41	1,1065384E-004
2	1	0	1	1	2,252407040422438E+005	1,6234967E+000	1,6242642E+000	1,324777841664795E-001	2,000000000000000E+000	-2,0087707E-001	40	2,1517892E-004
2	1	0	1	1	2,252673661464155E+005	1,6474924E+000	1,6482263E+000	2,080877839708863E-001	2,000000000000000E+000	-1,9634596E-001	40	3,4297575E-004
2	1	0	1	1	2,252940280505880E+005	1,6714880E+000	1,6721765E+000	2,875173235010298E-001	2,000000000000000E+000	-1,8973488E-001	40	4,8077971E-004
2	1	0	1	1	2,253206901547580E+005	1,6954839E+000	1,6962036E+000	3,658831301403733E-001	2,000000000000000E+000	-1,8100908E-001	40	6,2061229E-004
2	1	0	1	1	2,253473522589304E+005	1,7194798E+000	1,7202032E+000	4,378703377584010E-001	2,000000000000000E+000	-1,7026716E-001	40	7,5322593E-004
2	1	0	1	1	2,253740143631020E+005	1,7434757E+000	1,7441567E+000	4,975906563443120E-001	2,000000000000000E+000	-1,5775615E-001	40	8,6787611E-004
2	1	0	1	1	2,254006761672720E+005	1,7674713E+000	1,7681438E+000	5,385846869354474E-001	2,000000000000000E+000	-1,4388826E-001	40	9,5229514E-004
2	1	0	1	1	2,254273382714461E+005	1,7914672E+000	1,7921231E+000	5,549729483303161E-001	2,000000000000000E+000	-1,2924488E-001	40	9,9457987E-004
2	1	0	1	1	2,254540002756167E+005	1,8154627E+000	1,8161567E+000	5,439559857548129E-001	2,000000000000000E+000	-1,1452796E-001	40	9,8790939E-004
2	1	0	1	1	2,254806622797875E+005	1,8394589E+000	1,8401654E+000	5,062981848645992E-001	2,000000000000000E+000	-1,0047061E-001	40	9,3167240E-004
2	1	0	1	1	2,255073243839615E+005	1,8634547E+000	1,8641400E+000	4,486415805953294E-001	2,000000000000000E+000	-8,7704316E-002	40	8,3633076E-004
2	1	0	1	1	2,255339862881311E+005	1,8874501E+000	1,8881670E+000	3,821762621012192E-001	2,000000000000000E+000	-7,6616377E-002	40	7,2161260E-004
2	1	0	1	1	2,255606483923029E+005	1,9114462E+000	1,9121917E+000	3,161895081217159E-001	2,000000000000000E+000	-6,7311384E-002	40	6,0461496E-004
2	1	0	1	1	2,255873103964748E+005	1,9354419E+000	1,9361832E+000	2,557368890849403E-001	2,000000000000000E+000	-5,9700090E-002	40	4,9515348E-004
2	1	0	1	1	2,256139725006449E+005	1,9594378E+000	1,9602042E+000	2,046893004832269E-001	2,000000000000000E+000	-5,3580977E-002	40	4,0123283E-004
2	1	0	1	1	2,256406345048184E+005	1,9834335E+000	1,9841754E+000	1,653037892486533E-001	2,000000000000000E+000	-4,8666488E-002	40	3,2799173E-004
2	1	0	1	1	2,256672966089893E+005	2,0074291E+000	2,0081770E+000	1,357348998620401E-001	2,000000000000000E+000	-4,4665657E-002	40	2,7257972E-004
2	1	0	1	1	2,256939585131598E+005	2,0314250E+000	2,0321701E+000	1,134814601622239E-001	2,000000000000000E+000	-4,1350536E-002	40	2,3061363E-004
2	1	0	1	1	2,257206205173340E+005	2,0554206E+000	2,0561676E+000	9,696310485834347E-002	2,000000000000000E+000	-3,8549617E-002	40	1,9937240E-004
2	1	0	1	1	2,257472828215041E+005	2,0794168E+000	2,0801730E+000	8,443667851582914E-002	2,000000000000000E+000	-3,6132880E-002	40	1,7564290E-004
2	1	0	1	1	2,257739450256759E+005	2,1034126E+000	2,1041710E+000	7,480490751266999E-002	2,000000000000000E+000	-3,4008436E-002	40	1,5740232E-004
2	1	0	1	1	2,258006068298481E+005	2,1274083E+000	2,1281683E+000	6,740239191501973E-002	2,000000000000000E+000	-3,2109287E-002	40	1,4344364E-004
2	1	0	1	1	2,258272688340179E+005	2,1514041E+000	2,1521771E+000	6,177879373131523E-002	2,000000000000000E+000	-3,0383086E-002	40	1,3295890E-004
2	1	0	1	1	2,258539309381908E+005	2,1753998E+000	2,1762075E+000	5,725295335449831E-002	2,000000000000000E+000	-2,8791796E-002	40	1,2459431E-004
2	1	0	1	1	2,258805929423620E+005	2,1993957E+000	2,2001915E+000	5,350246021666538E-002	2,000000000000000E+000	-2,7310207E-002	40	1,1771566E-004
2	1	0	1	1	2,259072548465328E+005	2,2233913E+000	2,2241659E+000	5,033045627401254E-002	2,000000000000000E+000	-2,5920259E-002	40	1,1194329E-004
2	1	0	1	1	2,259340279507237E+005	2,2474871E+000	2,2482116E+000	4,739853067375893E-002	2,000000000000000E+000	-2,4605282E-002	41	1,0656193E-004
2	1	0	1	1	2,259606901548936E+005	2,2714827E+000	2,2722278E+000	4,525864293872761E-002	2,000000000000000E+000	-2,3364542E-002	41	1,0283795E-004
2	1	0	1	1	2,259873522590664E+005	2,2954791E+000	2,2962191E+000	4,342535498500899E-002	2,000000000000000E+000	-2,2176849E-002	41	9,9714132E-005
2	1	0	1	1	2,260140140632377E+005	2,3194745E+000	2,3202169E+000	4,179530115798469E-002	2,000000000000000E+000	-2,1034904E-002	41	9,6974167E-005
2	1	0	1	1	2,260406761674075E+005	2,3434701E+000	2,3442140E+000	4,029463673598305E-002	2,000000000000000E+000	-1,9933784E-002	41	9,4459247E-005
2	1	0	1	1	2,260673382715816E+005	2,3674662E+000	2,3682420E+000	3,907078246233642E-002	2,000000000000000E+000	-1,8868908E-002	41	9,2529066E-005
2	1	0	1	1	2,260940001757523E+005	2,3914618E+000	2,3922122E+000	3,803264105241255E-002	2,000000000000000E+000	-1,7834125E-002	41	9,0982147E-005
2	1	0	1	1	2,261206620799233E+005	2,4154575E+000	2,4162054E+000	3,723408806888795E-002	2,000000000000000E+000	-1,6823232E-002	41	8,9965208E-005
2	1	0	1	1	2,261473243840968E+005	2,4394534E+000	2,4401963E+000	3,642384662137943E-002	2,000000000000000E+000	-1,5833998E-002	41	8,8881337E-005
2	1	0	1	1	2,261739863882663E+005	2,4634495E+000	2,4642439E+000	3,541040202380974E-002	2,000000000000000E+000	-1,4869965E-002	41	8,7259868E-005
2	1	0	1	1	2,262006482924391E+005	2,4874451E+000	2,4882252E+000	3,437899430671335E-002	2,000000000000000E+000	-1,3933972E-002	41	8,5542684E-005
2	1	0	1	1	2,262273102966105E+005	2,5114410E+000	2,5122299E+000	3,346624775149376E-002	2,000000000000000E+000	-1,3023549E-002	41	8,4074905E-005
2	1	0	1	1	2,262539725007804E+005	2,5354371E+000	2,5362222E+000	3,267999123151100E-002	2,000000000000000E+000	-1,2135754E-002	41	8,2883722E-005
2	1	0	1	1	2,262806343049542E+005	2,5594323E+000	2,5602143E+000	3,187113933726271E-002	2,000000000000000E+000	-1,1268930E-002	41	8,1596947E-005
2	1	0	1	1	2,263072963091250E+005	2,5834284E+000	2,5841873E+000	3,119842903841986E-002	2,000000000000000E+000	-1,0421894E-002	41	8,0622580E-005
2	1	0	1	1	2,263339585132957E+005	2,6074243E+000	2,6081855E+000	3,088626725669685E-002	2,000000000000000E+000	-9,5883636E-003	41	8,0557118E-005
2	1	0	1	1	2,263606204174692E+005	2,6314194E+000	2,6321933E+000	3,076249636539297E-002	2,000000000000000E+000	-8,7591698E-003	41	8,0972837E-005
2	1	0	1	1	2,263872825216396E+005	2,6554158E+000	2,6561759E+000	3,020455307459834E-002	2,000000000000000E+000	-7,9386225E-003	41	8,0228601E-005
2	1	0	1	1	2,264139445258114E+005	2,6794116E+000	2,6801682E+000	2,946804061373806E-002	2,000000000000000E+000	-7,1370266E-003	41	7,8979305E-005
2	1	0	1	1	2,264406066299835E+005	2,7034075E+000	2,7042034E+000	2,884176071853267E-002	2,000000000000000E+000	-6,3540773E-003	41	7,7993987E-005
2	1	0	1	1	2,264672685341532E+005	2,7274034E+000	2,7281990E+000	2,841139717339186E-002	2,000000000000000E+000	-5,5850670E-003	41	7,7511948E-005
2	1	0	1	1	2,264939305383265E+005	2,7513993E+000	2,7521870E+000	2,817676048750620E-002	2,000000000000000E+000	-4,8249164E-003	41	7,7547717E-005
2	1	0	1	1	2,265205925424979E+005	2,7753949E+000	2,7761934E+000	2,807916207844369E-002	2,000000000000000E+000	-4,0689935E-003	41	7,7953184E-005
2	1	0	1	1	2,265472546466677E+005	2,7993906E+000	2,8001800E+000	2,817873792630604E-002	2,000000000000000E+000	-3,3129861E-003	41	7,8905534E-005
2	1	0	1	1	2,265739167508422E+005	2,8233864E+000	2,8241575E+000	2,846845035480507E-002	2,000000000000000E+000	-2,5517694E-003	41	8,0399390E-005
2	1	0	1	1	2,266005787550122E+005	2,8473823E+000	2,8481808E+000	2,863976084367081E-002	2,000000000000000E+000	-1,7838506E-003	41	8,1571219E-005
2	1	0	1	1	2,266272405591835E+005	2,8713779E+000	2,8721786E+000	2,852843174313727E-002	2,000000000000000E+000	-1,0150120E-003	41	8,1938750E-005
2	1	0	1	1	2,266539027633567E+005	2,8953738E+000	2,8961596E+000	2,835899574893175E-002	2,000000000000000E+000	-2,5094915E-004	41	8,2132181E-005
2	1	0	1	1	2,266805647675267E+005	2,9193697E+000	2,9201832E+000	2,826986970571765E-002	2,000000000000000E+000	5,0917797E-004	41	8,2553197E-005
2	1	0	1	1	2,267072265716991E+005	2,9433653E+000	2,9441440E+000	2,824511325358503E-002	2,000000000000000E+000	1,2686166E-003	41	8,3157684E-005
2	1	0	1	1	2,267338887758706E+005	2,9673612E+000	2,9681494E+000	2,839080586803577E-002	2,000000000000000E+000	2,0304518E-003	41	8,4268155E-005
2	1	0	1	1	2,267605509800403E+005	2,9913568E+000	2,9921672E+000	2,874968101982345E-002	2,000000000000000E+000	2,7978392E-003	41	8,6023851E-005
2	1	0	1	0	2,267852131839017E+005	2,9864578E+000	2,9872503E+000	1,650944328787438E-002	2,000000000000000E+000	3,3695668E-003	41	4,9317841E-005
2	1	0	1	0	2,268118753880723E+005	2,9624622E+000	2,9633095E+000	1,117449035038293E-002	2,000000000000000E+000	3,7242682E-003	41	3,3113472E-005
2	1	0	1	0	2,268385372922430E+005	2,9384663E+000	2,9392757E+000	8,038318830451863E-003	2,000000000000000E+000	3,9712321E-003	41	2,3626835E-005
2	1	0	1	0	2,268651991964169E+005	2,9144704E+000	2,9152865E+000	5,959058512976373E-003	2,000000000000000E+000	4,1496214E-003	41	1,7372364E-005
2	1	0	1	0	2,268918614005866E+005	2,8904748E+000	2,8912232E+000	4,261176751166981E-003	2,000000000000000E+000	4,2779166E-003	42	1,2320013E-005
2	1	0	1	0	2,269185233047586E+005	2,8664792E+000	2,8672547E+000	2,966057251157958E-003	2,000000000000000E+000	4,3681795E-003	42	8,5044421E-006
2	1	0	1	0	2,269451852089304E+005	2,8424830E+000	2,8433154E+000	1,897463497462292E-003	2,000000000000000E+000	4,4272630E-003	42	5,3950871E-006
2	1	0	1	0	2,269718474131003E+005	2,8184872E+000	2,8193185E+000	1,058583122413985E-003	2,000000000000000E+000	4,4601383E-003	42	2,9844830E-006
2	1	0	1	0	2,269985094172740E+005	2,7944915E+000	2,7953286E+000	3,497034194894433E-004	2,000000000000000E+000	4,4724061E-003	42	9,7753593E-007
2	0	0	1	0	2,270251711214448E+005	2,7704954E+000	2,7713420E+000	-2,365111798155071E-004	2,000000000000000E+000	4,4676946E-003	42	-6,5545339E-007
2	0	0	1	0	2,270518332256153E+005	2,7464998E+000	2,7473342E+000	-7,803664838788504E-004	2,000000000000000E+000	4,4475300E-003	42	-2,1439275E-006
2	0	0	1	0	2,270784952297895E+005	2,7225041E+000	2,7233603E+000	-1,329042006987518E-003	2,000000000000000E+000	4,4131563E-003	42	-3,6194601E-006
2	0	0	1	0	2,271051572339595E+005	2,6985083E+000	2,6993136E+000	-1,870445892789786E-003	2,000000000000000E+000	4,3645976E-003	42	-5,0489202E-006
2	0	0	1	0	2,271318192381309E+005	2,6745126E+000	2,6753571E+000	-2,424332334320269E-003	2,000000000000000E+000	4,3016691E-003	42	-6,4859546E-006
2	0	0	1	0	2,271584812423040E+005	2,6505170E+000	2,6513596E+000	-3,164958989991536E-003	2,000000000000000E+000	4,2216084E-003	42	-8,3914447E-006
2	0	0	1	0	2,271851432464737E+005	2,6265209E+000	2,6273530E+000	-4,079274543060771E-003	2,000000000000000E+000	4,1196630E-003	42	-1,0717694E-005
2	0	0	1	0	2,272118050506460E+005	2,6025252E+000	2,6033804E+000	-4,857430146816263E-003	2,000000000000000E+000	3,9939354E-003	42	-1,2645739E-005
2	0	0	1	0	2,272384671548174E+005	2,5785289E+000	2,5794158E+000	-5,095124480120908E-003	2,000000000000000E+000	3,8549516E-003	42	-1,3142445E-005
2	0	0	1	0	2,272651291589877E+005	2,5545335E+000	2,5554006E+000	-5,354349536714126E-003	2,000000000000000E+000	3,7103195E-003	42	-1,3682508E-005
2	0	0	1	0	2,272917910631616E+005	2,5305381E+000	2,5314186E+000	-5,808512342598257E-003	2,000000000000000E+000	3,5561386E-003	42	-1,4703776E-005
2	0	0	1	0	2,273184530673321E+005	2,5065420E+000	2,5074437E+000	-6,310040665635591E-003	2,000000000000000E+000	3,3884095E-003	42	-1,5822072E-005
2	0	0	1	0	2,273451152715031E+005	2,4825459E+000	2,4834349E+000	-6,874653113628913E-003	2,000000000000000E+000	3,2064605E-003	42	-1,7072754E-005
2	0	0	1	0	2,273717770756772E+005	2,4585507E+000	2,4594278E+000	-7,409676033514251E-003	2,000000000000000E+000	3,0105636E-003	42	-1,8223564E-005
2	0	0	1	0	2,273984390798468E+005	2,4345543E+000	2,4354579E+000	-7,934437144888376E-003	2,000000000000000E+000	2,8007121E-003	42	-1,9323988E-005
2	0	0	1	0	2,274251010840186E+005	2,4105585E+000	2,4114532E+000	-8,258155836531694E-003	2,000000000000000E+000	2,5786320E-003	42	-1,9914156E-005
2	0	0	1	0	2,274517629881909E+005	2,3865628E+000	2,3874648E+000	-8,559596110971318E-003	2,000000000000000E+000	2,3482782E-003	42	-2,0435735E-005
2	0	0	1	0	2,274784250923607E+005	2,3625669E+000	2,3634713E+000	-8,832279147143796E-003	2,000000000000000E+000	2,1106612E-003	42	-2,0874839E-005
2	0	0	1	0	2,275050870965337E+005	2,3385713E+000	2,3394675E+000	-9,184278365843096E-003	2,000000000000000E+000	1,8646925E-003	42	-2,1486321E-005
2	0	0	1	0	2,275317490007047E+005	2,3145757E+000	2,3153870E+000	-9,525772190937642E-003	2,000000000000000E+000	1,6086003E-003	41	-2,2055849E-005
2	0	0	1	0	2,275584110048753E+005	2,2905793E+000	2,2913873E+000	-1,003499298139432E-002	2,000000000000000E+000	1,3417732E-003	41	-2,2994056E-005
2	0	0	1	0	2,275850731090494E+005	2,2665839E+000	2,2674124E+000	-1,048884094590746E-002	2,000000000000000E+000	1,0622933E-003	41	-2,3782528E-005
2	0	0	1	0	2,276038312119821E+005	2,2496376E+000	2,2504263E+000	-1,148121470633229E-002	2,000000000000000E+000	8,5724902E-004	41	-2,5837628E-005