File: Dati/210416_2/CV_LTO-CB_grafite nuova_15 layers__03_CV_C01.mpt
EC-Lab ASCII FILE
Nb header lines : 57

Cyclic Voltammetry

Run on channel : 1 (SN 6806)
User : Seelab
Electrode connection : standard
Ewe ctrl range : min = 0,00 V, max = 5,00 V
Ewe,I filtering : 50 kHz
Safety Limits :
	Do not start on E overload
Channel : Grounded
Acquisition started on : 04/16/2021 18:47:00
Saved on :
	File : CV_LTO-CB_grafite nuova_15 layers__03_CV_C01.mpr
	Directory : C:\Users\labsuperfici\Desktop\Biologic\Users\Prisca Viviani\210416_2\
	Host : 10.78.33.0
Device : VSP-300 (SN 0638)
Address : USB
EC-Lab for windows v11.31 (software)
Internet server v11.30 (firmware)
Command interpretor v11.31 (firmware)
Electrode material :
Initial state :
Electrolyte :
Comments :
Cable : standard
Reference electrode : SCE Saturated Calomel Electrode (0,241 V)
Electrode surface area : 0,001 cm²
Characteristic mass : 0,001 g
Equivalent Weight : 0,000 g/eq.
Density : 0,000 g/cm3
Cycle Definition : Charge/Discharge alternance
Ei (V)              0,000
vs.                 Eoc
dE/dt               0,200
dE/dt unit          mV/s
E1 (V)              1,000
vs.                 Ref
Step percent        50
N                   10
E range min (V)     0,000
E range max (V)     5,000
I Range             Auto
I Range min         Unset
I Range max         Unset
I Range init        Unset
Bandwidth           8
E2 (V)              3,000
vs.                 Ref
nc cycles           1
Reverse Scan        1
Ef (V)              0,000
vs.                 Eoc

mode	ox/red	error	control changes	counter inc.	time/s	control/V	Ewe/V	<I>/mA	cycle number	(Q-Qo)/C	I Range	P/W
2	0	0	0	0	8,128181388588250E+004	2,2496376E+000	2,2504187E+000	-1,735280267894268E-003	1,000000000000000E+000	0,0000000E+000	42	-3,9051070E-006
2	0	0	1	0	8,139954315803596E+004	2,2260911E+000	2,2269158E+000	-2,600582863649031E-003	1,000000000000000E+000	-2,7956578E-004	42	-5,7912794E-006
2	0	0	1	0	8,151952112962957E+004	2,2020953E+000	2,2029245E+000	-3,023686740172761E-003	1,000000000000000E+000	-6,2352611E-004	42	-6,6609537E-006
2	0	0	1	0	8,163950050125259E+004	2,1780992E+000	2,1789224E+000	-3,404123677407608E-003	1,000000000000000E+000	-1,0148528E-003	42	-7,4173213E-006
2	0	0	1	0	8,175947907289979E+004	2,1541033E+000	2,1549580E+000	-3,745229550760010E-003	1,000000000000000E+000	-1,4493682E-003	42	-8,0708123E-006
2	0	0	1	0	8,187945684450865E+004	2,1301079E+000	2,1309309E+000	-4,090785618931336E-003	1,000000000000000E+000	-1,9254895E-003	42	-8,7171811E-006
2	0	0	1	0	8,199943571610213E+004	2,1061118E+000	2,1069365E+000	-4,450848289118153E-003	1,000000000000000E+000	-2,4429786E-003	42	-9,3776544E-006
2	0	0	1	0	8,211941428774162E+004	2,0821164E+000	2,0829682E+000	-4,815880677417415E-003	1,000000000000000E+000	-3,0049274E-003	42	-1,0031326E-005
2	0	0	1	0	8,223939305938408E+004	2,0581203E+000	2,0589809E+000	-5,221815309929439E-003	1,000000000000000E+000	-3,6132343E-003	42	-1,0751618E-005
2	0	0	1	0	8,235937093098229E+004	2,0341244E+000	2,0349705E+000	-5,662684325882337E-003	1,000000000000000E+000	-4,2720372E-003	42	-1,1523396E-005
2	0	0	1	0	8,247934990258282E+004	2,0101287E+000	2,0109649E+000	-6,083439395873066E-003	1,000000000000000E+000	-4,9832342E-003	42	-1,2233583E-005
2	0	0	1	0	8,259932857422982E+004	1,9861329E+000	1,9870291E+000	-6,528669458925232E-003	1,000000000000000E+000	-5,7455972E-003	42	-1,2972656E-005
2	0	0	1	0	8,271930744586070E+004	1,9621372E+000	1,9630047E+000	-7,052266336133567E-003	1,000000000000000E+000	-6,5651503E-003	42	-1,3843632E-005
2	0	0	1	0	8,283928651745291E+004	1,9381415E+000	1,9390007E+000	-7,670953677640383E-003	1,000000000000000E+000	-7,4526472E-003	42	-1,4873985E-005
2	0	0	1	0	8,295926538907136E+004	1,9141456E+000	1,9150522E+000	-8,378011989111617E-003	1,000000000000000E+000	-8,4200045E-003	42	-1,6044331E-005
2	0	0	1	0	8,307924406071776E+004	1,8901500E+000	1,8910278E+000	-9,175138304119979E-003	1,000000000000000E+000	-9,4788903E-003	42	-1,7350441E-005
2	0	0	1	0	8,319922303233226E+004	1,8661541E+000	1,8669548E+000	-9,881463697910139E-003	1,000000000000000E+000	-1,0628167E-002	41	-1,8448247E-005
2	0	0	1	0	8,331920180392498E+004	1,8421584E+000	1,8429564E+000	-1,073183904215014E-002	1,000000000000000E+000	-1,1868577E-002	41	-1,9778312E-005
2	0	0	1	0	8,343918087555899E+004	1,8181626E+000	1,8189760E+000	-1,176013991130574E-002	1,000000000000000E+000	-1,3222047E-002	41	-2,1391414E-005
2	0	0	1	0	8,355915964720421E+004	1,7941666E+000	1,7949644E+000	-1,297849750522123E-002	1,000000000000000E+000	-1,4709316E-002	41	-2,3295941E-005
2	0	0	1	0	8,367913831880316E+004	1,7701712E+000	1,7709316E+000	-1,445218427731021E-002	1,000000000000000E+000	-1,6358828E-002	41	-2,5593830E-005
2	0	0	1	0	8,379911729040308E+004	1,7461749E+000	1,7469490E+000	-1,616349780008577E-002	1,000000000000000E+000	-1,8199332E-002	41	-2,8236806E-005
2	0	0	1	0	8,391909616204700E+004	1,7221793E+000	1,7229716E+000	-1,814505348744483E-002	1,000000000000000E+000	-2,0262673E-002	41	-3,1263411E-005
2	0	0	1	0	8,403907523368183E+004	1,6981834E+000	1,6989883E+000	-2,035010727757108E-002	1,000000000000000E+000	-2,2575499E-002	41	-3,4574594E-005
2	0	0	1	0	8,415905410527537E+004	1,6741877E+000	1,6749806E+000	-2,273981382327100E-002	1,000000000000000E+000	-2,5165305E-002	41	-3,8088747E-005
2	0	0	1	0	8,427903317688836E+004	1,6501919E+000	1,6509745E+000	-2,533313058071844E-002	1,000000000000000E+000	-2,8052723E-002	41	-4,1824354E-005
2	0	0	1	0	8,439901204853435E+004	1,6261960E+000	1,6270084E+000	-2,815893377489298E-002	1,000000000000000E+000	-3,1264432E-002	41	-4,5814824E-005
2	0	0	1	0	8,451899082015373E+004	1,6022004E+000	1,6030297E+000	-3,153527219446467E-002	1,000000000000000E+000	-3,4845155E-002	41	-5,0551978E-005
2	0	0	1	0	8,463896959174715E+004	1,5782044E+000	1,5790017E+000	-3,596272935865263E-002	1,000000000000000E+000	-3,8889445E-002	41	-5,6785211E-005
2	0	0	1	0	8,475894846337638E+004	1,5542089E+000	1,5550103E+000	-4,192294955108153E-002	1,000000000000000E+000	-4,3551896E-002	41	-6,5190616E-005
2	0	0	1	0	8,487892743502138E+004	1,5302129E+000	1,5310249E+000	-5,036954218889983E-002	1,000000000000000E+000	-4,9062643E-002	41	-7,7117023E-005
2	0	0	1	0	8,499890630662596E+004	1,5062170E+000	1,5070139E+000	-6,463636160897202E-002	1,000000000000000E+000	-5,5895004E-002	41	-9,7407894E-005
2	0	0	1	0	8,511888487822283E+004	1,4822212E+000	1,4830680E+000	-8,293301147928078E-002	1,000000000000000E+000	-6,4765580E-002	41	-1,2299529E-004
2	0	0	1	0	8,523886394986394E+004	1,4582255E+000	1,4590644E+000	-9,737906837656829E-002	1,000000000000000E+000	-7,5650163E-002	41	-1,4208232E-004
2	0	0	1	0	8,535884282150358E+004	1,4342296E+000	1,4349853E+000	-1,058240233245139E-001	1,000000000000000E+000	-8,7900169E-002	40	-1,5185591E-004
2	0	0	1	0	8,547882189309818E+004	1,4102339E+000	1,4110092E+000	-1,100969954917972E-001	1,000000000000000E+000	-1,0090192E-001	40	-1,5534788E-004
2	0	0	1	0	8,559880076470599E+004	1,3862380E+000	1,3870169E+000	-1,115613192179270E-001	1,000000000000000E+000	-1,1422484E-001	40	-1,5473744E-004
2	0	0	1	0	8,571877933635202E+004	1,3622423E+000	1,3630133E+000	-1,116686067005075E-001	1,000000000000000E+000	-1,2763211E-001	40	-1,5220579E-004
2	0	0	1	0	8,583875830797746E+004	1,3382466E+000	1,3390226E+000	-1,108517840833272E-001	1,000000000000000E+000	-1,4100303E-001	40	-1,4843304E-004
2	0	0	1	0	8,595873717957130E+004	1,3142508E+000	1,3150272E+000	-1,075434011535337E-001	1,000000000000000E+000	-1,5414099E-001	40	-1,4142250E-004
2	0	0	1	0	8,607871615119418E+004	1,2902548E+000	1,2910402E+000	-1,032711037260626E-001	1,000000000000000E+000	-1,6679417E-001	40	-1,3332715E-004
2	0	0	1	0	8,619869472284138E+004	1,2662591E+000	1,2670296E+000	-9,910390693792781E-002	1,000000000000000E+000	-1,7893767E-001	40	-1,2556759E-004
2	0	0	1	0	8,631867359445011E+004	1,2422632E+000	1,2430031E+000	-9,504195806303573E-002	1,000000000000000E+000	-1,9058925E-001	40	-1,1813745E-004
2	0	0	1	0	8,643865266604372E+004	1,2182674E+000	1,2190343E+000	-9,119004655206608E-002	1,000000000000000E+000	-2,0176426E-001	40	-1,1116380E-004
2	0	0	1	0	8,655863153768296E+004	1,1942717E+000	1,1950182E+000	-8,752974630229082E-002	1,000000000000000E+000	-2,1248673E-001	40	-1,0459964E-004
2	0	0	1	0	8,667861030932528E+004	1,1702758E+000	1,1710231E+000	-8,435531794186690E-002	1,000000000000000E+000	-2,2280425E-001	40	-9,8782031E-005
2	0	0	1	0	8,679858918092260E+004	1,1462802E+000	1,1470033E+000	-8,156319202332707E-002	1,000000000000000E+000	-2,3275772E-001	40	-9,3553252E-005
2	0	0	1	0	8,691856805252424E+004	1,1222843E+000	1,1230454E+000	-7,879222174936001E-002	1,000000000000000E+000	-2,4238616E-001	40	-8,8487242E-005
2	0	0	1	0	8,703854702417114E+004	1,0982885E+000	1,0990375E+000	-7,642115613579073E-002	1,000000000000000E+000	-2,5170520E-001	40	-8,3989718E-005
2	0	0	1	0	8,715852589580114E+004	1,0742927E+000	1,0750209E+000	-7,432497522507719E-002	1,000000000000000E+000	-2,6075053E-001	40	-7,9900899E-005
2	0	0	1	0	8,727850466739363E+004	1,0502968E+000	1,0510778E+000	-7,270995297827354E-002	1,000000000000000E+000	-2,6957542E-001	40	-7,6423821E-005
2	0	0	1	0	8,739848343901266E+004	1,0263011E+000	1,0270735E+000	-7,152958987054450E-002	1,000000000000000E+000	-2,7823266E-001	40	-7,3466144E-005
2	0	0	1	0	8,751846231065923E+004	1,0023052E+000	1,0030792E+000	-7,086442590528386E-002	1,000000000000000E+000	-2,8677723E-001	40	-7,1082628E-005
2	0	0	1	0	8,763294388358330E+004	1,0205022E+000	1,0212603E+000	-5,536196053113682E-002	1,000000000000000E+000	-2,9391173E-001	40	-5,6538971E-005
2	0	0	1	0	8,775292265517672E+004	1,0444978E+000	1,0452940E+000	-4,656651587806043E-002	1,000000000000000E+000	-2,9997095E-001	41	-4,8675702E-005
2	0	0	1	0	8,787290202679043E+004	1,0684938E+000	1,0692419E+000	-4,024871207332548E-002	1,000000000000000E+000	-3,0515441E-001	41	-4,3035609E-005
2	0	0	1	0	8,799288149843644E+004	1,0924895E+000	1,0932744E+000	-3,546620020137170E-002	1,000000000000000E+000	-3,0967522E-001	41	-3,8774288E-005
2	0	0	1	0	8,811286047005479E+004	1,1164854E+000	1,1172413E+000	-3,162895016305434E-002	1,000000000000000E+000	-3,1368360E-001	41	-3,5337169E-005
2	0	0	1	0	8,823283964164788E+004	1,1404811E+000	1,1412523E+000	-2,843301909063374E-002	1,000000000000000E+000	-3,1727383E-001	41	-3,2449247E-005
2	0	0	1	0	8,835281871327781E+004	1,1644769E+000	1,1652086E+000	-2,565726857449724E-002	1,000000000000000E+000	-3,2050595E-001	41	-2,9896069E-005
2	0	0	1	0	8,847279818492429E+004	1,1884725E+000	1,1892444E+000	-2,329138345888515E-002	1,000000000000000E+000	-3,2343119E-001	41	-2,7699147E-005
2	0	0	1	0	8,859277765652630E+004	1,2124684E+000	1,2132574E+000	-2,118323230804717E-002	1,000000000000000E+000	-3,2608870E-001	41	-2,5700714E-005
2	0	0	1	0	8,871275642812287E+004	1,2364643E+000	1,2372495E+000	-1,925907459793525E-002	1,000000000000000E+000	-3,2850468E-001	41	-2,3828281E-005
2	0	0	1	0	8,883273589976586E+004	1,2604600E+000	1,2612064E+000	-1,752816023434589E-002	1,000000000000000E+000	-3,3070230E-001	41	-2,2106628E-005
2	0	0	1	0	8,895271497140429E+004	1,2844559E+000	1,2852192E+000	-1,592693167050380E-002	1,000000000000000E+000	-3,3270052E-001	41	-2,0469599E-005
2	0	0	1	0	8,907269434299722E+004	1,3084518E+000	1,3092436E+000	-1,437969127514080E-002	1,000000000000000E+000	-3,3450982E-001	41	-1,8826518E-005
2	0	0	1	0	8,919267371460737E+004	1,3324475E+000	1,3332256E+000	-1,290453683859952E-002	1,000000000000000E+000	-3,3613864E-001	41	-1,7204658E-005
2	0	0	1	0	8,931265248625283E+004	1,3564432E+000	1,3572053E+000	-1,141362047499661E-002	1,000000000000000E+000	-3,3759016E-001	41	-1,5490627E-005
2	0	0	1	0	8,943263195787556E+004	1,3804389E+000	1,3811792E+000	-9,906542713650962E-003	1,000000000000000E+000	-3,3886236E-001	41	-1,3682711E-005
2	0	0	1	0	8,955261102946941E+004	1,4044349E+000	1,4051871E+000	-8,302544452007260E-003	1,000000000000000E+000	-3,3994919E-001	41	-1,1666629E-005
2	0	0	1	0	8,967259050109400E+004	1,4284307E+000	1,4291565E+000	-6,588346510456464E-003	1,000000000000000E+000	-3,4083727E-001	41	-9,4157785E-006
2	0	0	1	0	8,979256967274088E+004	1,4524264E+000	1,4532292E+000	-4,661510556518061E-003	1,000000000000000E+000	-3,4150630E-001	42	-6,7742430E-006
2	0	0	1	0	8,991254874434765E+004	1,4764223E+000	1,4771985E+000	-2,438371838208719E-003	1,000000000000000E+000	-3,4192872E-001	42	-3,6019592E-006
2	1	0	1	0	9,003252811594238E+004	1,5004181E+000	1,5011526E+000	2,526809685171425E-004	1,000000000000000E+000	-3,4205842E-001	43	3,7931270E-007
2	1	0	1	0	9,015250718758197E+004	1,5244139E+000	1,5251262E+000	3,627712486529794E-003	1,000000000000000E+000	-3,4182766E-001	42	5,5327196E-006
2	1	0	1	0	9,027248635922396E+004	1,5484097E+000	1,5490687E+000	8,446034347347003E-003	1,000000000000000E+000	-3,4111339E-001	42	1,3083487E-005
2	1	0	1	0	9,039246573081985E+004	1,5724053E+000	1,5731196E+000	1,509475845858671E-002	1,000000000000000E+000	-3,3972135E-001	41	2,3745861E-005
2	1	0	1	0	9,051244480242400E+004	1,5964013E+000	1,5971111E+000	3,248434005242518E-002	1,000000000000000E+000	-3,3702099E-001	41	5,1881099E-005
2	1	0	1	0	9,063242427407112E+004	1,6203970E+000	1,6210802E+000	5,795079724627417E-002	1,000000000000000E+000	-3,3160847E-001	41	9,3942886E-005
2	1	0	1	0	9,075240334569826E+004	1,6443928E+000	1,6450738E+000	8,497769558385682E-002	1,000000000000000E+000	-3,2303813E-001	41	1,3979457E-004
2	1	0	1	0	9,087238251729161E+004	1,6683885E+000	1,6690862E+000	1,132927846223675E-001	1,000000000000000E+000	-3,1114602E-001	40	1,8909543E-004
2	1	0	1	0	9,099236228891253E+004	1,6923845E+000	1,6930979E+000	1,421087938419343E-001	1,000000000000000E+000	-2,9581338E-001	40	2,4060410E-004
2	1	0	1	0	9,111234136055806E+004	1,7163804E+000	1,7171096E+000	1,703859979646387E-001	1,000000000000000E+000	-2,7704236E-001	40	2,9257144E-004
2	1	0	1	0	9,123232073217089E+004	1,7403761E+000	1,7410983E+000	1,950514706265918E-001	1,000000000000000E+000	-2,5505289E-001	40	3,3960378E-004
2	1	0	1	0	9,135229950376390E+004	1,7643718E+000	1,7650944E+000	2,120590256358144E-001	1,000000000000000E+000	-2,3051977E-001	40	3,7430419E-004
2	1	0	1	0	9,147227887539961E+004	1,7883677E+000	1,7890871E+000	2,176708159443286E-001	1,000000000000000E+000	-2,0460016E-001	40	3,8943204E-004
2	1	0	1	0	9,159225834704388E+004	1,8123633E+000	1,8130984E+000	2,099031058527882E-001	1,000000000000000E+000	-1,7882380E-001	40	3,8057499E-004
2	1	0	1	0	9,171223711864278E+004	1,8363590E+000	1,8371279E+000	1,904804006402729E-001	1,000000000000000E+000	-1,5469332E-001	40	3,4993686E-004
2	1	0	1	0	9,183221659024269E+004	1,8603549E+000	1,8610798E+000	1,630924303504528E-001	1,000000000000000E+000	-1,3341086E-001	40	3,0352804E-004
2	1	0	1	0	9,195219566188814E+004	1,8843508E+000	1,8851364E+000	1,347405197709106E-001	1,000000000000000E+000	-1,1555158E-001	40	2,5400426E-004
2	1	0	1	0	9,207217513352144E+004	1,9083467E+000	1,9091069E+000	1,080758781277066E-001	1,000000000000000E+000	-1,0099410E-001	40	2,0632840E-004
2	1	0	1	0	9,219215460511390E+004	1,9323425E+000	1,9331207E+000	8,344122969815615E-002	1,000000000000000E+000	-8,9542702E-002	40	1,6130197E-004
2	1	0	1	0	9,231213327672920E+004	1,9563383E+000	1,9570934E+000	6,439093534933632E-002	1,000000000000000E+000	-8,0730259E-002	40	1,2601908E-004
2	1	0	1	0	9,243211274837563E+004	1,9803343E+000	1,9810852E+000	5,042909068309182E-002	1,000000000000000E+000	-7,3876433E-002	40	9,9904326E-005
2	1	0	1	0	9,255209231999179E+004	2,0043297E+000	2,0050676E+000	3,994963978609362E-002	1,000000000000000E+000	-6,8488598E-002	41	8,0101730E-005
2	1	0	1	0	9,267207209158572E+004	2,0283256E+000	2,0290523E+000	3,262881612945467E-002	1,000000000000000E+000	-6,4151034E-002	41	6,6205575E-005
2	1	0	1	0	9,279205126321618E+004	2,0523212E+000	2,0530529E+000	2,740388688045020E-002	1,000000000000000E+000	-6,0558286E-002	41	5,6261630E-005
2	1	0	1	0	9,291203063486196E+004	2,0763171E+000	2,0770648E+000	2,363422252662828E-002	1,000000000000000E+000	-5,7499759E-002	41	4,9089809E-005
2	1	0	1	0	9,303201040646387E+004	2,1003129E+000	2,1010633E+000	2,092101451443984E-002	1,000000000000000E+000	-5,4824486E-002	41	4,3956374E-005
2	1	0	1	0	9,315198857806111E+004	2,1243088E+000	2,1250608E+000	1,886732421498077E-002	1,000000000000000E+000	-5,2433576E-002	41	4,0094212E-005
2	1	0	1	0	9,327196834970400E+004	2,1483045E+000	2,1490633E+000	1,727111745657917E-002	1,000000000000000E+000	-5,0260589E-002	41	3,7116726E-005
2	1	0	1	0	9,339194802134228E+004	2,1723003E+000	2,1730545E+000	1,605717077881011E-002	1,000000000000000E+000	-4,8254747E-002	41	3,4893106E-005
2	1	0	1	0	9,351192619293486E+004	2,1962962E+000	2,1970580E+000	1,502799930916210E-002	1,000000000000000E+000	-4,6383090E-002	41	3,3017386E-005
2	1	0	1	0	9,363190586454555E+004	2,2202919E+000	2,2210655E+000	1,417198789022878E-002	1,000000000000000E+000	-4,4624463E-002	41	3,1476913E-005
2	1	0	1	0	9,375188523619133E+004	2,2442877E+000	2,2450697E+000	1,343750049864853E-002	1,000000000000000E+000	-4,2960070E-002	41	3,0168127E-005
2	1	0	1	0	9,387186440781318E+004	2,2682836E+000	2,2690568E+000	1,285887256419058E-002	1,000000000000000E+000	-4,1374043E-002	41	2,9177512E-005
2	1	0	1	0	9,399184357940620E+004	2,2922792E+000	2,2930629E+000	1,236971992697000E-002	1,000000000000000E+000	-3,9853435E-002	41	2,8364546E-005
2	1	0	1	0	9,411182295103301E+004	2,3162751E+000	2,3170590E+000	1,190353519870768E-002	1,000000000000000E+000	-3,8389128E-002	41	2,7581194E-005
2	1	0	1	0	9,423180212267884E+004	2,3402710E+000	2,3410280E+000	1,149594659717099E-002	1,000000000000000E+000	-3,6977716E-002	41	2,6912332E-005
2	1	0	1	0	9,435178089428408E+004	2,3642666E+000	2,3650477E+000	1,115999177531625E-002	1,000000000000000E+000	-3,5610355E-002	41	2,6393913E-005
2	1	0	1	0	9,447176056588022E+004	2,3882627E+000	2,3890190E+000	1,090694122749591E-002	1,000000000000000E+000	-3,4278043E-002	41	2,6056890E-005
2	1	0	1	0	9,459174033751921E+004	2,4122584E+000	2,4130201E+000	1,069776545074905E-002	1,000000000000000E+000	-3,2973077E-002	41	2,5813923E-005
2	1	0	1	0	9,471171840916076E+004	2,4362540E+000	2,4369998E+000	1,048214251153523E-002	1,000000000000000E+000	-3,1692892E-002	41	2,5544980E-005
2	1	0	1	0	9,483169818075723E+004	2,4602497E+000	2,4610336E+000	1,023354133173149E-002	1,000000000000000E+000	-3,0440753E-002	41	2,5185089E-005
2	1	0	1	0	9,495167755236127E+004	2,4842458E+000	2,4850450E+000	1,012066838173040E-002	1,000000000000000E+000	-2,9212732E-002	41	2,5150315E-005
2	1	0	1	0	9,507165672400862E+004	2,5082414E+000	2,5090721E+000	1,003067554502640E-002	1,000000000000000E+000	-2,7993189E-002	41	2,5167688E-005
2	1	0	1	0	9,519163589563547E+004	2,5322375E+000	2,5330453E+000	9,616241472579140E-003	1,000000000000000E+000	-2,6805092E-002	41	2,4358375E-005
2	1	0	1	0	9,531161526722799E+004	2,5562332E+000	2,5570185E+000	9,378076300903412E-003	1,000000000000000E+000	-2,5657419E-002	41	2,3979916E-005
2	1	0	1	0	9,543159443885018E+004	2,5802288E+000	2,5810373E+000	9,160913642513702E-003	1,000000000000000E+000	-2,4536323E-002	41	2,3644659E-005
2	1	0	1	0	9,555157321049669E+004	2,6042247E+000	2,6050220E+000	9,058004986625984E-003	1,000000000000000E+000	-2,3435572E-002	41	2,3596302E-005
2	1	0	1	0	9,567155288210721E+004	2,6282206E+000	2,6290181E+000	9,081215436221091E-003	1,000000000000000E+000	-2,2340203E-002	41	2,3874680E-005
2	1	0	1	0	9,579153255370061E+004	2,6522162E+000	2,6530321E+000	8,985380607280054E-003	1,000000000000000E+000	-2,1248166E-002	41	2,3838504E-005
2	1	0	1	0	9,591151072533824E+004	2,6762118E+000	2,6770308E+000	8,871295447833046E-003	1,000000000000000E+000	-2,0168185E-002	41	2,3748731E-005
2	1	0	1	0	9,603149049698061E+004	2,7002077E+000	2,7010114E+000	8,758264615442140E-003	1,000000000000000E+000	-1,9102789E-002	41	2,3656172E-005
2	1	0	1	0	9,615146986857941E+004	2,7242038E+000	2,7249997E+000	8,695524489294254E-003	1,000000000000000E+000	-1,8048706E-002	41	2,3695302E-005
2	1	0	1	0	9,627144904018054E+004	2,7481995E+000	2,7489889E+000	8,805372699497140E-003	1,000000000000000E+000	-1,6992711E-002	41	2,4205872E-005
2	1	0	1	0	9,639142821182567E+004	2,7721953E+000	2,7730093E+000	9,033425930997707E-003	1,000000000000000E+000	-1,5918352E-002	41	2,5049774E-005
2	1	0	1	0	9,651140758345870E+004	2,7961912E+000	2,7969942E+000	9,617480600256315E-003	1,000000000000000E+000	-1,4796445E-002	41	2,6900037E-005
2	1	0	1	0	9,663138675505156E+004	2,8201866E+000	2,8210056E+000	1,041008683651834E-002	1,000000000000000E+000	-1,3586281E-002	41	2,9366913E-005
2	1	0	1	0	9,675136542666727E+004	2,8441825E+000	2,8450346E+000	1,078856428632372E-002	1,000000000000000E+000	-1,2300459E-002	41	3,0693838E-005
2	1	0	1	0	9,687134519831429E+004	2,8681786E+000	2,8690221E+000	1,061629522720602E-002	1,000000000000000E+000	-1,1005239E-002	41	3,0458386E-005
2	1	0	1	0	9,699132426992967E+004	2,8921742E+000	2,8929942E+000	1,029510884976005E-002	1,000000000000000E+000	-9,7425953E-003	41	2,9783690E-005
2	1	0	1	0	9,711130304152286E+004	2,9161699E+000	2,9170024E+000	1,002519953506328E-002	1,000000000000000E+000	-8,5176062E-003	41	2,9243531E-005
2	1	0	1	0	9,723128281315544E+004	2,9401658E+000	2,9409935E+000	9,906814451602283E-003	1,000000000000000E+000	-7,3167719E-003	41	2,9135877E-005
2	1	0	1	0	9,735126218480011E+004	2,9641616E+000	2,9649770E+000	9,925764650330626E-003	1,000000000000000E+000	-6,1220960E-003	41	2,9429664E-005
2	1	0	1	0	9,747124075640121E+004	2,9881577E+000	2,9889812E+000	1,009020951116145E-002	1,000000000000000E+000	-4,9142395E-003	41	3,0159446E-005
2	1	0	1	1	9,758322012990154E+004	2,9894574E+000	2,9902952E+000	6,912910463197676E-003	1,000000000000000E+000	-3,8978660E-003	41	2,0671643E-005
2	1	0	1	1	9,770319950152026E+004	2,9654615E+000	2,9662178E+000	4,571933176198542E-003	1,000000000000000E+000	-3,2323806E-003	42	1,3561349E-005
2	1	0	1	1	9,782317887316638E+004	2,9414654E+000	2,9422553E+000	3,266888868234431E-003	1,000000000000000E+000	-2,7761427E-003	42	9,6120211E-006
2	1	0	1	1	9,794315684478055E+004	2,9174697E+000	2,9182789E+000	2,432229018028911E-003	1,000000000000000E+000	-2,4438226E-003	42	7,0979227E-006
2	1	0	1	1	9,806313561637420E+004	2,8934741E+000	2,8942907E+000	1,832817260241981E-003	1,000000000000000E+000	-2,1962570E-003	42	5,3047061E-006
2	1	0	1	1	9,818311418800778E+004	2,8694780E+000	2,8703015E+000	1,341919883733830E-003	1,000000000000000E+000	-2,0132351E-003	42	3,8517146E-006
2	1	0	1	1	9,830309205965232E+004	2,8454823E+000	2,8463151E+000	9,290669293544433E-004	1,000000000000000E+000	-1,8848929E-003	42	2,6444172E-006
2	1	0	1	1	9,842307083125232E+004	2,8214872E+000	2,8222594E+000	5,577969926576776E-004	1,000000000000000E+000	-1,8031495E-003	43	1,5742478E-006
2	1	0	1	1	9,854304940285208E+004	2,7974908E+000	2,7982850E+000	3,087854185377542E-004	1,000000000000000E+000	-1,7574393E-003	43	8,6406959E-007
2	1	0	1	1	9,866302807449643E+004	2,7734952E+000	2,7742927E+000	1,066563370384476E-004	1,000000000000000E+000	-1,7390236E-003	43	2,9589589E-007
2	0	0	1	1	9,878300604613021E+004	2,7494993E+000	2,7503166E+000	-7,071154244481389E-005	1,000000000000000E+000	-1,7433009E-003	43	-1,9447913E-007
2	0	0	1	1	9,890298461772411E+004	2,7255034E+000	2,7263520E+000	-2,379194516028359E-004	1,000000000000000E+000	-1,7678495E-003	43	-6,4865219E-007
2	0	0	1	1	9,902296398933767E+004	2,7015073E+000	2,7023649E+000	-4,005595970953299E-004	1,000000000000000E+000	-1,8118351E-003	43	-1,0824582E-006
2	0	0	1	1	9,914294136098446E+004	2,6775117E+000	2,6784079E+000	-5,910019173443141E-004	1,000000000000000E+000	-1,8768745E-003	43	-1,5829443E-006
2	0	0	1	1	9,926292073260341E+004	2,6535161E+000	2,6543374E+000	-8,405527113899795E-004	1,000000000000000E+000	-1,9688918E-003	42	-2,2311106E-006
2	0	0	1	1	9,938289930419682E+004	2,6295202E+000	2,6303260E+000	-1,131060806823993E-003	1,000000000000000E+000	-2,0947808E-003	42	-2,9750586E-006
2	0	0	1	1	9,950287727582734E+004	2,6055243E+000	2,6063805E+000	-1,303895169437208E-003	1,000000000000000E+000	-2,2506155E-003	42	-3,3984470E-006
2	0	0	1	1	9,962285604747315E+004	2,5815287E+000	2,5823569E+000	-1,321663276599730E-003	1,000000000000000E+000	-2,4155304E-003	42	-3,4130064E-006
2	0	0	1	1	9,974283451907558E+004	2,5575330E+000	2,5583773E+000	-1,405521638016550E-003	1,000000000000000E+000	-2,5858295E-003	42	-3,5958547E-006
2	0	0	1	1	9,986281329067372E+004	2,5335374E+000	2,5343916E+000	-1,557742144711540E-003	1,000000000000000E+000	-2,7707643E-003	42	-3,9479287E-006
2	0	0	1	1	9,998279126231582E+004	2,5095415E+000	2,5103738E+000	-1,716239409561598E-003	1,000000000000000E+000	-2,9747954E-003	42	-4,3084024E-006
2	0	0	1	1	1,001027697339547E+005	2,4855456E+000	2,4863791E+000	-1,880608477402783E-003	1,000000000000000E+000	-3,1984602E-003	42	-4,6759055E-006
2	0	0	1	1	1,002227491055483E+005	2,4615495E+000	2,4623857E+000	-2,027899982622244E-003	1,000000000000000E+000	-3,4408167E-003	42	-4,9934720E-006
2	0	0	1	1	1,003427264771576E+005	2,4375539E+000	2,4383731E+000	-2,177711876277577E-003	1,000000000000000E+000	-3,7014512E-003	42	-5,3100739E-006
2	0	0	1	1	1,004627058488047E+005	2,4135578E+000	2,4143875E+000	-2,279296966680822E-003	1,000000000000000E+000	-3,9768508E-003	42	-5,5031060E-006
2	0	0	1	1	1,005826844204278E+005	2,3895624E+000	2,3903670E+000	-2,371423391613846E-003	1,000000000000000E+000	-4,2631030E-003	42	-5,6685722E-006
2	0	0	1	1	1,007026623920215E+005	2,3655663E+000	2,3664029E+000	-2,455403041258891E-003	1,000000000000000E+000	-4,5599053E-003	42	-5,8104729E-006
2	0	0	1	1	1,008226411636466E+005	2,3415706E+000	2,3423851E+000	-2,561686155629343E-003	1,000000000000000E+000	-4,8691807E-003	42	-6,0004554E-006
2	0	0	1	1	1,009426197352936E+005	2,3175747E+000	2,3183894E+000	-2,683526529725241E-003	1,000000000000000E+000	-5,1926253E-003	42	-6,2214594E-006
2	0	0	1	1	1,010625985069009E+005	2,2935791E+000	2,2944252E+000	-2,831012930731952E-003	1,000000000000000E+000	-5,5316268E-003	42	-6,4955475E-006
2	0	0	1	1	1,011825763784949E+005	2,2695837E+000	2,2703929E+000	-2,980637109931917E-003	1,000000000000000E+000	-5,8882637E-003	42	-6,7672172E-006
2	0	0	1	1	1,012955561517776E+005	2,2469873E+000	2,2478125E+000	-3,139076427800987E-003	2,000000000000000E+000	-6,2414845E-003	42	-7,0560554E-006
2	0	0	1	1	1,014155355234232E+005	2,2229915E+000	2,2238255E+000	-3,327205676841853E-003	2,000000000000000E+000	-6,6372114E-003	42	-7,3991246E-006
2	0	0	1	1	1,015355128950414E+005	2,1989958E+000	2,1998255E+000	-3,539083363493067E-003	2,000000000000000E+000	-7,0566777E-003	42	-7,7853656E-006
2	0	0	1	1	1,016554921666346E+005	2,1749997E+000	2,1758094E+000	-3,762825504629773E-003	2,000000000000000E+000	-7,5023384E-003	42	-8,1871913E-006
2	0	0	1	1	1,017754707382652E+005	2,1510038E+000	2,1518548E+000	-4,000288350901597E-003	2,000000000000000E+000	-7,9764295E-003	42	-8,6080399E-006
2	0	0	1	1	1,018954487099119E+005	2,1270084E+000	2,1278193E+000	-4,284412989238470E-003	2,000000000000000E+000	-8,4817288E-003	42	-9,1164566E-006
2	0	0	1	1	1,020154274815128E+005	2,1030126E+000	2,1038578E+000	-4,582163557422483E-003	2,000000000000000E+000	-9,0212040E-003	42	-9,6402200E-006
2	0	0	1	1	1,021354060531110E+005	2,0790167E+000	2,0798628E+000	-4,917440744055604E-003	2,000000000000000E+000	-9,5990729E-003	42	-1,0227603E-005
2	0	0	1	1	1,022553848247540E+005	2,0550208E+000	2,0558579E+000	-5,328398289580601E-003	2,000000000000000E+000	-1,0221504E-002	42	-1,0954430E-005
2	0	0	1	1	1,023753627963923E+005	2,0310249E+000	2,0318749E+000	-5,748132973078149E-003	2,000000000000000E+000	-1,0893568E-002	42	-1,1679487E-005
2	0	0	1	1	1,024953413679856E+005	2,0070293E+000	2,0078678E+000	-6,166543059729149E-003	2,000000000000000E+000	-1,1616763E-002	42	-1,2381603E-005
2	0	0	1	1	1,026153207395947E+005	1,9830335E+000	1,9838976E+000	-6,611354168527031E-003	2,000000000000000E+000	-1,2391170E-002	42	-1,3116250E-005
2	0	0	1	1	1,027352992112415E+005	1,9590379E+000	1,9599053E+000	-7,140561553087760E-003	2,000000000000000E+000	-1,3222957E-002	42	-1,3994824E-005
2	0	0	1	1	1,028552782828638E+005	1,9350420E+000	1,9359100E+000	-7,784511692669055E-003	2,000000000000000E+000	-1,4124149E-002	42	-1,5070113E-005
2	0	0	1	1	1,029752570544567E+005	1,9110463E+000	1,9119304E+000	-8,498571541360606E-003	2,000000000000000E+000	-1,5108416E-002	42	-1,6248678E-005
2	0	0	1	1	1,030952359260832E+005	1,8870503E+000	1,8879466E+000	-9,194721508906687E-003	2,000000000000000E+000	-1,6178643E-002	42	-1,7359143E-005
2	0	0	1	1	1,032152149977286E+005	1,8630545E+000	1,8638035E+000	-9,936148229925286E-003	2,000000000000000E+000	-1,7334202E-002	41	-1,8519027E-005
2	0	0	1	1	1,033351935693355E+005	1,8390588E+000	1,8398533E+000	-1,085008110020090E-002	2,000000000000000E+000	-1,8588290E-002	41	-1,9962557E-005
2	0	0	1	1	1,034551726409310E+005	1,8150630E+000	1,8158462E+000	-1,193968506057448E-002	2,000000000000000E+000	-1,9962024E-002	41	-2,1680631E-005
2	0	0	1	1	1,035751515125711E+005	1,7910670E+000	1,7918431E+000	-1,322084985323410E-002	2,000000000000000E+000	-2,1478115E-002	41	-2,3689689E-005
2	0	0	1	1	1,036951303842119E+005	1,7670715E+000	1,7678165E+000	-1,477777374546838E-002	2,000000000000000E+000	-2,3163976E-002	41	-2,6124393E-005
2	0	0	1	1	1,038151091558082E+005	1,7430755E+000	1,7438670E+000	-1,653440466702966E-002	2,000000000000000E+000	-2,5048882E-002	41	-2,8833803E-005
2	0	0	1	1	1,039350879274136E+005	1,7190800E+000	1,7198637E+000	-1,858381918897054E-002	2,000000000000000E+000	-2,7162435E-002	41	-3,1961634E-005
2	0	0	1	1	1,040550669990594E+005	1,6950841E+000	1,6958860E+000	-2,086487617833906E-002	2,000000000000000E+000	-2,9536329E-002	41	-3,5384452E-005
2	0	0	1	1	1,041750457706871E+005	1,6710882E+000	1,6718519E+000	-2,339858415648816E-002	2,000000000000000E+000	-3,2197706E-002	41	-3,9118968E-005
2	0	0	1	1	1,042950246422814E+005	1,6470923E+000	1,6478710E+000	-2,611208584205565E-002	2,000000000000000E+000	-3,5173289E-002	41	-4,3029351E-005
2	0	0	1	1	1,044150037139016E+005	1,6230965E+000	1,6238879E+000	-2,925299946873866E-002	2,000000000000000E+000	-3,8495857E-002	41	-4,7503592E-005
2	0	0	1	1	1,045349825855476E+005	1,5991008E+000	1,5999060E+000	-3,324580971598273E-002	2,000000000000000E+000	-4,2243462E-002	41	-5,3190168E-005
2	0	0	1	1	1,046549616571597E+005	1,5751050E+000	1,5759025E+000	-3,880434770099506E-002	2,000000000000000E+000	-4,6559297E-002	41	-6,1151870E-005
2	0	0	1	1	1,047749402287533E+005	1,5511093E+000	1,5519314E+000	-4,669208376026851E-002	2,000000000000000E+000	-5,1666532E-002	41	-7,2462914E-005
2	0	0	1	1	1,048949191003896E+005	1,5271132E+000	1,5279533E+000	-5,947702585757875E-002	2,000000000000000E+000	-5,7967424E-002	41	-9,0878115E-005
2	0	0	1	1	1,050148981720332E+005	1,5031174E+000	1,5039731E+000	-7,958759479770539E-002	2,000000000000000E+000	-6,6293716E-002	41	-1,1969760E-004
2	0	0	1	1	1,051348769436328E+005	1,4791219E+000	1,4799947E+000	-9,710269538436667E-002	2,000000000000000E+000	-7,6968662E-002	41	-1,4371147E-004
2	0	0	1	1	1,052548560152324E+005	1,4551260E+000	1,4558505E+000	-1,074941722160487E-001	2,000000000000000E+000	-8,9316189E-002	40	-1,5649544E-004
2	0	0	1	1	1,053748345868778E+005	1,4311304E+000	1,4318973E+000	-1,122270426438747E-001	2,000000000000000E+000	-1,0255668E-001	40	-1,6069760E-004
2	0	0	1	1	1,054948133585114E+005	1,4071344E+000	1,4078795E+000	-1,132081705941399E-001	2,000000000000000E+000	-1,1611967E-001	40	-1,5938346E-004
2	0	0	1	1	1,056147924301038E+005	1,3831387E+000	1,3839036E+000	-1,121527437811722E-001	2,000000000000000E+000	-1,2965943E-001	40	-1,5520859E-004
2	0	0	1	1	1,057347713017189E+005	1,3591427E+000	1,3598924E+000	-1,107264149999057E-001	2,000000000000000E+000	-1,4304678E-001	40	-1,5057600E-004
2	0	0	1	1	1,058547500733655E+005	1,3351469E+000	1,3359132E+000	-1,072707640480590E-001	2,000000000000000E+000	-1,5616457E-001	40	-1,4330442E-004
2	0	0	1	1	1,059747289449829E+005	1,3111511E+000	1,3119321E+000	-1,020608338770034E-001	2,000000000000000E+000	-1,6872858E-001	40	-1,3389689E-004
2	0	0	1	1	1,060947078165754E+005	1,2871554E+000	1,2879421E+000	-9,738425619369284E-002	2,000000000000000E+000	-1,8069524E-001	40	-1,2542529E-004
2	0	0	1	1	1,062146868882066E+005	1,2631596E+000	1,2639344E+000	-9,318960192285131E-002	2,000000000000000E+000	-1,9213216E-001	40	-1,1778554E-004
2	0	0	1	1	1,063346654598536E+005	1,2391638E+000	1,2399316E+000	-8,934511917648336E-002	2,000000000000000E+000	-2,0308642E-001	40	-1,1078183E-004
2	0	0	1	1	1,064546444314537E+005	1,2151681E+000	1,2159691E+000	-8,572725684634097E-002	2,000000000000000E+000	-2,1359693E-001	40	-1,0424169E-004
2	0	0	1	1	1,065746233030519E+005	1,1911722E+000	1,1919302E+000	-8,254258283035065E-002	2,000000000000000E+000	-2,2369941E-001	40	-9,8384997E-005
2	0	0	1	1	1,066946020746953E+005	1,1671764E+000	1,1679641E+000	-7,955343333480075E-002	2,000000000000000E+000	-2,3342775E-001	40	-9,2915558E-005
2	0	0	1	1	1,068145811463331E+005	1,1431806E+000	1,1439618E+000	-7,673765880138206E-002	2,000000000000000E+000	-2,4280824E-001	40	-8,7784952E-005
2	0	0	1	1	1,069345597179262E+005	1,1191849E+000	1,1199493E+000	-7,425728574979562E-002	2,000000000000000E+000	-2,5187486E-001	40	-8,3164399E-005
2	0	0	1	1	1,070545387895360E+005	1,0951890E+000	1,0959392E+000	-7,215506565799606E-002	2,000000000000000E+000	-2,6066390E-001	40	-7,9077559E-005
2	0	0	1	1	1,071745176611829E+005	1,0711932E+000	1,0719407E+000	-7,038976000871200E-002	2,000000000000000E+000	-2,6922032E-001	40	-7,5453645E-005
2	0	0	1	1	1,072944965328043E+005	1,0471973E+000	1,0479685E+000	-6,905308249370412E-002	2,000000000000000E+000	-2,7759013E-001	40	-7,2365459E-005
2	0	0	1	1	1,074144753043971E+005	1,0232016E+000	1,0239394E+000	-6,823283514935435E-002	2,000000000000000E+000	-2,8583249E-001	40	-6,9866284E-005
2	0	0	0	1	1,075307060769042E+005	9,9995601E-001	1,0007099E+000	-6,772378535265955E-002	2,000000000000000E+000	-2,9373673E-001	40	-6,7771864E-005
2	0	0	1	1	1,076484353490772E+005	1,0235015E+000	1,0242614E+000	-5,120150135051216E-002	2,000000000000000E+000	-3,0049792E-001	40	-5,2443720E-005
2	0	0	1	1	1,077684144207064E+005	1,0474974E+000	1,0482761E+000	-4,339259066614209E-002	2,000000000000000E+000	-3,0613840E-001	41	-4,5487413E-005
2	0	0	1	1	1,078883938922996E+005	1,0714931E+000	1,0723063E+000	-3,768217533295187E-002	2,000000000000000E+000	-3,1097803E-001	41	-4,0406834E-005
2	0	0	1	1	1,080083732639191E+005	1,0954890E+000	1,0962973E+000	-3,333763623084951E-002	2,000000000000000E+000	-3,1522059E-001	41	-3,6547961E-005
2	0	0	1	1	1,081283520355666E+005	1,1194848E+000	1,1202759E+000	-2,980715911820309E-002	2,000000000000000E+000	-3,1899303E-001	41	-3,3392240E-005
2	0	0	1	1	1,082483314071784E+005	1,1434805E+000	1,1442386E+000	-2,685967895276825E-002	2,000000000000000E+000	-3,2237884E-001	41	-3,0733881E-005
2	0	0	1	1	1,083683104787713E+005	1,1674764E+000	1,1682631E+000	-2,432227623853050E-002	2,000000000000000E+000	-3,2544008E-001	41	-2,8414817E-005
2	0	0	1	1	1,084882899504082E+005	1,1914722E+000	1,1922526E+000	-2,212525635974988E-002	2,000000000000000E+000	-3,2821643E-001	41	-2,6378895E-005
2	0	0	1	1	1,086082691220515E+005	1,2154679E+000	1,2162584E+000	-2,013925446550230E-002	2,000000000000000E+000	-3,3074135E-001	41	-2,4494537E-005
2	0	0	1	1	1,087282481936502E+005	1,2394638E+000	1,2402512E+000	-1,835066791644929E-002	2,000000000000000E+000	-3,3304095E-001	41	-2,2759437E-005
2	0	0	1	1	1,088482276652509E+005	1,2634594E+000	1,2642087E+000	-1,672297103334824E-002	2,000000000000000E+000	-3,3513543E-001	41	-2,1141324E-005
2	0	0	1	1	1,089682067368962E+005	1,2874554E+000	1,2882328E+000	-1,517066295316782E-002	2,000000000000000E+000	-3,3704025E-001	41	-1,9543346E-005
2	0	0	1	1	1,090881862085286E+005	1,3114512E+000	1,3122718E+000	-1,370834460468309E-002	2,000000000000000E+000	-3,3876461E-001	41	-1,7989074E-005
2	0	0	1	1	1,092081652801224E+005	1,3354471E+000	1,3362392E+000	-1,227584814314511E-002	2,000000000000000E+000	-3,4031552E-001	41	-1,6403470E-005
2	0	0	1	1	1,093281443517380E+005	1,3594427E+000	1,3602297E+000	-1,082878588416272E-002	2,000000000000000E+000	-3,4169507E-001	41	-1,4729637E-005
2	0	0	1	1	1,094481237233836E+005	1,3834385E+000	1,3841784E+000	-9,366205334154221E-003	2,000000000000000E+000	-3,4290117E-001	41	-1,2964500E-005
2	0	0	1	1	1,095681027950017E+005	1,4074343E+000	1,4081789E+000	-7,818032113740790E-003	2,000000000000000E+000	-3,4392637E-001	41	-1,1009188E-005
2	0	0	1	1	1,096880822665945E+005	1,4314301E+000	1,4321779E+000	-6,098705023393325E-003	2,000000000000000E+000	-3,4475631E-001	41	-8,7344306E-006
2	0	0	1	1	1,098080614382257E+005	1,4554259E+000	1,4562148E+000	-4,181264409923677E-003	2,000000000000000E+000	-3,4536862E-001	42	-6,0888192E-006
2	0	0	1	1	1,099280405098725E+005	1,4794217E+000	1,4801856E+000	-1,923733189992113E-003	2,000000000000000E+000	-3,4573179E-001	42	-2,8474822E-006
2	1	0	1	1	1,100480199814728E+005	1,5034174E+000	1,5040668E+000	7,742436514078781E-004	2,000000000000000E+000	-3,4579799E-001	43	1,1645142E-006
2	1	0	1	1	1,101679987530706E+005	1,5274134E+000	1,5281005E+000	4,328733744359950E-003	2,000000000000000E+000	-3,4549212E-001	42	6,6147400E-006
2	1	0	1	1	1,102879781247134E+005	1,5514091E+000	1,5520508E+000	9,404619783417972E-003	2,000000000000000E+000	-3,4467727E-001	42	1,4596448E-005
2	1	0	1	1	1,104079575963509E+005	1,5754050E+000	1,5761397E+000	1,680167253681697E-002	2,000000000000000E+000	-3,4314114E-001	41	2,6481783E-005
2	1	0	1	1	1,105279365679442E+005	1,5994005E+000	1,6000779E+000	3,700972439265143E-002	2,000000000000000E+000	-3,4005469E-001	41	5,9218441E-005
2	1	0	1	1	1,106479160395544E+005	1,6233966E+000	1,6240841E+000	6,425462856592801E-002	2,000000000000000E+000	-3,3399105E-001	41	1,0435492E-004
2	1	0	1	1	1,107678948112004E+005	1,6473923E+000	1,6480262E+000	9,344259368135477E-002	2,000000000000000E+000	-3,2454103E-001	41	1,5399585E-004
2	1	0	1	1	1,108878742828221E+005	1,6713883E+000	1,6721368E+000	1,249787540039664E-001	2,000000000000000E+000	-3,1143928E-001	40	2,0898157E-004
2	1	0	1	1	1,110078540544158E+005	1,6953839E+000	1,6961476E+000	1,579045148118885E-001	2,000000000000000E+000	-2,9446870E-001	40	2,6782937E-004
2	1	0	1	1	1,111278331260418E+005	1,7193798E+000	1,7201320E+000	1,895479647698104E-001	2,000000000000000E+000	-2,7356908E-001	40	3,2604751E-004
2	1	0	1	1	1,112478122976881E+005	1,7433755E+000	1,7441221E+000	2,132147410122025E-001	2,000000000000000E+000	-2,4928971E-001	40	3,7187256E-004
2	1	0	1	1	1,113677912692949E+005	1,7673715E+000	1,7680784E+000	2,241049132221526E-001	2,000000000000000E+000	-2,2290039E-001	40	3,9623506E-004
2	1	0	1	1	1,114877707408888E+005	1,7913671E+000	1,7920840E+000	2,212279780813593E-001	2,000000000000000E+000	-1,9603761E-001	40	3,9645910E-004
2	1	0	1	1	1,116077501125292E+005	1,8153627E+000	1,8160833E+000	2,056529615365452E-001	2,000000000000000E+000	-1,7028810E-001	40	3,7348291E-004
2	1	0	1	1	1,117277288841703E+005	1,8393587E+000	1,8400998E+000	1,802111102859771E-001	2,000000000000000E+000	-1,4706676E-001	40	3,3160642E-004
2	1	0	1	1	1,118477083557651E+005	1,8633544E+000	1,8640634E+000	1,506239130643681E-001	2,000000000000000E+000	-1,2720391E-001	40	2,8077251E-004
2	1	0	1	1	1,119676874273708E+005	1,8873502E+000	1,8880810E+000	1,225651195076312E-001	2,000000000000000E+000	-1,1084060E-001	40	2,3141287E-004
2	1	0	1	1	1,120876668990166E+005	1,9113462E+000	1,9120814E+000	9,701473307506200E-002	2,000000000000000E+000	-9,7675793E-002	40	1,8550006E-004
2	1	0	1	1	1,122076460706433E+005	1,9353417E+000	1,9360960E+000	7,501530113267108E-002	2,000000000000000E+000	-8,7405890E-002	40	1,4523682E-004
2	1	0	1	1	1,123276251422366E+005	1,9593378E+000	1,9601061E+000	5,884633470496348E-002	2,000000000000000E+000	-7,9416104E-002	40	1,1534506E-004
2	1	0	1	1	1,124476045138580E+005	1,9833336E+000	1,9840558E+000	4,651370756870565E-002	2,000000000000000E+000	-7,3109590E-002	41	9,2285787E-005
2	1	0	1	1	1,125675838855037E+005	2,0073292E+000	2,0080564E+000	3,773431208757094E-002	2,000000000000000E+000	-6,8070441E-002	41	7,5772630E-005
2	1	0	1	1	1,126875635571154E+005	2,0313246E+000	2,0320489E+000	3,115367420509074E-002	2,000000000000000E+000	-6,3946947E-002	41	6,3305793E-005
2	1	0	1	1	1,128075433287085E+005	2,0553207E+000	2,0560539E+000	2,637845957819068E-002	2,000000000000000E+000	-6,0499500E-002	41	5,4235534E-005
2	1	0	1	1	1,129275221003453E+005	2,0793164E+000	2,0800428E+000	2,287403462843141E-002	2,000000000000000E+000	-5,7545025E-002	41	4,7578971E-005
2	1	0	1	1	1,130475012719891E+005	2,1033123E+000	2,1040602E+000	2,030602520550717E-002	2,000000000000000E+000	-5,4951824E-002	41	4,2725100E-005
2	1	0	1	1	1,131674806435874E+005	2,1273084E+000	2,1280854E+000	1,837024942193943E-002	2,000000000000000E+000	-5,2626431E-002	41	3,9093458E-005
2	1	0	1	1	1,132874604151876E+005	2,1513040E+000	2,1520619E+000	1,683491145057125E-002	2,000000000000000E+000	-5,0507963E-002	41	3,6229772E-005
2	1	0	1	1	1,134074395868343E+005	2,1752999E+000	2,1760485E+000	1,558675125543185E-002	2,000000000000000E+000	-4,8554290E-002	41	3,3917528E-005
2	1	0	1	1	1,135274183584659E+005	2,1992958E+000	2,2000682E+000	1,460238783299317E-002	2,000000000000000E+000	-4,6733733E-002	41	3,2126249E-005
2	1	0	1	1	1,136473980300587E+005	2,2232914E+000	2,2240705E+000	1,377877857807447E-002	2,000000000000000E+000	-4,5022674E-002	41	3,0644977E-005
2	1	0	1	1	1,137673768016759E+005	2,2472873E+000	2,2480583E+000	1,308264416495988E-002	2,000000000000000E+000	-4,3401837E-002	41	2,9410547E-005
2	1	0	1	1	1,138873558733216E+005	2,2712827E+000	2,2720013E+000	1,250324860311298E-002	2,000000000000000E+000	-4,1857768E-002	41	2,8407396E-005
2	1	0	1	1	1,140073356449380E+005	2,2952788E+000	2,2960382E+000	1,200401139028175E-002	2,000000000000000E+000	-4,0377479E-002	41	2,7561668E-005
2	1	0	1	1	1,141273144165318E+005	2,3192744E+000	2,3200216E+000	1,156356778048359E-002	2,000000000000000E+000	-3,8954284E-002	41	2,6827727E-005
2	1	0	1	1	1,142472935881636E+005	2,3432703E+000	2,3440201E+000	1,121919916805067E-002	2,000000000000000E+000	-3,7579067E-002	41	2,6298028E-005
2	1	0	1	1	1,143672729598093E+005	2,3672662E+000	2,3680308E+000	1,088123571551321E-002	2,000000000000000E+000	-3,6244381E-002	41	2,5767102E-005
2	1	0	1	1	1,144872527314099E+005	2,3912618E+000	2,3920159E+000	1,062095791052844E-002	2,000000000000000E+000	-3,4945376E-002	41	2,5405501E-005
2	1	0	1	1	1,146072318030079E+005	2,4152579E+000	2,4160216E+000	1,041562823860234E-002	2,000000000000000E+000	-3,3673238E-002	41	2,5164383E-005
2	1	0	1	1	1,147272105746513E+005	2,4392538E+000	2,4399936E+000	1,019415171137310E-002	2,000000000000000E+000	-3,2426424E-002	41	2,4873665E-005
2	1	0	1	1	1,148471902462891E+005	2,4632492E+000	2,4640191E+000	9,991800140656620E-003	2,000000000000000E+000	-3,1205162E-002	41	2,4619985E-005
2	1	0	1	1	1,149671690178819E+005	2,4872451E+000	2,4880438E+000	9,896316493320539E-003	2,000000000000000E+000	-3,0003810E-002	41	2,4622468E-005
2	1	0	1	1	1,150871481894926E+005	2,5112412E+000	2,5120308E+000	9,723982706598730E-003	2,000000000000000E+000	-2,8813858E-002	41	2,4426945E-005
2	1	0	1	1	1,152071279611392E+005	2,5352366E+000	2,5360489E+000	9,365880460804332E-003	2,000000000000000E+000	-2,7660716E-002	41	2,3752331E-005
2	1	0	1	1	1,153271067327596E+005	2,5592325E+000	2,5600276E+000	9,106858946399066E-003	2,000000000000000E+000	-2,6545381E-002	41	2,3313811E-005
2	1	0	1	1	1,154470859043532E+005	2,5832281E+000	2,5840237E+000	8,926058473503307E-003	2,000000000000000E+000	-2,5456324E-002	41	2,3065148E-005
2	1	0	1	1	1,155670652759809E+005	2,6072245E+000	2,6080198E+000	8,863800990198914E-003	2,000000000000000E+000	-2,4381481E-002	41	2,3116969E-005
2	1	0	1	1	1,156870450476260E+005	2,6312201E+000	2,6320057E+000	8,911218494563070E-003	2,000000000000000E+000	-2,3304917E-002	41	2,3454379E-005
2	1	0	1	1	1,158070235192320E+005	2,6552160E+000	2,6560185E+000	8,813872568817938E-003	2,000000000000000E+000	-2,2231158E-002	41	2,3409808E-005
2	1	0	1	1	1,159270028908271E+005	2,6792116E+000	2,6800084E+000	8,610720086036111E-003	2,000000000000000E+000	-2,1176714E-002	41	2,3076802E-005
2	1	0	1	1	1,160469825624671E+005	2,7032073E+000	2,7039993E+000	8,441398328473737E-003	2,000000000000000E+000	-2,0145074E-002	41	2,2825536E-005
2	1	0	1	1	1,161669613341081E+005	2,7272031E+000	2,7279963E+000	8,356893848322583E-003	2,000000000000000E+000	-1,9129058E-002	41	2,2797576E-005
2	1	0	1	1	1,162869405057032E+005	2,7511990E+000	2,7520034E+000	8,395764239762238E-003	2,000000000000000E+000	-1,8115960E-002	41	2,3105173E-005
2	1	0	1	1	1,164069202773089E+005	2,7751946E+000	2,7760177E+000	8,606030762791900E-003	2,000000000000000E+000	-1,7088812E-002	41	2,3890494E-005
2	1	0	1	1	1,165268990489549E+005	2,7991910E+000	2,8000062E+000	9,071018637827451E-003	2,000000000000000E+000	-1,6022528E-002	41	2,5398907E-005
2	1	0	1	1	1,166468782205815E+005	2,8231862E+000	2,8240075E+000	9,655909496582439E-003	2,000000000000000E+000	-1,4887953E-002	41	2,7268361E-005
2	1	0	1	1	1,167668575921737E+005	2,8471823E+000	2,8480041E+000	9,848965000887167E-003	2,000000000000000E+000	-1,3704278E-002	41	2,8049893E-005
2	1	0	1	1	1,168868366637965E+005	2,8711777E+000	2,8720214E+000	9,699802224329396E-003	2,000000000000000E+000	-1,2520384E-002	41	2,7858039E-005
2	1	0	1	1	1,170068158354433E+005	2,8951735E+000	2,8959985E+000	9,475631913044430E-003	2,000000000000000E+000	-1,1361055E-002	41	2,7441416E-005
2	1	0	1	1	1,171267951070521E+005	2,9191694E+000	2,9200094E+000	9,296288798672406E-003	2,000000000000000E+000	-1,0227168E-002	41	2,7145250E-005
2	1	0	1	1	1,172467748786462E+005	2,9431653E+000	2,9439642E+000	9,238909631632070E-003	2,000000000000000E+000	-9,1073662E-003	41	2,7199019E-005
2	1	0	1	1	1,173667530502842E+005	2,9671609E+000	2,9680111E+000	9,334787402215827E-003	2,000000000000000E+000	-7,9851635E-003	41	2,7705753E-005
2	1	0	1	1	1,174867328219258E+005	2,9911568E+000	2,9919708E+000	9,534787049139903E-003	2,000000000000000E+000	-6,8453425E-003	41	2,8527804E-005
2	1	0	1	0	1,175987123954321E+005	2,9864576E+000	2,9872794E+000	6,074426688832076E-003	2,000000000000000E+000	-5,9421468E-003	41	1,8146009E-005
2	1	0	1	0	1,177186917670243E+005	2,9624619E+000	2,9632349E+000	4,046534668551992E-003	2,000000000000000E+000	-5,3578126E-003	42	1,1990833E-005
2	1	0	1	0	1,178386705386491E+005	2,9384661E+000	2,9392784E+000	2,917369029459944E-003	2,000000000000000E+000	-4,9546077E-003	42	8,5749598E-006
2	1	0	1	0	1,179586485102960E+005	2,9144702E+000	2,9152932E+000	2,162255626325639E-003	2,000000000000000E+000	-4,6618776E-003	42	6,3036091E-006
2	1	0	1	0	1,180786278819039E+005	2,8904748E+000	2,8912833E+000	1,612561713325716E-003	2,000000000000000E+000	-4,4455640E-003	42	4,6623727E-006
2	1	0	1	0	1,181986058534987E+005	2,8664787E+000	2,8672881E+000	1,168702646365989E-003	2,000000000000000E+000	-4,2873942E-003	42	3,3510073E-006
2	1	0	1	0	1,183185838251377E+005	2,8424830E+000	2,8433394E+000	8,000777897600644E-004	2,000000000000000E+000	-4,1786819E-003	42	2,2748927E-006
2	1	0	1	0	1,184385630967802E+005	2,8184874E+000	2,8192916E+000	4,655100304810744E-004	2,000000000000000E+000	-4,1125831E-003	43	1,3124085E-006
2	1	0	1	0	1,185585416683771E+005	2,7944915E+000	2,7952986E+000	2,215441885154391E-004	2,000000000000000E+000	-4,0794327E-003	43	6,1928216E-007
2	1	0	1	0	1,186785198399806E+005	2,7704959E+000	2,7713304E+000	3,954900853613940E-005	2,000000000000000E+000	-4,0719537E-003	44	1,0960337E-007
2	0	0	1	0	1,187984983116271E+005	2,7464998E+000	2,7473342E+000	-1,360082823400637E-004	2,000000000000000E+000	-4,0856334E-003	43	-3,7366021E-007
2	0	0	1	0	1,189184768832559E+005	2,7225039E+000	2,7233574E+000	-2,941866419692003E-004	2,000000000000000E+000	-4,1189292E-003	43	-8,0117536E-007
2	0	0	1	0	1,190384556548500E+005	2,6985083E+000	2,6993682E+000	-4,552104729531620E-004	2,000000000000000E+000	-4,1713151E-003	43	-1,2287807E-006
2	0	0	1	0	1,191584336264695E+005	2,6745121E+000	2,6753888E+000	-6,410357791045576E-004	2,000000000000000E+000	-4,2444491E-003	43	-1,7150199E-006
2	0	0	1	0	1,192784129981156E+005	2,6505165E+000	2,6513405E+000	-9,039512439246431E-004	2,000000000000000E+000	-4,3446319E-003	42	-2,3966825E-006
2	0	0	1	0	1,193983909697291E+005	2,6265209E+000	2,6273444E+000	-1,225167489178305E-003	2,000000000000000E+000	-4,4811922E-003	42	-3,2189369E-006
2	0	0	1	0	1,195183689413221E+005	2,6025250E+000	2,6033723E+000	-1,370822544034744E-003	2,000000000000000E+000	-4,6485788E-003	42	-3,5687615E-006
2	0	0	1	0	1,196383483129574E+005	2,5785291E+000	2,5793333E+000	-1,374371696209346E-003	2,000000000000000E+000	-4,8222495E-003	42	-3,5449627E-006
2	0	0	1	0	1,197583262846010E+005	2,5545335E+000	2,5553658E+000	-1,459240343377183E-003	2,000000000000000E+000	-4,9996786E-003	42	-3,7288928E-006
2	0	0	1	0	1,198783049562010E+005	2,5305378E+000	2,5313632E+000	-1,609892336710012E-003	2,000000000000000E+000	-5,1917229E-003	42	-4,0752225E-006
2	0	0	1	0	1,199982835278015E+005	2,5065420E+000	2,5073712E+000	-1,778715005029980E-003	2,000000000000000E+000	-5,4027722E-003	42	-4,4598987E-006
2	0	0	1	0	1,201182619994455E+005	2,4825459E+000	2,4833698E+000	-1,928866394630399E-003	2,000000000000000E+000	-5,6333435E-003	42	-4,7900885E-006
2	0	0	1	0	1,202382401710798E+005	2,4585505E+000	2,4593623E+000	-2,087789174512921E-003	2,000000000000000E+000	-5,8830194E-003	42	-5,1346301E-006
2	0	0	1	0	1,203582187426727E+005	2,4345543E+000	2,4353693E+000	-2,213104101461139E-003	2,000000000000000E+000	-6,1503029E-003	42	-5,3897256E-006
2	0	0	1	0	1,204781981142876E+005	2,4105582E+000	2,4113460E+000	-2,299094728423240E-003	2,000000000000000E+000	-6,4300988E-003	42	-5,5439127E-006
2	0	0	1	0	1,205981760859340E+005	2,3865628E+000	2,3873613E+000	-2,368095114274731E-003	2,000000000000000E+000	-6,7186398E-003	42	-5,6534986E-006
2	0	0	1	0	1,207181540575514E+005	2,3625672E+000	2,3633680E+000	-2,454416329016273E-003	2,000000000000000E+000	-7,0166048E-003	42	-5,8006890E-006
2	0	0	1	0	1,208381334291452E+005	2,3385711E+000	2,3393512E+000	-2,561371843476011E-003	2,000000000000000E+000	-7,3261503E-003	42	-5,9919485E-006
2	0	0	1	0	1,209581114007754E+005	2,3145752E+000	2,3154140E+000	-2,684391279883808E-003	2,000000000000000E+000	-7,6496373E-003	42	-6,2154772E-006
2	0	0	1	0	1,210780901724214E+005	2,2905798E+000	2,2914050E+000	-2,830767863568784E-003	2,000000000000000E+000	-7,9886541E-003	42	-6,4864357E-006
2	0	0	1	0	1,211980687440231E+005	2,2665837E+000	2,2674005E+000	-2,971763164816718E-003	2,000000000000000E+000	-8,3450349E-003	42	-6,7381775E-006
2	0	0	1	0	1,212824790240636E+005	2,2496376E+000	2,2504263E+000	-3,263349532686782E-003	2,000000000000000E+000	-8,6073158E-003	42	-7,3439278E-006