File: Dati/210416_2/CV_LTO-CB_grafite nuova_15 layers__04_CV_C01.mpt
EC-Lab ASCII FILE
Nb header lines : 57

Cyclic Voltammetry

Run on channel : 1 (SN 6806)
User : Seelab
Electrode connection : standard
Ewe ctrl range : min = 0,00 V, max = 5,00 V
Ewe,I filtering : 50 kHz
Safety Limits :
	Do not start on E overload
Channel : Grounded
Acquisition started on : 04/16/2021 18:47:00
Saved on :
	File : CV_LTO-CB_grafite nuova_15 layers__04_CV_C01.mpr
	Directory : C:\Users\labsuperfici\Desktop\Biologic\Users\Prisca Viviani\210416_2\
	Host : 10.78.33.0
Device : VSP-300 (SN 0638)
Address : USB
EC-Lab for windows v11.31 (software)
Internet server v11.30 (firmware)
Command interpretor v11.31 (firmware)
Electrode material :
Initial state :
Electrolyte :
Comments :
Cable : standard
Reference electrode : SCE Saturated Calomel Electrode (0,241 V)
Electrode surface area : 0,001 cm²
Characteristic mass : 0,001 g
Equivalent Weight : 0,000 g/eq.
Density : 0,000 g/cm3
Cycle Definition : Charge/Discharge alternance
Ei (V)              0,000
vs.                 Eoc
dE/dt               0,300
dE/dt unit          mV/s
E1 (V)              1,000
vs.                 Ref
Step percent        50
N                   10
E range min (V)     0,000
E range max (V)     5,000
I Range             Auto
I Range min         Unset
I Range max         Unset
I Range init        Unset
Bandwidth           8
E2 (V)              3,000
vs.                 Ref
nc cycles           1
Reverse Scan        1
Ef (V)              0,000
vs.                 Eoc

mode	ox/red	error	control changes	counter inc.	time/s	control/V	Ewe/V	<I>/mA	cycle number	(Q-Qo)/C	I Range	P/W
2	0	0	1	0	1,212829116239601E+005	2,2496376E+000	2,2504301E+000	-3,238022560253739E-003	1,000000000000000E+000	0,0000000E+000	42	-7,2869434E-006
2	0	0	1	0	1,213613979053805E+005	2,2260909E+000	2,2268937E+000	-4,095135252506264E-003	1,000000000000000E+000	-3,0439685E-004	42	-9,1194306E-006
2	0	0	1	0	1,214413837864760E+005	2,2020950E+000	2,2029097E+000	-4,573638023717345E-003	1,000000000000000E+000	-6,5788580E-004	42	-1,0075311E-005
2	0	0	1	0	1,215213695675386E+005	2,1780992E+000	2,1789403E+000	-4,999739932255373E-003	1,000000000000000E+000	-1,0473621E-003	42	-1,0894135E-005
2	0	0	1	0	1,216013558486383E+005	2,1541038E+000	2,1549380E+000	-5,430256075849460E-003	1,000000000000000E+000	-1,4715057E-003	42	-1,1701865E-005
2	0	0	1	0	1,216813410296957E+005	2,1301076E+000	2,1309476E+000	-5,856353685279023E-003	1,000000000000000E+000	-1,9297464E-003	42	-1,2479582E-005
2	0	0	1	0	1,217613271108015E+005	2,1061118E+000	2,1069264E+000	-6,306865982289661E-003	1,000000000000000E+000	-2,4231898E-003	42	-1,3288102E-005
2	0	0	1	0	1,218413132918532E+005	2,0821159E+000	2,0829375E+000	-6,818360116861155E-003	1,000000000000000E+000	-2,9543668E-003	42	-1,4202218E-005
2	0	0	1	0	1,219212987729645E+005	2,0581205E+000	2,0589671E+000	-7,358529842123235E-003	1,000000000000000E+000	-3,5270378E-003	42	-1,5150971E-005
2	0	0	1	0	1,220012845540110E+005	2,0341244E+000	2,0350077E+000	-7,972490140710511E-003	1,000000000000000E+000	-4,1463729E-003	42	-1,6224079E-005
2	0	0	1	0	1,220812706351269E+005	2,0101290E+000	2,0110316E+000	-8,601994379981562E-003	1,000000000000000E+000	-4,8163878E-003	42	-1,7298882E-005
2	0	0	1	0	1,221612564161675E+005	1,9861331E+000	1,9870383E+000	-9,214547275290794E-003	1,000000000000000E+000	-5,5367011E-003	42	-1,8309658E-005
2	0	0	1	0	1,222412424972900E+005	1,9621372E+000	1,9629114E+000	-9,872332203766314E-003	1,000000000000000E+000	-6,3074990E-003	41	-1,9378513E-005
2	0	0	1	0	1,223212284783275E+005	1,9381415E+000	1,9388882E+000	-1,062959955732112E-002	1,000000000000000E+000	-7,1332674E-003	41	-2,0609605E-005
2	0	0	1	0	1,224012145594507E+005	1,9141455E+000	1,9149374E+000	-1,157488071241630E-002	1,000000000000000E+000	-8,0268225E-003	41	-2,2165172E-005
2	0	0	1	0	1,224812004404862E+005	1,8901497E+000	1,8909278E+000	-1,260794842739671E-002	1,000000000000000E+000	-9,0006469E-003	41	-2,3840719E-005
2	0	0	1	0	1,225611864216102E+005	1,8661541E+000	1,8669180E+000	-1,353119496470740E-002	1,000000000000000E+000	-1,0052271E-002	41	-2,5261632E-005
2	0	0	1	0	1,226411725026481E+005	1,8421581E+000	1,8429345E+000	-1,467245468541106E-002	1,000000000000000E+000	-1,1185730E-002	41	-2,7040373E-005
2	0	0	1	0	1,227211584837686E+005	1,8181626E+000	1,8189305E+000	-1,608633672046317E-002	1,000000000000000E+000	-1,2421996E-002	41	-2,9259929E-005
2	0	0	1	0	1,228011445648107E+005	1,7941666E+000	1,7949433E+000	-1,777490235244530E-002	1,000000000000000E+000	-1,3781168E-002	41	-3,1904943E-005
2	0	0	1	0	1,228811303459259E+005	1,7701708E+000	1,7709293E+000	-1,977440556048579E-002	1,000000000000000E+000	-1,5287430E-002	41	-3,5019075E-005
2	0	0	1	0	1,229611164269736E+005	1,7461752E+000	1,7469480E+000	-2,210955837854803E-002	1,000000000000000E+000	-1,6967561E-002	41	-3,8624250E-005
2	0	0	1	0	1,230411024080836E+005	1,7221791E+000	1,7229590E+000	-2,481322602378400E-002	1,000000000000000E+000	-1,8849058E-002	41	-4,2752174E-005
2	0	0	1	0	1,231210884891367E+005	1,6981834E+000	1,6989896E+000	-2,792536691344069E-002	1,000000000000000E+000	-2,0962883E-002	41	-4,7444908E-005
2	0	0	1	0	1,232010744702411E+005	1,6741877E+000	1,6749744E+000	-3,141256484193422E-002	1,000000000000000E+000	-2,3340369E-002	41	-5,2615243E-005
2	0	0	1	0	1,232810605512982E+005	1,6501919E+000	1,6509593E+000	-3,525024220777606E-002	1,000000000000000E+000	-2,6011785E-002	41	-5,8196714E-005
2	0	0	1	0	1,233610465323975E+005	1,6261959E+000	1,6269988E+000	-3,955768757532657E-002	1,000000000000000E+000	-2,9008541E-002	41	-6,4360313E-005
2	0	0	1	0	1,234410326134614E+005	1,6022002E+000	1,6030115E+000	-4,474786065557068E-002	1,000000000000000E+000	-3,2381374E-002	41	-7,1731338E-005
2	0	0	1	0	1,235210183945557E+005	1,5782043E+000	1,5790143E+000	-5,152487572169639E-002	1,000000000000000E+000	-3,6228072E-002	41	-8,1358514E-005
2	0	0	1	0	1,236010044756234E+005	1,5542084E+000	1,5550293E+000	-6,063602803966550E-002	1,000000000000000E+000	-4,0705591E-002	41	-9,4290801E-005
2	0	0	1	0	1,236809905567118E+005	1,5302126E+000	1,5310515E+000	-7,426512877986058E-002	1,000000000000000E+000	-4,6063285E-002	41	-1,1370374E-004
2	0	0	1	0	1,237609765377864E+005	1,5062169E+000	1,5070612E+000	-9,516596892195051E-002	1,000000000000000E+000	-5,2817162E-002	41	-1,4342094E-004
2	0	0	1	0	1,238409624188697E+005	1,4822211E+000	1,4829798E+000	-1,154582084475873E-001	1,000000000000000E+000	-6,1279714E-002	40	-1,7122219E-004
2	0	0	1	0	1,239209483999484E+005	1,4582256E+000	1,4589722E+000	-1,291824148076671E-001	1,000000000000000E+000	-7,1117952E-002	40	-1,8847355E-004
2	0	0	1	0	1,240009344810261E+005	1,4342296E+000	1,4349892E+000	-1,365609326993558E-001	1,000000000000000E+000	-8,1788518E-002	40	-1,9596347E-004
2	0	0	1	0	1,240809204621109E+005	1,4102339E+000	1,4109776E+000	-1,395669477898887E-001	1,000000000000000E+000	-9,2857279E-002	40	-1,9692583E-004
2	0	0	1	0	1,241609065431836E+005	1,3862379E+000	1,3869829E+000	-1,397535216056243E-001	1,000000000000000E+000	-1,0404534E-001	40	-1,9383575E-004
2	0	0	1	0	1,242408923242742E+005	1,3622421E+000	1,3630090E+000	-1,391121725351379E-001	1,000000000000000E+000	-1,1520399E-001	40	-1,8961114E-004
2	0	0	1	0	1,243208784053412E+005	1,3382463E+000	1,3390045E+000	-1,372813552364727E-001	1,000000000000000E+000	-1,2626880E-001	40	-1,8382036E-004
2	0	0	1	0	1,244008643864365E+005	1,3142507E+000	1,3150295E+000	-1,328360412502776E-001	1,000000000000000E+000	-1,3709450E-001	40	-1,7468331E-004
2	0	0	1	0	1,244808504674981E+005	1,2902550E+000	1,2910156E+000	-1,273477557739420E-001	1,000000000000000E+000	-1,4750718E-001	40	-1,6440795E-004
2	0	0	1	0	1,245608362485992E+005	1,2662591E+000	1,2670022E+000	-1,221309905516457E-001	1,000000000000000E+000	-1,5749314E-001	40	-1,5474024E-004
2	0	0	1	0	1,246408223296560E+005	1,2422632E+000	1,2429957E+000	-1,173767502216425E-001	1,000000000000000E+000	-1,6708264E-001	40	-1,4589880E-004
2	0	0	1	0	1,247208083107620E+005	1,2182674E+000	1,2189956E+000	-1,132883683593966E-001	1,000000000000000E+000	-1,7631267E-001	40	-1,3809802E-004
2	0	0	1	0	1,248007943918121E+005	1,1942717E+000	1,1950150E+000	-1,093292883442250E-001	1,000000000000000E+000	-1,8522109E-001	40	-1,3065014E-004
2	0	0	1	0	1,248807802729238E+005	1,1702759E+000	1,1710135E+000	-1,058526830098763E-001	1,000000000000000E+000	-1,9383095E-001	40	-1,2395492E-004
2	0	0	1	0	1,249607662539699E+005	1,1462799E+000	1,1470313E+000	-1,027519855962710E-001	1,000000000000000E+000	-2,0217976E-001	40	-1,1785974E-004
2	0	0	1	0	1,250407523350872E+005	1,1222842E+000	1,1230417E+000	-9,991062020313324E-002	1,000000000000000E+000	-2,1029104E-001	40	-1,1220380E-004
2	0	0	1	0	1,251207383161266E+005	1,0982885E+000	1,0990434E+000	-9,754338610271329E-002	1,000000000000000E+000	-2,1819350E-001	40	-1,0720441E-004
2	0	0	1	0	1,252007243972488E+005	1,0742927E+000	1,0750726E+000	-9,563478992448837E-002	1,000000000000000E+000	-2,2592185E-001	40	-1,0281435E-004
2	0	0	1	0	1,252807101782858E+005	1,0502969E+000	1,0510408E+000	-9,398958197546348E-002	1,000000000000000E+000	-2,3351046E-001	40	-9,8786884E-005
2	0	0	1	0	1,253606962594092E+005	1,0263010E+000	1,0270846E+000	-9,289914655741605E-002	1,000000000000000E+000	-2,4098878E-001	40	-9,5415278E-005
2	0	0	1	0	1,254406822404456E+005	1,0023053E+000	1,0030719E+000	-9,224075368443030E-002	1,000000000000000E+000	-2,4839741E-001	40	-9,2524111E-005
2	0	0	1	0	1,255170030224358E+005	1,0205021E+000	1,0212640E+000	-7,290955573098568E-002	1,000000000000000E+000	-2,5461301E-001	40	-7,4459902E-005
2	0	0	1	0	1,255969889034738E+005	1,0444978E+000	1,0452551E+000	-6,199644138499899E-002	1,000000000000000E+000	-2,5997058E-001	40	-6,4802094E-005
2	0	0	1	0	1,256769748845968E+005	1,0684936E+000	1,0692635E+000	-5,425552986085685E-002	1,000000000000000E+000	-2,6460007E-001	40	-5,8013455E-005
2	0	0	1	0	1,257569609656338E+005	1,0924895E+000	1,0932959E+000	-4,862714751168573E-002	1,000000000000000E+000	-2,6869071E-001	41	-5,3163862E-005
2	0	0	1	0	1,258369473467581E+005	1,1164852E+000	1,1172574E+000	-4,399625408986529E-002	1,000000000000000E+000	-2,7238452E-001	41	-4,9155140E-005
2	0	0	1	0	1,259169332277945E+005	1,1404811E+000	1,1412646E+000	-3,997544892883531E-002	1,000000000000000E+000	-2,7573255E-001	41	-4,5622564E-005
2	0	0	1	0	1,259969193089162E+005	1,1644768E+000	1,1652611E+000	-3,650821259921655E-002	1,000000000000000E+000	-2,7878159E-001	41	-4,2541600E-005
2	0	0	1	0	1,260769056899565E+005	1,1884727E+000	1,1892396E+000	-3,349470075833605E-002	1,000000000000000E+000	-2,8157231E-001	41	-3,9833227E-005
2	0	0	1	0	1,261568917710749E+005	1,2124686E+000	1,2132688E+000	-3,077241967894564E-002	1,000000000000000E+000	-2,8413361E-001	41	-3,7335216E-005
2	0	0	1	0	1,262368779521193E+005	1,2364643E+000	1,2372690E+000	-2,827344819549774E-002	1,000000000000000E+000	-2,8648791E-001	41	-3,4981862E-005
2	0	0	1	0	1,263168640332308E+005	1,2604601E+000	1,2612389E+000	-2,598995395214582E-002	1,000000000000000E+000	-2,8865144E-001	41	-3,2779542E-005
2	0	0	1	0	1,263968500142811E+005	1,2844559E+000	1,2852401E+000	-2,379984151840925E-002	1,000000000000000E+000	-2,9063585E-001	41	-3,0588508E-005
2	0	0	1	0	1,264768364953888E+005	1,3084517E+000	1,3092325E+000	-2,171837936859225E-002	1,000000000000000E+000	-2,9245016E-001	41	-2,8434408E-005
2	0	0	1	0	1,265568224764441E+005	1,3324476E+000	1,3332057E+000	-1,969259962911818E-002	1,000000000000000E+000	-2,9409996E-001	41	-2,6254285E-005
2	0	0	1	0	1,266368087575457E+005	1,3564430E+000	1,3572131E+000	-1,767700146036051E-002	1,000000000000000E+000	-2,9558814E-001	41	-2,3991459E-005
2	0	0	1	0	1,267167947386061E+005	1,3804390E+000	1,3812100E+000	-1,558162428108256E-002	1,000000000000000E+000	-2,9691353E-001	41	-2,1521495E-005
2	0	0	1	0	1,267967808197026E+005	1,4044348E+000	1,4051877E+000	-1,341836470453261E-002	1,000000000000000E+000	-2,9806954E-001	41	-1,8855322E-005
2	0	0	1	0	1,268767672007688E+005	1,4284307E+000	1,4292064E+000	-1,101310533258988E-002	1,000000000000000E+000	-2,9904327E-001	41	-1,5740001E-005
2	0	0	1	0	1,269567530818596E+005	1,4524264E+000	1,4531670E+000	-8,337388584814573E-003	1,000000000000000E+000	-2,9981467E-001	41	-1,2115617E-005
2	0	0	1	0	1,270367394629309E+005	1,4764222E+000	1,4771575E+000	-5,206888566590070E-003	1,000000000000000E+000	-3,0035448E-001	41	-7,6913948E-006
2	0	0	1	0	1,271167255440165E+005	1,5004181E+000	1,5011847E+000	-1,501021951969082E-003	1,000000000000000E+000	-3,0062243E-001	42	-2,2533111E-006
2	1	0	1	0	1,271970447250141E+005	1,5245137E+000	1,5252211E+000	3,194854253220553E-003	1,000000000000000E+000	-3,0055732E-001	42	4,8728593E-006
2	1	0	1	0	1,272770312060937E+005	1,5485095E+000	1,5491536E+000	9,477548443377004E-003	1,000000000000000E+000	-3,0005750E-001	42	1,4682178E-005
2	1	0	1	0	1,273570171871780E+005	1,5725055E+000	1,5732405E+000	1,776950984413275E-002	1,000000000000000E+000	-2,9897732E-001	41	2,7955713E-005
2	1	0	1	0	1,274370036682510E+005	1,5965012E+000	1,5971931E+000	3,585771590009579E-002	1,000000000000000E+000	-2,9694068E-001	41	5,7271696E-005
2	1	0	1	0	1,275169894493399E+005	1,6204970E+000	1,6211877E+000	6,489862536798541E-002	1,000000000000000E+000	-2,9293355E-001	41	1,0521285E-004
2	1	0	1	0	1,275969755304084E+005	1,6444929E+000	1,6451564E+000	9,736160050218068E-002	1,000000000000000E+000	-2,8645906E-001	41	1,6017506E-004
2	1	0	1	0	1,276769619115035E+005	1,6684886E+000	1,6692234E+000	1,335373770735480E-001	1,000000000000000E+000	-2,7722865E-001	40	2,2290372E-004
2	1	0	1	0	1,277569479925660E+005	1,6924843E+000	1,6932042E+000	1,729721060663731E-001	1,000000000000000E+000	-2,6498240E-001	40	2,9287708E-004
2	1	0	1	0	1,278369343736651E+005	1,7164803E+000	1,7171750E+000	2,135670610380869E-001	1,000000000000000E+000	-2,4951339E-001	40	3,6673201E-004
2	1	0	1	0	1,279169204547227E+005	1,7404759E+000	1,7412118E+000	2,507502801952151E-001	1,000000000000000E+000	-2,3086928E-001	40	4,3660935E-004
2	1	0	1	0	1,279969065358285E+005	1,7644718E+000	1,7651755E+000	2,757325171537666E-001	1,000000000000000E+000	-2,0972057E-001	40	4,8671628E-004
2	1	0	1	0	1,280768927168807E+005	1,7884675E+000	1,7891760E+000	2,863279667334728E-001	1,000000000000000E+000	-1,8712504E-001	40	5,1229110E-004
2	1	0	1	0	1,281568787979912E+005	1,8124633E+000	1,8131472E+000	2,801629651212108E-001	1,000000000000000E+000	-1,6435896E-001	40	5,0797669E-004
2	1	0	1	0	1,282368651790377E+005	1,8364592E+000	1,8371783E+000	2,585530223558070E-001	1,000000000000000E+000	-1,4272679E-001	40	4,7500801E-004
2	1	0	1	0	1,283168512601535E+005	1,8604552E+000	1,8611884E+000	2,253124526444088E-001	1,000000000000000E+000	-1,2332692E-001	40	4,1934891E-004
2	1	0	1	0	1,283968372411950E+005	1,8844508E+000	1,8852108E+000	1,890043854996781E-001	1,000000000000000E+000	-1,0674358E-001	40	3,5631310E-004
2	1	0	1	0	1,284768235223163E+005	1,9084467E+000	1,9091822E+000	1,535634508855579E-001	1,000000000000000E+000	-9,3047962E-002	40	2,9318061E-004
2	1	0	1	0	1,285568095033532E+005	1,9324422E+000	1,9331902E+000	1,216146165144427E-001	1,000000000000000E+000	-8,2063034E-002	40	2,3510419E-004
2	1	0	1	0	1,286367959844764E+005	1,9564383E+000	1,9571854E+000	9,585528943605903E-002	1,000000000000000E+000	-7,3405527E-002	40	1,8760657E-004
2	1	0	1	0	1,287167819655135E+005	1,9804342E+000	1,9811733E+000	7,630487463755314E-002	1,000000000000000E+000	-6,6544987E-002	40	1,5117318E-004
2	1	0	1	0	1,287967680466375E+005	2,0044298E+000	2,0051908E+000	6,171056476835490E-002	1,000000000000000E+000	-6,1043698E-002	40	1,2374145E-004
2	1	0	1	0	1,288767546276741E+005	2,0284255E+000	2,0291855E+000	5,075052231348920E-002	1,000000000000000E+000	-5,6557138E-002	40	1,0298222E-004
2	1	0	1	0	1,289567405087947E+005	2,0524216E+000	2,0531480E+000	4,225887490136571E-002	1,000000000000000E+000	-5,2850027E-002	41	8,6763728E-005
2	1	0	1	0	1,290367266898371E+005	2,0764170E+000	2,0771418E+000	3,603417156464861E-002	1,000000000000000E+000	-4,9721263E-002	41	7,4848082E-005
2	1	0	1	0	1,291167129709534E+005	2,1004128E+000	2,1011536E+000	3,143940507326712E-002	1,000000000000000E+000	-4,7023177E-002	41	6,6059023E-005
2	1	0	1	0	1,291966991519998E+005	2,1244085E+000	2,1251371E+000	2,797333642543642E-002	1,000000000000000E+000	-4,4646550E-002	41	5,9447175E-005
2	1	0	1	0	1,292766850331093E+005	2,1484046E+000	2,1491568E+000	2,532643004424701E-002	1,000000000000000E+000	-4,2510875E-002	41	5,4430471E-005
2	1	0	1	0	1,293566712141621E+005	2,1724005E+000	2,1731393E+000	2,328488149581759E-002	1,000000000000000E+000	-4,0560644E-002	41	5,0601291E-005
2	1	0	1	0	1,294366578952678E+005	2,1963959E+000	2,1971579E+000	2,165664805260703E-002	1,000000000000000E+000	-3,8757112E-002	41	4,7583075E-005
2	1	0	1	0	1,295166436763247E+005	2,2203915E+000	2,2211502E+000	2,031981536982769E-002	1,000000000000000E+000	-3,7072204E-002	41	4,5133362E-005
2	1	0	1	0	1,295966295574245E+005	2,2443879E+000	2,2451513E+000	1,922500485974761E-002	1,000000000000000E+000	-3,5484046E-002	41	4,3163043E-005
2	1	0	1	0	1,296766161384872E+005	2,2683835E+000	2,2691267E+000	1,829225882419094E-002	1,000000000000000E+000	-3,3976577E-002	41	4,1507454E-005
2	1	0	1	0	1,297566020195818E+005	2,2923794E+000	2,2931476E+000	1,751585719114790E-002	1,000000000000000E+000	-3,2536764E-002	41	4,0166444E-005
2	1	0	1	0	1,298365882006497E+005	2,3163748E+000	2,3171246E+000	1,680930008692488E-002	1,000000000000000E+000	-3,1155413E-002	41	3,8949242E-005
2	1	0	1	0	1,299165744817383E+005	2,3403711E+000	2,3411040E+000	1,623412833771221E-002	1,000000000000000E+000	-2,9825306E-002	41	3,8005783E-005
2	1	0	1	0	1,299965607628117E+005	2,3643665E+000	2,3651428E+000	1,575093469275024E-002	1,000000000000000E+000	-2,8537994E-002	41	3,7253209E-005
2	1	0	1	0	1,300765465438956E+005	2,3883622E+000	2,3891356E+000	1,536101394624254E-002	1,000000000000000E+000	-2,7286667E-002	41	3,6699545E-005
2	1	0	1	0	1,301565328249749E+005	2,4123585E+000	2,4131262E+000	1,504060858007172E-002	1,000000000000000E+000	-2,6063196E-002	41	3,6294889E-005
2	1	0	1	0	1,302365194060528E+005	2,4363544E+000	2,4371009E+000	1,474306163998115E-002	1,000000000000000E+000	-2,4864431E-002	41	3,5930330E-005
2	1	0	1	0	1,303165052871369E+005	2,4603500E+000	2,4611464E+000	1,440551658485190E-002	1,000000000000000E+000	-2,3691149E-002	41	3,5454086E-005
2	1	0	1	0	1,303964910682099E+005	2,4843454E+000	2,4851348E+000	1,413178458091578E-002	1,000000000000000E+000	-2,2542747E-002	41	3,5119388E-005
2	1	0	1	0	1,304764777492998E+005	2,5083416E+000	2,5091252E+000	1,392434392220662E-002	1,000000000000000E+000	-2,1411873E-002	41	3,4937922E-005
2	1	0	1	0	1,305564635303677E+005	2,5323374E+000	2,5330994E+000	1,354193944486640E-002	1,000000000000000E+000	-2,0304130E-002	41	3,4303081E-005
2	1	0	1	0	1,306364498114623E+005	2,5563328E+000	2,5571184E+000	1,315312851239178E-002	1,000000000000000E+000	-1,9228278E-002	41	3,3634107E-005
2	1	0	1	0	1,307164359925237E+005	2,5803287E+000	2,5811248E+000	1,288618272133218E-002	1,000000000000000E+000	-1,8179568E-002	41	3,3260847E-005
2	1	0	1	0	1,307964222736246E+005	2,6043248E+000	2,6051061E+000	1,278155775519418E-002	1,000000000000000E+000	-1,7146938E-002	41	3,3297314E-005
2	1	0	1	0	1,308764080546820E+005	2,6283205E+000	2,6291120E+000	1,282623461765081E-002	1,000000000000000E+000	-1,6115032E-002	41	3,3721608E-005
2	1	0	1	0	1,309563943357873E+005	2,6523163E+000	2,6530900E+000	1,270181739007781E-002	1,000000000000000E+000	-1,5083545E-002	41	3,3699063E-005
2	1	0	1	0	1,310363809168378E+005	2,6763117E+000	2,6770992E+000	1,241778147921258E-002	1,000000000000000E+000	-1,4070447E-002	41	3,3243632E-005
2	1	0	1	0	1,311163664153875E+005	2,7003081E+000	2,7011030E+000	1,214713279013033E-002	1,000000000000000E+000	-1,3081156E-002	41	3,2810658E-005
2	1	0	1	0	1,311963526279028E+005	2,7243037E+000	2,7251012E+000	1,198103469966743E-002	1,000000000000000E+000	-1,2110279E-002	41	3,2649532E-005
2	1	0	1	0	1,312763393404181E+005	2,7482994E+000	2,7491040E+000	1,194602807063759E-002	1,000000000000000E+000	-1,1147235E-002	41	3,2840875E-005
2	1	0	1	0	1,313563251529324E+005	2,7722950E+000	2,7730873E+000	1,207376105793141E-002	1,000000000000000E+000	-1,0180610E-002	41	3,3481592E-005
2	1	0	1	0	1,314363114654467E+005	2,7962914E+000	2,7970805E+000	1,243873643381621E-002	1,000000000000000E+000	-9,1948388E-003	41	3,4792149E-005
2	1	0	1	0	1,315162976779611E+005	2,8202872E+000	2,8210855E+000	1,302962734005816E-002	1,000000000000000E+000	-8,1679253E-003	41	3,6757690E-005
2	1	0	1	0	1,315962835904756E+005	2,8442826E+000	2,8450782E+000	1,328947662880754E-002	1,000000000000000E+000	-7,1042380E-003	41	3,7809601E-005
2	1	0	1	0	1,316762699029897E+005	2,8682785E+000	2,8690944E+000	1,319199428336497E-002	1,000000000000000E+000	-6,0360651E-003	41	3,7849077E-005
2	1	0	1	0	1,317562561155050E+005	2,8922744E+000	2,8930705E+000	1,295958879800541E-002	1,000000000000000E+000	-4,9829367E-003	41	3,7493002E-005
2	1	0	1	0	1,318362427280205E+005	2,9162705E+000	2,9170702E+000	1,276723265143700E-002	1,000000000000000E+000	-3,9472226E-003	41	3,7242913E-005
2	1	0	1	0	1,319162282405356E+005	2,9402659E+000	2,9410865E+000	1,266114175542160E-002	1,000000000000000E+000	-2,9234760E-003	41	3,7237514E-005
2	1	0	1	0	1,319962145530512E+005	2,9642615E+000	2,9650564E+000	1,266857702359673E-002	1,000000000000000E+000	-1,9036448E-003	41	3,7563044E-005
2	1	0	1	0	1,320762011655651E+005	2,9882576E+000	2,9890671E+000	1,281405098836536E-002	1,000000000000000E+000	-8,7735814E-004	41	3,8302060E-005
2	1	0	1	1	1,321505204771915E+005	2,9894574E+000	2,9902802E+000	8,550097938742687E-003	1,000000000000000E+000	-2,9468671E-005	41	2,5567188E-005
2	1	0	1	1	1,322305067897076E+005	2,9654615E+000	2,9662867E+000	5,660969494150722E-003	1,000000000000000E+000	5,1726092E-004	41	1,6792059E-005
2	1	0	1	1	1,323104930022229E+005	2,9414659E+000	2,9422350E+000	4,016805291166548E-003	1,000000000000000E+000	8,9143141E-004	42	1,1818385E-005
2	1	0	1	1	1,323904789147382E+005	2,9174700E+000	2,9182701E+000	2,960122164966160E-003	1,000000000000000E+000	1,1606454E-003	42	8,6384362E-006
2	1	0	1	1	1,324704643272534E+005	2,8934741E+000	2,8942883E+000	2,200034972379826E-003	1,000000000000000E+000	1,3581351E-003	42	6,3675357E-006
2	1	0	1	1	1,325504506397671E+005	2,8694782E+000	2,8703048E+000	1,600364837938351E-003	1,000000000000000E+000	1,5018272E-003	42	4,5935349E-006
2	1	0	1	1	1,326304360522815E+005	2,8454826E+000	2,8463094E+000	1,072608185536769E-003	1,000000000000000E+000	1,6007490E-003	42	3,0529748E-006
2	1	0	1	1	1,327104219647961E+005	2,8214867E+000	2,8222871E+000	6,384550313619950E-004	1,000000000000000E+000	1,6613791E-003	42	1,8019034E-006
2	1	0	1	1	1,327904082773104E+005	2,7974911E+000	2,7982659E+000	2,987336139751687E-004	1,000000000000000E+000	1,6919503E-003	43	8,3593608E-007
2	1	0	1	1	1,328703936898245E+005	2,7734947E+000	2,7743144E+000	3,496098731025716E-005	1,000000000000000E+000	1,6995678E-003	43	9,6992771E-008
2	0	0	1	1	1,329507133023934E+005	2,7493989E+000	2,7502098E+000	-2,027660020719672E-004	1,000000000000000E+000	1,6877230E-003	43	-5,5764906E-007
2	0	0	1	1	1,330306984149083E+005	2,7254035E+000	2,7262564E+000	-4,136676608850753E-004	1,000000000000000E+000	1,6579026E-003	43	-1,1277641E-006
2	0	0	1	1	1,331106847274227E+005	2,7014079E+000	2,7022972E+000	-6,310586007341624E-004	1,000000000000000E+000	1,6105310E-003	43	-1,7053079E-006
2	0	0	1	1	1,331906709399368E+005	2,6774120E+000	2,6782374E+000	-8,614748610842882E-004	1,000000000000000E+000	1,5445667E-003	42	-2,3072341E-006
2	0	0	1	1	1,332706564524510E+005	2,6534162E+000	2,6542065E+000	-1,221707413525291E-003	1,000000000000000E+000	1,4552684E-003	42	-3,2426638E-006
2	0	0	1	1	1,333506422649656E+005	2,6294203E+000	2,6302531E+000	-1,691404238587019E-003	1,000000000000000E+000	1,3326360E-003	42	-4,4488211E-006
2	0	0	1	1	1,334306281774798E+005	2,6054246E+000	2,6062684E+000	-1,981751321768675E-003	1,000000000000000E+000	1,1767766E-003	42	-5,1649758E-006
2	0	0	1	1	1,335106139899944E+005	2,5814285E+000	2,5822647E+000	-1,981572179511622E-003	1,000000000000000E+000	1,0100940E-003	42	-5,1169436E-006
2	0	0	1	1	1,335905999025097E+005	2,5574329E+000	2,5582752E+000	-2,054815452596677E-003	1,000000000000000E+000	8,4237504E-004	42	-5,2567834E-006
2	0	0	1	1	1,336705857150247E+005	2,5334368E+000	2,5342751E+000	-2,262481793790176E-003	1,000000000000000E+000	6,6312886E-004	42	-5,7337511E-006
2	0	0	1	1	1,337505716275400E+005	2,5094414E+000	2,5102987E+000	-2,473861040170236E-003	1,000000000000000E+000	4,6675504E-004	42	-6,2101303E-006
2	0	0	1	1	1,338305570400553E+005	2,4854457E+000	2,4862854E+000	-2,696305358329709E-003	1,000000000000000E+000	2,5219136E-004	42	-6,7037849E-006
2	0	0	1	1	1,339105433525704E+005	2,4614496E+000	2,4622836E+000	-2,931361344144923E-003	1,000000000000000E+000	1,9548803E-005	42	-7,2178432E-006
2	0	0	1	1	1,339905296650841E+005	2,4374540E+000	2,4382584E+000	-3,122919920570254E-003	1,000000000000000E+000	-2,3028972E-004	42	-7,6144856E-006
2	0	0	1	1	1,340705146775987E+005	2,4134583E+000	2,4142709E+000	-3,258651277096708E-003	1,000000000000000E+000	-4,9288949E-004	42	-7,8672665E-006
2	0	0	1	1	1,341505009901128E+005	2,3894622E+000	2,3902910E+000	-3,339738050352689E-003	1,000000000000000E+000	-7,6378754E-004	42	-7,9829460E-006
2	0	0	1	1	1,342304868026271E+005	2,3654664E+000	2,3662834E+000	-3,451848204374334E-003	1,000000000000000E+000	-1,0423529E-003	42	-8,1680510E-006
2	0	0	1	1	1,343104727151413E+005	2,3414707E+000	2,3423021E+000	-3,577058556573101E-003	1,000000000000000E+000	-1,3310430E-003	42	-8,3785517E-006
2	0	0	1	1	1,343904585276567E+005	2,3174751E+000	2,3182852E+000	-3,757397874640982E-003	1,000000000000000E+000	-1,6319151E-003	42	-8,7107201E-006
2	0	0	1	1	1,344704444401721E+005	2,2934790E+000	2,2943184E+000	-3,940853413338927E-003	1,000000000000000E+000	-1,9466847E-003	42	-9,0415724E-006
2	0	0	1	1	1,345504306526873E+005	2,2694833E+000	2,2703218E+000	-4,144129401922901E-003	1,000000000000000E+000	-2,2769831E-003	42	-9,4085071E-006
2	0	0	1	1	1,346254168644203E+005	2,2469873E+000	2,2478487E+000	-4,361697156949840E-003	2,000000000000000E+000	-2,6024100E-003	42	-9,8044356E-006
2	0	0	1	1	1,347054031769352E+005	2,2229912E+000	2,2238455E+000	-4,613329505928812E-003	2,000000000000000E+000	-2,9686119E-003	42	-1,0259332E-005
2	0	0	1	1	1,347853886894493E+005	2,1989958E+000	2,1998470E+000	-4,901623948700959E-003	2,000000000000000E+000	-3,3563573E-003	42	-1,0782823E-005
2	0	0	1	1	1,348653745019636E+005	2,1749997E+000	2,1758387E+000	-5,224325508827815E-003	2,000000000000000E+000	-3,7684098E-003	42	-1,1367290E-005
2	0	0	1	1	1,349453608144782E+005	2,1510043E+000	2,1518538E+000	-5,573626299617801E-003	2,000000000000000E+000	-4,2071710E-003	42	-1,1993629E-005
2	0	0	1	1	1,350253462269926E+005	2,1270080E+000	2,1278887E+000	-5,934604490918365E-003	2,000000000000000E+000	-4,6744649E-003	42	-1,2628178E-005
2	0	0	1	1	1,351053321395060E+005	2,1030126E+000	2,1038709E+000	-6,359128565901928E-003	2,000000000000000E+000	-5,1732757E-003	42	-1,3378785E-005
2	0	0	1	1	1,351853183520217E+005	2,0790164E+000	2,0798554E+000	-6,813137698424621E-003	2,000000000000000E+000	-5,7074586E-003	42	-1,4170341E-005
2	0	0	1	1	1,352653038645373E+005	2,0550210E+000	2,0558989E+000	-7,346776547901834E-003	2,000000000000000E+000	-6,2813652E-003	42	-1,5104230E-005
2	0	0	1	1	1,353452896770523E+005	2,0310249E+000	2,0318747E+000	-7,936165785621202E-003	2,000000000000000E+000	-6,9009168E-003	42	-1,6125294E-005
2	0	0	1	1	1,354252755895676E+005	2,0070293E+000	2,0079131E+000	-8,566901873934510E-003	2,000000000000000E+000	-7,5696344E-003	42	-1,7201595E-005
2	0	0	1	1	1,355052618020831E+005	1,9830334E+000	1,9838972E+000	-9,191993644778957E-003	2,000000000000000E+000	-8,2878750E-003	42	-1,8235971E-005
2	0	0	1	1	1,355852477145966E+005	1,9590379E+000	1,9598473E+000	-9,799492622499781E-003	2,000000000000000E+000	-9,0558836E-003	41	-1,9205509E-005
2	0	0	1	1	1,356652337271111E+005	1,9350419E+000	1,9358069E+000	-1,058819647628795E-002	2,000000000000000E+000	-9,8782871E-003	41	-2,0496704E-005
2	0	0	1	1	1,357452198396256E+005	1,9110461E+000	1,9118434E+000	-1,148456556217148E-002	2,000000000000000E+000	-1,0767586E-002	41	-2,1956692E-005
2	0	0	1	1	1,358252059521398E+005	1,8870504E+000	1,8878617E+000	-1,241218040786092E-002	2,000000000000000E+000	-1,1732382E-002	41	-2,3432480E-005
2	0	0	1	1	1,359051919646543E+005	1,8630548E+000	1,8638148E+000	-1,343795325558911E-002	2,000000000000000E+000	-1,2774060E-002	41	-2,5045856E-005
2	0	0	1	1	1,359851778771691E+005	1,8390588E+000	1,8398565E+000	-1,468362251134875E-002	2,000000000000000E+000	-1,3905413E-002	41	-2,7015758E-005
2	0	0	1	1	1,360651638896847E+005	1,8150630E+000	1,8158475E+000	-1,615490552527921E-002	2,000000000000000E+000	-1,5145565E-002	41	-2,9334846E-005
2	0	0	1	1	1,361451500022002E+005	1,7910674E+000	1,7918224E+000	-1,790650808409783E-002	2,000000000000000E+000	-1,6513476E-002	41	-3,2085281E-005
2	0	0	1	1	1,362251360147158E+005	1,7670714E+000	1,7678266E+000	-1,996005649989324E-002	2,000000000000000E+000	-1,8033566E-002	41	-3,5285917E-005
2	0	0	1	1	1,363051219272299E+005	1,7430755E+000	1,7438571E+000	-2,237125241615923E-002	2,000000000000000E+000	-1,9732863E-002	41	-3,9012270E-005
2	0	0	1	1	1,363851079397440E+005	1,7190797E+000	1,7198844E+000	-2,512648956023689E-002	2,000000000000000E+000	-2,1639502E-002	41	-4,3214659E-005
2	0	0	1	1	1,364650940522582E+005	1,6950840E+000	1,6958843E+000	-2,830681238167590E-002	2,000000000000000E+000	-2,3783633E-002	41	-4,8005080E-005
2	0	0	1	1	1,365450800647727E+005	1,6710882E+000	1,6718683E+000	-3,190887438598605E-002	2,000000000000000E+000	-2,6197545E-002	41	-5,3347438E-005
2	0	0	1	1	1,366250661772867E+005	1,6470926E+000	1,6478845E+000	-3,585447417061485E-002	2,000000000000000E+000	-2,8913518E-002	41	-5,9084032E-005
2	0	0	1	1	1,367050521898018E+005	1,6230965E+000	1,6239160E+000	-4,037798203962691E-002	2,000000000000000E+000	-3,1967226E-002	41	-6,5570450E-005
2	0	0	1	1	1,367850383023177E+005	1,5991006E+000	1,5999342E+000	-4,611225199061719E-002	2,000000000000000E+000	-3,5426296E-002	41	-7,3776573E-005
2	0	0	1	1	1,368650243148329E+005	1,5751051E+000	1,5759232E+000	-5,379561107761588E-002	2,000000000000000E+000	-3,9417561E-002	41	-8,4777748E-005
2	0	0	1	1	1,369450102273477E+005	1,5511091E+000	1,5519272E+000	-6,440456771802783E-002	2,000000000000000E+000	-4,4132970E-002	41	-9,9951198E-005
2	0	0	1	1	1,370249963398632E+005	1,5271133E+000	1,5279516E+000	-8,153121105221467E-002	2,000000000000000E+000	-4,9917389E-002	41	-1,2457574E-004
2	0	0	1	1	1,371049823523769E+005	1,5031177E+000	1,5038834E+000	-1,056806244834301E-001	2,000000000000000E+000	-5,7415418E-002	40	-1,5893133E-004
2	0	0	1	1	1,371849684648913E+005	1,4791219E+000	1,4799074E+000	-1,247565326034679E-001	2,000000000000000E+000	-6,6696122E-002	40	-1,8462811E-004
2	0	0	1	1	1,372649544774059E+005	1,4551260E+000	1,4559089E+000	-1,354013258695028E-001	2,000000000000000E+000	-7,7158220E-002	40	-1,9713200E-004
2	0	0	1	1	1,373449403899196E+005	1,4311303E+000	1,4318734E+000	-1,399648602371841E-001	2,000000000000000E+000	-8,8212326E-002	40	-2,0041196E-004
2	0	0	1	1	1,374249264024342E+005	1,4071345E+000	1,4079195E+000	-1,406894590978238E-001	2,000000000000000E+000	-9,9463880E-002	40	-1,9807943E-004
2	0	0	1	1	1,375049125149497E+005	1,3831385E+000	1,3839185E+000	-1,395514052413493E-001	2,000000000000000E+000	-1,1068564E-001	40	-1,9312778E-004
2	0	0	1	1	1,375848985274653E+005	1,3591428E+000	1,3598988E+000	-1,382991998342722E-001	2,000000000000000E+000	-1,2181558E-001	40	-1,8807291E-004
2	0	0	1	1	1,376648844399806E+005	1,3351470E+000	1,3359361E+000	-1,350104400027194E-001	2,000000000000000E+000	-1,3277586E-001	40	-1,8036531E-004
2	0	0	1	1	1,377448704524962E+005	1,3111513E+000	1,3119279E+000	-1,295337977737559E-001	2,000000000000000E+000	-1,4336959E-001	40	-1,6993901E-004
2	0	0	1	1	1,378248565650098E+005	1,2871555E+000	1,2879432E+000	-1,241683446329288E-001	2,000000000000000E+000	-1,5352197E-001	40	-1,5992178E-004
2	0	0	1	1	1,379048425775240E+005	1,2631596E+000	1,2639472E+000	-1,192901712674537E-001	2,000000000000000E+000	-1,6326550E-001	40	-1,5077648E-004
2	0	0	1	1	1,379848284900388E+005	1,2391640E+000	1,2399228E+000	-1,147529568691119E-001	2,000000000000000E+000	-1,7263243E-001	40	-1,4228480E-004
2	0	0	1	1	1,380648145025531E+005	1,2151680E+000	1,2159576E+000	-1,107325844650755E-001	2,000000000000000E+000	-1,8165696E-001	40	-1,3464614E-004
2	0	0	1	1	1,381448006150671E+005	1,1911721E+000	1,1919323E+000	-1,069622900599883E-001	2,000000000000000E+000	-1,9036630E-001	40	-1,2749182E-004
2	0	0	1	1	1,382247867275826E+005	1,1671765E+000	1,1679788E+000	-1,035759913646871E-001	2,000000000000000E+000	-1,9879271E-001	40	-1,2097456E-004
2	0	0	1	1	1,383047727400977E+005	1,1431807E+000	1,1439567E+000	-1,007170753248399E-001	2,000000000000000E+000	-2,0696624E-001	40	-1,1521597E-004
2	0	0	1	1	1,383847586526126E+005	1,1191849E+000	1,1199570E+000	-9,804935481068178E-002	2,000000000000000E+000	-2,1491852E-001	40	-1,0981106E-004
2	0	0	1	1	1,384647446651282E+005	1,0951890E+000	1,0959831E+000	-9,581820144471331E-002	2,000000000000000E+000	-2,2267890E-001	40	-1,0501513E-004
2	0	0	1	1	1,385447307776434E+005	1,0711932E+000	1,0719647E+000	-9,401959383715375E-002	2,000000000000000E+000	-2,3027536E-001	40	-1,0078569E-004
2	0	0	1	1	1,386247167901571E+005	1,0471975E+000	1,0479683E+000	-9,270825395319282E-002	2,000000000000000E+000	-2,3774827E-001	40	-9,7155309E-005
2	0	0	1	1	1,387047027026718E+005	1,0232017E+000	1,0239669E+000	-9,175994507006258E-002	2,000000000000000E+000	-2,4512748E-001	40	-9,3959148E-005
2	0	0	1	1	1,387821901147943E+005	9,9995601E-001	1,0006716E+000	-9,122965052243193E-002	2,000000000000000E+000	-2,5222009E-001	40	-9,1290924E-005
2	0	0	1	1	1,388606763270739E+005	1,0235015E+000	1,0242575E+000	-7,006446073850192E-002	2,000000000000000E+000	-2,5833324E-001	40	-7,1764051E-005
2	0	0	1	1	1,389406623395896E+005	1,0474974E+000	1,0482547E+000	-5,976761294297650E-002	2,000000000000000E+000	-2,6349190E-001	40	-6,2651685E-005
2	0	0	1	1	1,390206484521050E+005	1,0714931E+000	1,0722327E+000	-5,250761955562111E-002	2,000000000000000E+000	-2,6796237E-001	40	-5,6300389E-005
2	0	0	1	1	1,391006345646204E+005	1,0954891E+000	1,0963079E+000	-4,727391222609684E-002	2,000000000000000E+000	-2,7193233E-001	41	-5,1826763E-005
2	0	0	1	1	1,391806207771362E+005	1,1194848E+000	1,1202863E+000	-4,268342310668849E-002	2,000000000000000E+000	-2,7551702E-001	41	-4,7817655E-005
2	0	0	1	1	1,392606068896498E+005	1,1434805E+000	1,1442717E+000	-3,887558002331017E-002	2,000000000000000E+000	-2,7876836E-001	41	-4,4484226E-005
2	0	0	1	1	1,393405929021642E+005	1,1674763E+000	1,1682521E+000	-3,553812483162511E-002	2,000000000000000E+000	-2,8173482E-001	41	-4,1517491E-005
2	0	0	1	1	1,394205794146787E+005	1,1914722E+000	1,1922593E+000	-3,260466888447883E-002	2,000000000000000E+000	-2,8445196E-001	41	-3,8873219E-005
2	0	0	1	1	1,395005652271928E+005	1,2154679E+000	1,2162665E+000	-3,001668309491822E-002	2,000000000000000E+000	-2,8694937E-001	41	-3,6508285E-005
2	0	0	1	1	1,395805517397076E+005	1,2394638E+000	1,2402396E+000	-2,762515511783906E-002	2,000000000000000E+000	-2,8924686E-001	41	-3,4261811E-005
2	0	0	1	1	1,396605377522227E+005	1,2634597E+000	1,2642099E+000	-2,540623327963010E-002	2,000000000000000E+000	-2,9136023E-001	41	-3,2118809E-005
2	0	0	1	1	1,397405238647377E+005	1,2874554E+000	1,2882462E+000	-2,328303058383399E-002	2,000000000000000E+000	-2,9330009E-001	41	-2,9994275E-005
2	0	0	1	1	1,398205102772536E+005	1,3114512E+000	1,3122480E+000	-2,122963112590864E-002	2,000000000000000E+000	-2,9507470E-001	41	-2,7858541E-005
2	0	0	1	1	1,399004961897689E+005	1,3354471E+000	1,3362184E+000	-1,925652156929408E-002	2,000000000000000E+000	-2,9668850E-001	41	-2,5730918E-005
2	0	0	1	1	1,399804826022825E+005	1,3594428E+000	1,3602308E+000	-1,724142558825068E-002	2,000000000000000E+000	-2,9814312E-001	41	-2,3452318E-005
2	0	0	1	1	1,400604687147971E+005	1,3834385E+000	1,3842049E+000	-1,520146018693574E-002	2,000000000000000E+000	-2,9943600E-001	41	-2,1041935E-005
2	0	0	1	1	1,401404547273113E+005	1,4074343E+000	1,4081802E+000	-1,301618802529719E-002	2,000000000000000E+000	-3,0055976E-001	41	-1,8329139E-005
2	0	0	1	1	1,402204412398250E+005	1,4314303E+000	1,4322027E+000	-1,061332188963726E-002	2,000000000000000E+000	-3,0150074E-001	41	-1,5200429E-005
2	0	0	1	1	1,403004270523405E+005	1,4554261E+000	1,4561785E+000	-7,897778301153874E-003	2,000000000000000E+000	-3,0223766E-001	41	-1,1500575E-005
2	0	0	1	1	1,403804135648562E+005	1,4794219E+000	1,4802293E+000	-4,707543618208304E-003	2,000000000000000E+000	-3,0273876E-001	42	-6,9682437E-006
2	0	0	1	1	1,404603995773713E+005	1,5034174E+000	1,5041941E+000	-8,435594194954044E-004	2,000000000000000E+000	-3,0296093E-001	42	-1,2688771E-006
2	1	0	1	1	1,405403854898871E+005	1,5274134E+000	1,5281147E+000	4,052369500173431E-003	2,000000000000000E+000	-3,0283612E-001	42	6,1924852E-006
2	1	0	1	1	1,406203719024013E+005	1,5514091E+000	1,5521694E+000	1,086019853062897E-002	2,000000000000000E+000	-3,0224907E-001	41	1,6856868E-005
2	1	0	1	1	1,407003580149153E+005	1,5754048E+000	1,5761114E+000	1,988155627479035E-002	2,000000000000000E+000	-3,0104285E-001	41	3,1335549E-005
2	1	0	1	1	1,407803444274300E+005	1,5994008E+000	1,6001098E+000	4,197992335231965E-002	2,000000000000000E+000	-2,9868618E-001	41	6,7172485E-005
2	1	0	1	1	1,408603305399443E+005	1,6233966E+000	1,6240888E+000	7,469079585960303E-002	2,000000000000000E+000	-2,9404441E-001	41	1,2130448E-004
2	1	0	1	1	1,409403164524585E+005	1,6473920E+000	1,6481068E+000	1,122823537148414E-001	2,000000000000000E+000	-2,8659928E-001	40	1,8505332E-004
2	1	0	1	1	1,410203028649734E+005	1,6713880E+000	1,6721295E+000	1,540923992775847E-001	2,000000000000000E+000	-2,7597019E-001	40	2,5766244E-004
2	1	0	1	1	1,411002891774890E+005	1,6953839E+000	1,6960943E+000	1,995327954543409E-001	2,000000000000000E+000	-2,6182574E-001	40	3,3842644E-004
2	1	0	1	1	1,411802755900049E+005	1,7193799E+000	1,7200780E+000	2,443898564627141E-001	2,000000000000000E+000	-2,4402134E-001	40	4,2036962E-004
2	1	0	1	1	1,412602615025202E+005	1,7433752E+000	1,7440844E+000	2,794083436159420E-001	2,000000000000000E+000	-2,2296821E-001	40	4,8731171E-004
2	1	0	1	1	1,413402475150339E+005	1,7673713E+000	1,7681046E+000	2,980200874551935E-001	2,000000000000000E+000	-1,9973977E-001	40	5,2693067E-004
2	1	0	1	1	1,414202340275484E+005	1,7913672E+000	1,7920682E+000	2,978482935264397E-001	2,000000000000000E+000	-1,7578346E-001	40	5,3376448E-004
2	1	0	1	1	1,415002200400626E+005	1,8153629E+000	1,8160363E+000	2,786718677220517E-001	2,000000000000000E+000	-1,5259235E-001	40	5,0607824E-004
2	1	0	1	1	1,415802063525764E+005	1,8393589E+000	1,8400702E+000	2,457125070704855E-001	2,000000000000000E+000	-1,3154460E-001	40	4,5212827E-004
2	1	0	1	1	1,416601923650913E+005	1,8633544E+000	1,8640480E+000	2,068336061860716E-001	2,000000000000000E+000	-1,1342628E-001	40	3,8554778E-004
2	1	0	1	1	1,417401784776072E+005	1,8873503E+000	1,8880774E+000	1,687142458229660E-001	2,000000000000000E+000	-9,8434813E-002	40	3,1854556E-004
2	1	0	1	1	1,418201648901226E+005	1,9113462E+000	1,9120930E+000	1,339317694018420E-001	2,000000000000000E+000	-8,6330555E-002	40	2,5609002E-004
2	1	0	1	1	1,419001508026379E+005	1,9353416E+000	1,9361250E+000	1,060691441704882E-001	2,000000000000000E+000	-7,6759316E-002	40	2,0536313E-004
2	1	0	1	1	1,419801372151526E+005	1,9593377E+000	1,9600860E+000	8,403159070025867E-002	2,000000000000000E+000	-6,9203034E-002	40	1,6470914E-004
2	1	0	1	1	1,420601233276665E+005	1,9833336E+000	1,9840897E+000	6,732721004957987E-002	2,000000000000000E+000	-6,3180529E-002	40	1,3358322E-004
2	1	0	1	1	1,421401095401813E+005	2,0073290E+000	2,0080917E+000	5,498644308098649E-002	2,000000000000000E+000	-5,8303475E-002	40	1,1041782E-004
2	1	0	1	1	1,422204292527484E+005	2,0314250E+000	2,0321481E+000	4,530020935899715E-002	2,000000000000000E+000	-5,4281671E-002	41	9,2056733E-005
2	1	0	1	1	1,423004150652629E+005	2,0554206E+000	2,0561433E+000	3,834681561701114E-002	2,000000000000000E+000	-5,0939251E-002	41	7,8846548E-005
2	1	0	1	1	1,423804017777792E+005	2,0794168E+000	2,0801499E+000	3,309062225397874E-002	2,000000000000000E+000	-4,8083235E-002	41	6,8833455E-005
2	1	0	1	1	1,424603879902933E+005	2,1034126E+000	2,1041770E+000	2,919205281793429E-002	2,000000000000000E+000	-4,5589957E-002	41	6,1425249E-005
2	1	0	1	1	1,425403735028073E+005	2,1274080E+000	2,1281693E+000	2,628937443768087E-002	2,000000000000000E+000	-4,3364692E-002	41	5,5948240E-005
2	1	0	1	1	1,426203601153220E+005	2,1514037E+000	2,1521544E+000	2,404525551860992E-002	2,000000000000000E+000	-4,1345030E-002	41	5,1749103E-005
2	1	0	1	1	1,427003464278362E+005	2,1754000E+000	2,1761415E+000	2,224945003586265E-002	2,000000000000000E+000	-3,9485909E-002	41	4,8417951E-005
2	1	0	1	1	1,427803326403503E+005	2,1993957E+000	2,2001560E+000	2,077478336742704E-002	2,000000000000000E+000	-3,7756972E-002	41	4,5707762E-005
2	1	0	1	1	1,428603185528656E+005	2,2233913E+000	2,2241261E+000	1,954913122579659E-002	2,000000000000000E+000	-3,6135998E-002	41	4,3479733E-005
2	1	0	1	1	1,429403048653817E+005	2,2473874E+000	2,2481544E+000	1,853301772218260E-002	2,000000000000000E+000	-3,4604479E-002	41	4,1665084E-005
2	1	0	1	1	1,430202910778970E+005	2,2713830E+000	2,2721362E+000	1,765759257584731E-002	2,000000000000000E+000	-3,3148631E-002	41	4,0120456E-005
2	1	0	1	1	1,431002769904123E+005	2,2953787E+000	2,2961280E+000	1,693628535684248E-002	2,000000000000000E+000	-3,1755731E-002	41	3,8887880E-005
2	1	0	1	1	1,431802636029262E+005	2,3193743E+000	2,3201220E+000	1,632574606503578E-002	2,000000000000000E+000	-3,0416023E-002	41	3,7877722E-005
2	1	0	1	1	1,432602499154401E+005	2,3433704E+000	2,3441288E+000	1,579464449026938E-002	2,000000000000000E+000	-2,9122921E-002	41	3,7024682E-005
2	1	0	1	1	1,433402353279549E+005	2,3673663E+000	2,3681319E+000	1,531929209458854E-002	2,000000000000000E+000	-2,7870236E-002	41	3,6278103E-005
2	1	0	1	1	1,434202220404688E+005	2,3913620E+000	2,3921170E+000	1,493538026514213E-002	2,000000000000000E+000	-2,6651969E-002	41	3,5727178E-005
2	1	0	1	1	1,435002082529836E+005	2,4153578E+000	2,4161172E+000	1,467427368337074E-002	2,000000000000000E+000	-2,5459014E-002	41	3,5454766E-005
2	1	0	1	1	1,435801945654997E+005	2,4393535E+000	2,4401238E+000	1,438213098733981E-002	2,000000000000000E+000	-2,4287684E-002	41	3,5094181E-005
2	1	0	1	1	1,436601803780147E+005	2,4633496E+000	2,4641616E+000	1,404938104156695E-002	2,000000000000000E+000	-2,3141123E-002	41	3,4619945E-005
2	1	0	1	1	1,437401666905298E+005	2,4873450E+000	2,4881742E+000	1,380050481549923E-002	2,000000000000000E+000	-2,2019133E-002	41	3,4338060E-005
2	1	0	1	1	1,438201529030448E+005	2,5113411E+000	2,5121529E+000	1,357425257723646E-002	2,000000000000000E+000	-2,0915130E-002	41	3,4100598E-005
2	1	0	1	1	1,439001388155589E+005	2,5353367E+000	2,5361586E+000	1,320757033387093E-002	2,000000000000000E+000	-1,9834522E-002	41	3,3496493E-005
2	1	0	1	1	1,439801254280733E+005	2,5593326E+000	2,5601547E+000	1,284136869519648E-002	2,000000000000000E+000	-1,8783972E-002	41	3,2875891E-005
2	1	0	1	1	1,440601117405875E+005	2,5833282E+000	2,5841377E+000	1,260848645414557E-002	2,000000000000000E+000	-1,7757192E-002	41	3,2582066E-005
2	1	0	1	1	1,441400971531011E+005	2,6073241E+000	2,6081293E+000	1,256768804550470E-002	2,000000000000000E+000	-1,6742596E-002	41	3,2778156E-005
2	1	0	1	1	1,442200838656169E+005	2,6313200E+000	2,6321456E+000	1,262892388358815E-002	2,000000000000000E+000	-1,5725011E-002	41	3,3241166E-005
2	1	0	1	1	1,443000700781327E+005	2,6553161E+000	2,6561284E+000	1,242604445678519E-002	2,000000000000000E+000	-1,4712164E-002	41	3,3005170E-005
2	1	0	1	1	1,443800563906478E+005	2,6793115E+000	2,6800909E+000	1,211276572794855E-002	2,000000000000000E+000	-1,3722554E-002	41	3,2463315E-005
2	1	0	1	1	1,444600422031633E+005	2,7033074E+000	2,7041152E+000	1,184386413931487E-002	2,000000000000000E+000	-1,2756400E-002	41	3,2027172E-005
2	1	0	1	1	1,445400285156777E+005	2,7273035E+000	2,7281072E+000	1,169983351599846E-002	2,000000000000000E+000	-1,1807023E-002	41	3,1918400E-005
2	1	0	1	1	1,446200147281914E+005	2,7512989E+000	2,7521100E+000	1,166403865010276E-002	2,000000000000000E+000	-1,0864179E-002	41	3,2100717E-005
2	1	0	1	1	1,447000006407060E+005	2,7752945E+000	2,7761154E+000	1,180830767071833E-002	2,000000000000000E+000	-9,9166958E-003	41	3,2781227E-005
2	1	0	1	1	1,447799872532203E+005	2,7992904E+000	2,8001382E+000	1,215949272123691E-002	2,000000000000000E+000	-8,9506041E-003	41	3,4048262E-005
2	1	0	1	1	1,448599731657347E+005	2,8232863E+000	2,8241124E+000	1,260432203737441E-002	2,000000000000000E+000	-7,9511832E-003	41	3,5596022E-005
2	1	0	1	1	1,449399590782500E+005	2,8472819E+000	2,8481069E+000	1,275672397916351E-002	2,000000000000000E+000	-6,9249277E-003	41	3,6332513E-005
2	1	0	1	1	1,450199456907655E+005	2,8712780E+000	2,8721178E+000	1,262761805357315E-002	2,000000000000000E+000	-5,9001036E-003	41	3,6268008E-005
2	1	0	1	1	1,450999320032811E+005	2,8952739E+000	2,8961034E+000	1,243477357691675E-002	2,000000000000000E+000	-4,8900298E-003	41	3,6012389E-005
2	1	0	1	1	1,451799178157961E+005	2,9192698E+000	2,9201190E+000	1,227657603647091E-002	2,000000000000000E+000	-3,8941160E-003	41	3,5849065E-005
2	1	0	1	1	1,452599041283103E+005	2,9432652E+000	2,9440730E+000	1,220842903427867E-002	2,000000000000000E+000	-2,9070901E-003	41	3,5942507E-005
2	1	0	1	1	1,453398903408245E+005	2,9672611E+000	2,9680619E+000	1,227916930726186E-002	2,000000000000000E+000	-1,9195315E-003	41	3,6445334E-005
2	1	0	1	1	1,454198766533391E+005	2,9912570E+000	2,9920733E+000	1,247908981866702E-002	2,000000000000000E+000	-9,2140929E-004	41	3,7338352E-005
2	1	0	1	0	1,454941963649676E+005	2,9864576E+000	2,9872649E+000	7,717526992441098E-003	2,000000000000000E+000	-1,4823749E-004	41	2,3054297E-005
2	1	0	1	0	1,455741826774837E+005	2,9624622E+000	2,9632311E+000	5,105506540100280E-003	2,000000000000000E+000	3,4679851E-004	42	1,5128796E-005
2	1	0	1	0	1,456541684899982E+005	2,9384661E+000	2,9392431E+000	3,658956423479753E-003	2,000000000000000E+000	6,8569009E-004	42	1,0754562E-005
2	1	0	1	0	1,457341544025121E+005	2,9144702E+000	2,9152544E+000	2,692754074694784E-003	2,000000000000000E+000	9,2923548E-004	42	7,8500634E-006
2	1	0	1	0	1,458141402150262E+005	2,8904746E+000	2,8912685E+000	1,988360647675505E-003	2,000000000000000E+000	1,1071550E-003	42	5,7488846E-006
2	1	0	1	0	1,458941261275408E+005	2,8664789E+000	2,8672771E+000	1,409873951123694E-003	2,000000000000000E+000	1,2347953E-003	42	4,0424993E-006
2	1	0	1	0	1,459741115400554E+005	2,8424833E+000	2,8433144E+000	9,425491112002842E-004	2,000000000000000E+000	1,3205318E-003	42	2,6799635E-006
2	1	0	1	0	1,460540978525691E+005	2,8184872E+000	2,8192389E+000	5,189802206352345E-004	2,000000000000000E+000	1,3705293E-003	43	1,4631293E-006
2	1	0	1	0	1,461340841650851E+005	2,7944911E+000	2,7953060E+000	2,056244716174382E-004	2,000000000000000E+000	1,3926940E-003	43	5,7478331E-007
2	1	0	1	0	1,462140691776001E+005	2,7704957E+000	2,7713184E+000	-5,491765056736656E-005	2,000000000000000E+000	1,3925200E-003	43	-1,5219430E-007
2	0	0	1	0	1,462943884901674E+005	2,7463999E+000	2,7472384E+000	-2,692224813204423E-004	2,000000000000000E+000	1,3730731E-003	43	-7,3961832E-007
2	0	0	1	0	1,463743743026817E+005	2,7224040E+000	2,7232890E+000	-4,875209247473238E-004	2,000000000000000E+000	1,3362879E-003	43	-1,3276604E-006
2	0	0	1	0	1,464543606151963E+005	2,6984084E+000	2,6992855E+000	-7,038132369785229E-004	2,000000000000000E+000	1,2823001E-003	43	-1,8997929E-006
2	0	0	1	0	1,465343464277105E+005	2,6744123E+000	2,6752245E+000	-9,361854794515379E-004	2,000000000000000E+000	1,2095529E-003	42	-2,5045065E-006
2	0	0	1	0	1,466143319402242E+005	2,6504166E+000	2,6512325E+000	-1,288973741091163E-003	2,000000000000000E+000	1,1132711E-003	42	-3,4173690E-006
2	0	0	1	0	1,466943181527397E+005	2,6264207E+000	2,6272604E+000	-1,754951243565686E-003	2,000000000000000E+000	9,8365452E-004	42	-4,6107139E-006
2	0	0	1	0	1,467743036652552E+005	2,6024249E+000	2,6032653E+000	-2,029015181355551E-003	2,000000000000000E+000	8,2133664E-004	42	-5,2820646E-006
2	0	0	1	0	1,468542894777702E+005	2,5784295E+000	2,5792587E+000	-2,027469434595367E-003	2,000000000000000E+000	6,5021391E-004	42	-5,2293681E-006
2	0	0	1	0	1,469342757902858E+005	2,5544336E+000	2,5553188E+000	-2,097499955113193E-003	2,000000000000000E+000	4,7772896E-004	42	-5,3597810E-006
2	0	0	1	0	1,470142612028010E+005	2,5304377E+000	2,5312662E+000	-2,294236402157201E-003	2,000000000000000E+000	2,9366880E-004	42	-5,8073233E-006
2	0	0	1	0	1,470942471153149E+005	2,5064421E+000	2,5073059E+000	-2,522974307406192E-003	2,000000000000000E+000	9,2461320E-005	42	-6,3258681E-006
2	0	0	1	0	1,471742329278291E+005	2,4824462E+000	2,4833078E+000	-2,755185710706681E-003	2,000000000000000E+000	-1,2687725E-004	42	-6,8419745E-006
2	0	0	1	0	1,472542192403437E+005	2,4584501E+000	2,4592745E+000	-2,977341204945276E-003	2,000000000000000E+000	-3,6423575E-004	42	-7,3220995E-006
2	0	0	1	0	1,473342051528580E+005	2,4344544E+000	2,4352806E+000	-3,152580772203699E-003	2,000000000000000E+000	-6,1840931E-004	42	-7,6774186E-006
2	0	0	1	0	1,474141905653721E+005	2,4104588E+000	2,4113183E+000	-3,254472430144539E-003	2,000000000000000E+000	-8,8420388E-004	42	-7,8475687E-006
2	0	0	1	0	1,474941768778865E+005	2,3864627E+000	2,3872793E+000	-3,373260735921077E-003	2,000000000000000E+000	-1,1577787E-003	42	-8,0529153E-006
2	0	0	1	0	1,475741622904018E+005	2,3624671E+000	2,3633153E+000	-3,469115318249012E-003	2,000000000000000E+000	-1,4387860E-003	42	-8,1986136E-006
2	0	0	1	0	1,476541482029175E+005	2,3384714E+000	2,3393016E+000	-3,605446075983655E-003	2,000000000000000E+000	-1,7300664E-003	42	-8,4342255E-006
2	0	0	1	0	1,477341344154328E+005	2,3144758E+000	2,3153033E+000	-3,786932330358490E-003	2,000000000000000E+000	-2,0341671E-003	42	-8,7678973E-006
2	0	0	1	0	1,478141203279481E+005	2,2904797E+000	2,2913334E+000	-3,971194855261364E-003	2,000000000000000E+000	-2,3521369E-003	42	-9,0993317E-006
2	0	0	1	0	1,478941057404629E+005	2,2664838E+000	2,2672999E+000	-4,185525186682193E-003	2,000000000000000E+000	-2,6863245E-003	42	-9,4898405E-006
2	0	0	1	0	1,479500465492142E+005	2,2496376E+000	2,2504873E+000	-4,608741108372838E-003	2,000000000000000E+000	-2,9307092E-003	42	-1,0371913E-005