File: Dati/210416_2/CV_LTO-CB_grafite nuova_15 layers__11_CV_C01.mpt
EC-Lab ASCII FILE
Nb header lines : 57

Cyclic Voltammetry

Run on channel : 1 (SN 6806)
User : Seelab
Electrode connection : standard
Ewe ctrl range : min = 0,00 V, max = 5,00 V
Ewe,I filtering : 50 kHz
Safety Limits :
	Do not start on E overload
Channel : Grounded
Acquisition started on : 04/16/2021 18:47:00
Saved on :
	File : CV_LTO-CB_grafite nuova_15 layers__11_CV_C01.mpr
	Directory : C:\Users\labsuperfici\Desktop\Biologic\Users\Prisca Viviani\210416_2\
	Host : 10.78.33.0
Device : VSP-300 (SN 0638)
Address : USB
EC-Lab for windows v11.31 (software)
Internet server v11.30 (firmware)
Command interpretor v11.31 (firmware)
Electrode material :
Initial state :
Electrolyte :
Comments :
Cable : standard
Reference electrode : SCE Saturated Calomel Electrode (0,241 V)
Electrode surface area : 0,001 cm²
Characteristic mass : 0,001 g
Equivalent Weight : 0,000 g/eq.
Density : 0,000 g/cm3
Cycle Definition : Charge/Discharge alternance
Ei (V)              0,000
vs.                 Eoc
dE/dt               1,000
dE/dt unit          mV/s
E1 (V)              1,000
vs.                 Ref
Step percent        50
N                   10
E range min (V)     0,000
E range max (V)     5,000
I Range             Auto
I Range min         Unset
I Range max         Unset
I Range init        Unset
Bandwidth           8
E2 (V)              3,000
vs.                 Ref
nc cycles           1
Reverse Scan        1
Ef (V)              0,000
vs.                 Eoc

mode	ox/red	error	control changes	counter inc.	time/s	control/V	Ewe/V	<I>/mA	cycle number	(Q-Qo)/C	I Range	P/W
2	0	0	1	0	2,276040314120143E+005	2,2496376E+000	2,2503726E+000	-1,264584530144930E-002	1,000000000000000E+000	0,0000000E+000	41	-2,8457864E-005
2	0	0	1	0	2,276275772156988E+005	2,2260909E+000	2,2269015E+000	-1,223688427997233E-002	1,000000000000000E+000	-2,8259848E-004	41	-2,7250337E-005
2	0	0	1	0	2,276515729194526E+005	2,2020955E+000	2,2029095E+000	-1,304833626008084E-002	1,000000000000000E+000	-5,9221056E-004	41	-2,8744304E-005
2	0	0	1	0	2,276755689232061E+005	2,1780994E+000	2,1788945E+000	-1,398524671797816E-002	1,000000000000000E+000	-9,2292571E-004	41	-3,0472378E-005
2	0	0	1	0	2,276995647269611E+005	2,1541033E+000	2,1549103E+000	-1,494909668891045E-002	1,000000000000000E+000	-1,2757136E-003	41	-3,2213964E-005
2	0	0	1	0	2,277235603307162E+005	2,1301079E+000	2,1309030E+000	-1,592268979570292E-002	1,000000000000000E+000	-1,6518462E-003	41	-3,3929708E-005
2	0	0	1	0	2,277475563344709E+005	2,1061118E+000	2,1068950E+000	-1,702047706068759E-002	1,000000000000000E+000	-2,0524575E-003	41	-3,5860357E-005
2	0	0	1	0	2,277715521382242E+005	2,0821161E+000	2,0828776E+000	-1,819740787031271E-002	1,000000000000000E+000	-2,4799649E-003	41	-3,7902973E-005
2	0	0	1	0	2,277955478419786E+005	2,0581205E+000	2,0588968E+000	-1,944774860890275E-002	1,000000000000000E+000	-2,9364256E-003	41	-4,0040908E-005
2	0	0	1	0	2,278195435457337E+005	2,0341249E+000	2,0349329E+000	-2,076895121803063E-002	1,000000000000000E+000	-3,4242165E-003	41	-4,2263422E-005
2	0	0	1	0	2,278435395494890E+005	2,0101287E+000	2,0109391E+000	-2,227991453744874E-002	1,000000000000000E+000	-3,9464170E-003	41	-4,4803553E-005
2	0	0	1	0	2,278675352532426E+005	1,9861330E+000	1,9869331E+000	-2,382411157788433E-002	1,000000000000000E+000	-4,5056082E-003	41	-4,7336915E-005
2	0	0	1	0	2,278915311569971E+005	1,9621371E+000	1,9629151E+000	-2,547488456541069E-002	1,000000000000000E+000	-5,1032072E-003	41	-5,0005034E-005
2	0	0	1	0	2,279155269607515E+005	1,9381412E+000	1,9389693E+000	-2,708601389184996E-002	1,000000000000000E+000	-5,7400181E-003	41	-5,2518950E-005
2	0	0	1	0	2,279395227645058E+005	1,9141456E+000	1,9149555E+000	-2,891454558718254E-002	1,000000000000000E+000	-6,4175306E-003	41	-5,5370067E-005
2	0	0	1	0	2,279635185682601E+005	1,8901497E+000	1,8909390E+000	-3,103251386252817E-002	1,000000000000000E+000	-7,1414891E-003	41	-5,8680591E-005
2	0	0	1	0	2,279875143720153E+005	1,8661541E+000	1,8669579E+000	-3,339140110411278E-002	1,000000000000000E+000	-7,9194549E-003	41	-6,2340339E-005
2	0	0	1	0	2,280115100757699E+005	1,8421582E+000	1,8429722E+000	-3,620512858964731E-002	1,000000000000000E+000	-8,7589277E-003	41	-6,6725042E-005
2	0	0	0	0	2,280355058795232E+005	1,8181626E+000	1,8189876E+000	-3,944930270528679E-002	1,000000000000000E+000	-9,6703852E-003	41	-7,1757793E-005
2	0	0	1	0	2,280595017832775E+005	1,7941664E+000	1,7949809E+000	-4,329907794251076E-002	1,000000000000000E+000	-1,0666924E-002	41	-7,7721015E-005
2	0	0	1	0	2,280834973870327E+005	1,7701707E+000	1,7709782E+000	-4,787116548787512E-002	1,000000000000000E+000	-1,1764510E-002	41	-8,4778789E-005
2	0	0	1	0	2,281074932907871E+005	1,7461748E+000	1,7470139E+000	-5,332470086831864E-002	1,000000000000000E+000	-1,2982751E-002	41	-9,3158997E-005
2	0	0	1	0	2,281314891945403E+005	1,7221792E+000	1,7230428E+000	-5,971373811665037E-002	1,000000000000000E+000	-1,4342786E-002	41	-1,0288933E-004
2	0	0	1	0	2,281554848982951E+005	1,6981834E+000	1,6990652E+000	-6,723271961430433E-002	1,000000000000000E+000	-1,5869541E-002	41	-1,1423277E-004
2	0	0	1	0	2,281794808020501E+005	1,6741877E+000	1,6750631E+000	-7,600064932950490E-002	1,000000000000000E+000	-1,7592151E-002	41	-1,2730589E-004
2	0	0	1	0	2,282034766058051E+005	1,6501919E+000	1,6510552E+000	-8,614075970474408E-002	1,000000000000000E+000	-1,9541396E-002	41	-1,4222314E-004
2	0	0	1	0	2,282274723095587E+005	1,6261960E+000	1,6270428E+000	-9,819532580953849E-002	1,000000000000000E+000	-2,1755109E-002	41	-1,5976799E-004
2	0	0	1	0	2,282514681133138E+005	1,6022002E+000	1,6029886E+000	-1,122590494647606E-001	1,000000000000000E+000	-2,4280516E-002	40	-1,7994997E-004
2	0	0	1	0	2,282754639170677E+005	1,5782043E+000	1,5789864E+000	-1,298893270083430E-001	1,000000000000000E+000	-2,7184844E-002	40	-2,0509349E-004
2	0	0	1	0	2,282994596208222E+005	1,5542086E+000	1,5549718E+000	-1,519601178720464E-001	1,000000000000000E+000	-3,0561939E-002	40	-2,3629369E-004
2	0	0	0	0	2,283234555245764E+005	1,5302128E+000	1,5309770E+000	-1,815149850739433E-001	1,000000000000000E+000	-3,4546021E-002	40	-2,7789528E-004
2	0	0	1	0	2,283474514283316E+005	1,5062170E+000	1,5069911E+000	-2,222984133849071E-001	1,000000000000000E+000	-3,9386634E-002	40	-3,3500174E-004
2	0	0	1	0	2,283714470320861E+005	1,4822214E+000	1,4830126E+000	-2,550107266400643E-001	1,000000000000000E+000	-4,5155831E-002	40	-3,7818411E-004
2	0	0	1	0	2,283954429358393E+005	1,4582255E+000	1,4590086E+000	-2,723672018192174E-001	1,000000000000000E+000	-5,1517159E-002	40	-3,9738609E-004
2	0	0	1	0	2,284194386395938E+005	1,4342297E+000	1,4350096E+000	-2,795928663625915E-001	1,000000000000000E+000	-5,8160342E-002	40	-4,0121845E-004
2	0	0	1	0	2,284434345433491E+005	1,4102339E+000	1,4110224E+000	-2,809941056734946E-001	1,000000000000000E+000	-6,4900763E-002	40	-3,9648899E-004
2	0	0	1	0	2,284674302471043E+005	1,3862381E+000	1,3870542E+000	-2,795556767165136E-001	1,000000000000000E+000	-7,1638249E-002	40	-3,8775889E-004
2	0	0	1	0	2,284914260508576E+005	1,3622422E+000	1,3630605E+000	-2,764754373038203E-001	1,000000000000000E+000	-7,8316815E-002	40	-3,7685275E-004
2	0	0	1	0	2,285154218546118E+005	1,3382465E+000	1,3390511E+000	-2,735348305468026E-001	1,000000000000000E+000	-8,4922910E-002	40	-3,6627712E-004
2	0	0	1	0	2,285394176583663E+005	1,3142506E+000	1,3150514E+000	-2,685428179902356E-001	1,000000000000000E+000	-9,1437869E-002	40	-3,5314762E-004
2	0	0	1	0	2,285634135621209E+005	1,2902547E+000	1,2910596E+000	-2,614617619620341E-001	1,000000000000000E+000	-9,7806245E-002	40	-3,3756273E-004
2	0	0	1	0	2,285874092658749E+005	1,2662591E+000	1,2670443E+000	-2,536742024053495E-001	1,000000000000000E+000	-1,0399257E-001	40	-3,2141645E-004
2	0	0	1	0	2,286114050696300E+005	1,2422632E+000	1,2430466E+000	-2,463280299433097E-001	1,000000000000000E+000	-1,0999694E-001	40	-3,0619724E-004
2	0	0	1	0	2,286354008733840E+005	1,2182676E+000	1,2190819E+000	-2,396915986447420E-001	1,000000000000000E+000	-1,1583290E-001	40	-2,9220368E-004
2	0	0	1	0	2,286593966771383E+005	1,1942717E+000	1,1950631E+000	-2,334975695789123E-001	1,000000000000000E+000	-1,2151464E-001	40	-2,7904432E-004
2	0	0	1	0	2,286833924808925E+005	1,1702758E+000	1,1710329E+000	-2,282250730718491E-001	1,000000000000000E+000	-1,2705849E-001	40	-2,6725908E-004
2	0	0	1	0	2,287073882846478E+005	1,1462801E+000	1,1470159E+000	-2,235544921072070E-001	1,000000000000000E+000	-1,3248238E-001	40	-2,5642055E-004
2	0	0	1	0	2,287313840884021E+005	1,1222843E+000	1,1230581E+000	-2,194393803276649E-001	1,000000000000000E+000	-1,3780059E-001	40	-2,4644317E-004
2	0	0	1	0	2,287553798921555E+005	1,0982885E+000	1,0990667E+000	-2,162143073501062E-001	1,000000000000000E+000	-1,4303136E-001	40	-2,3763395E-004
2	0	0	1	0	2,287793756959102E+005	1,0742927E+000	1,0751097E+000	-2,137167273223726E-001	1,000000000000000E+000	-1,4819290E-001	40	-2,2976894E-004
2	0	0	1	0	2,288033714996653E+005	1,0502970E+000	1,0511162E+000	-2,119647156749136E-001	1,000000000000000E+000	-1,5330423E-001	40	-2,2279956E-004
2	0	0	0	0	2,288273672034196E+005	1,0263010E+000	1,0271190E+000	-2,112452118301451E-001	1,000000000000000E+000	-1,5838633E-001	40	-2,1697397E-004
2	0	0	1	0	2,288513631071739E+005	1,0023052E+000	1,0031210E+000	-2,112172089944826E-001	1,000000000000000E+000	-1,6345860E-001	40	-2,1187642E-004
2	0	0	1	0	2,288742597107566E+005	1,0205022E+000	1,0212978E+000	-1,645305277535667E-001	1,000000000000000E+000	-1,6766736E-001	40	-1,6803466E-004
2	0	0	1	0	2,288982553145103E+005	1,0444978E+000	1,0452585E+000	-1,417075913607677E-001	1,000000000000000E+000	-1,7131677E-001	40	-1,4812106E-004
2	0	0	0	0	2,289222512182648E+005	1,0684937E+000	1,0692635E+000	-1,256961935546739E-001	1,000000000000000E+000	-1,7451045E-001	40	-1,3440235E-004
2	0	0	1	0	2,289462471220200E+005	1,0924897E+000	1,0932809E+000	-1,134018737206062E-001	1,000000000000000E+000	-1,7736918E-001	40	-1,2398011E-004
2	0	0	1	0	2,289702428257749E+005	1,1164852E+000	1,1172510E+000	-1,034243290807471E-001	1,000000000000000E+000	-1,7996219E-001	40	-1,1555094E-004
2	0	0	1	0	2,289942386295283E+005	1,1404810E+000	1,1412495E+000	-9,478647555780029E-002	1,000000000000000E+000	-1,8233359E-001	40	-1,0817502E-004
2	0	0	1	0	2,290182344332829E+005	1,1644768E+000	1,1652091E+000	-8,738648041675368E-002	1,000000000000000E+000	-1,8451284E-001	40	-1,0182352E-004
2	0	0	1	0	2,290422302370374E+005	1,1884726E+000	1,1892358E+000	-8,073349301880128E-002	1,000000000000000E+000	-1,8652266E-001	40	-9,6011157E-005
2	0	0	1	0	2,290662261407925E+005	1,2124686E+000	1,2132668E+000	-7,464343987864280E-002	1,000000000000000E+000	-1,8838122E-001	40	-9,0562411E-005
2	0	0	1	0	2,290902217445460E+005	1,2364641E+000	1,2372160E+000	-6,909427910511756E-002	1,000000000000000E+000	-1,9010095E-001	40	-8,5484549E-005
2	0	0	1	0	2,291142176483012E+005	1,2604599E+000	1,2612073E+000	-6,390704808797432E-002	1,000000000000000E+000	-1,9169158E-001	40	-8,0600039E-005
2	0	0	1	0	2,291382135520554E+005	1,2844559E+000	1,2852113E+000	-5,894538511921221E-002	1,000000000000000E+000	-1,9316050E-001	40	-7,5757278E-005
2	0	0	1	0	2,291622093558097E+005	1,3084517E+000	1,3092144E+000	-5,416099983390421E-002	1,000000000000000E+000	-1,9451301E-001	40	-7,0908362E-005
2	0	0	1	0	2,291862051595633E+005	1,3324473E+000	1,3332039E+000	-4,948465311413919E-002	1,000000000000000E+000	-1,9575186E-001	40	-6,5973130E-005
2	0	0	1	0	2,292102009633186E+005	1,3564434E+000	1,3572325E+000	-4,500217411956914E-002	1,000000000000000E+000	-1,9688299E-001	41	-6,1078412E-005
2	0	0	1	0	2,292341967670727E+005	1,3804392E+000	1,3812481E+000	-4,012274389871515E-002	1,000000000000000E+000	-1,9790035E-001	41	-5,5419463E-005
2	0	0	1	0	2,292581925708279E+005	1,4044350E+000	1,4052199E+000	-3,497287059798282E-002	1,000000000000000E+000	-1,9879782E-001	41	-4,9144575E-005
2	0	0	1	0	2,292821883745810E+005	1,4284307E+000	1,4291911E+000	-2,929952947865379E-002	1,000000000000000E+000	-1,9956613E-001	41	-4,1874628E-005
2	0	0	1	0	2,293061841783361E+005	1,4524263E+000	1,4531920E+000	-2,292656026615353E-002	1,000000000000000E+000	-2,0019016E-001	41	-3,3316694E-005
2	0	0	1	0	2,293301799820908E+005	1,4764223E+000	1,4772018E+000	-1,547903333831729E-002	1,000000000000000E+000	-2,0064951E-001	41	-2,2865655E-005
2	0	0	1	0	2,293541757858447E+005	1,5004181E+000	1,5011736E+000	-6,620095397149528E-003	1,000000000000000E+000	-2,0091364E-001	41	-9,9379122E-006
2	1	0	1	0	2,293781715895996E+005	1,5244141E+000	1,5251274E+000	4,168876035171864E-003	1,000000000000000E+000	-2,0094317E-001	42	6,3580669E-006
2	1	0	1	0	2,294021673933538E+005	1,5484098E+000	1,5491394E+000	1,800094554429191E-002	1,000000000000000E+000	-2,0067905E-001	41	2,7885973E-005
2	1	0	1	0	2,294261631971085E+005	1,5724055E+000	1,5731138E+000	3,541254443030317E-002	1,000000000000000E+000	-2,0004280E-001	41	5,5707962E-005
2	1	0	1	0	2,294501590008624E+005	1,5964013E+000	1,5970728E+000	6,661730900237139E-002	1,000000000000000E+000	-1,9886982E-001	41	1,0639270E-004
2	1	0	1	0	2,294741548046176E+005	1,6203970E+000	1,6211647E+000	1,303465832984145E-001	1,000000000000000E+000	-1,9655487E-001	40	2,1131328E-004
2	1	0	1	0	2,294981506083719E+005	1,6443928E+000	1,6451210E+000	2,098408207752228E-001	1,000000000000000E+000	-1,9248362E-001	40	3,4521354E-004
2	1	0	1	0	2,295221464121258E+005	1,6683887E+000	1,6690738E+000	2,936405088940077E-001	1,000000000000000E+000	-1,8643922E-001	40	4,9010769E-004
2	1	0	1	0	2,295461424158799E+005	1,6923845E+000	1,6930716E+000	3,769012626504598E-001	1,000000000000000E+000	-1,7838034E-001	40	6,3812081E-004
2	1	0	1	0	2,295701381196352E+005	1,7163804E+000	1,7170547E+000	4,539658647598861E-001	1,000000000000000E+000	-1,6838643E-001	40	7,7948422E-004
2	1	0	1	0	2,295941340233898E+005	1,7403761E+000	1,7410475E+000	5,191657397055680E-001	1,000000000000000E+000	-1,5667294E-001	40	9,0389221E-004
2	1	0	1	0	2,296181298271436E+005	1,7643719E+000	1,7650476E+000	5,660005249118791E-001	1,000000000000000E+000	-1,4360417E-001	40	9,9901785E-004
2	1	0	1	0	2,296421255308975E+005	1,7883676E+000	1,7890487E+000	5,886286169917305E-001	1,000000000000000E+000	-1,2969208E-001	40	1,0530852E-003
2	1	0	1	0	2,296661214346525E+005	1,8123635E+000	1,8130093E+000	5,832625337534605E-001	1,000000000000000E+000	-1,1556773E-001	40	1,0574603E-003
2	1	0	1	0	2,296901172384070E+005	1,8363591E+000	1,8370339E+000	5,497228401054448E-001	1,000000000000000E+000	-1,0191545E-001	40	1,0098595E-003
2	1	0	1	0	2,297141130421611E+005	1,8603551E+000	1,8610535E+000	4,933483793063447E-001	1,000000000000000E+000	-8,9359783E-002	40	9,1814774E-004
2	1	0	1	0	2,297381088459160E+005	1,8843510E+000	1,8850648E+000	4,251195203175926E-001	1,000000000000000E+000	-7,8325331E-002	40	8,0137787E-004
2	1	0	1	0	2,297621046496704E+005	1,9083468E+000	1,9090602E+000	3,557526827641331E-001	1,000000000000000E+000	-6,8957038E-002	40	6,7915331E-004
2	1	0	1	0	2,297861004534243E+005	1,9323424E+000	1,9330728E+000	2,907223094627934E-001	1,000000000000000E+000	-6,1210006E-002	40	5,6198740E-004
2	1	0	1	0	2,298100962571788E+005	1,9563383E+000	1,9570763E+000	2,342616362896943E-001	1,000000000000000E+000	-5,4927185E-002	40	4,5846790E-004
2	1	0	1	0	2,298340920609339E+005	1,9803340E+000	1,9810885E+000	1,886435295881641E-001	1,000000000000000E+000	-4,9870741E-002	40	3,7371952E-004
2	1	0	1	0	2,298580880646887E+005	2,0043302E+000	2,0050571E+000	1,537620901117551E-001	1,000000000000000E+000	-4,5775164E-002	40	3,0830177E-004
2	1	0	1	0	2,298820837684423E+005	2,0283256E+000	2,0290859E+000	1,281596134174393E-001	1,000000000000000E+000	-4,2402096E-002	40	2,6004686E-004
2	1	0	1	0	2,299060796721963E+005	2,0523214E+000	2,0530875E+000	1,089996634932077E-001	1,000000000000000E+000	-3,9561357E-002	40	2,2378584E-004
2	1	0	1	0	2,299300754759517E+005	2,0763173E+000	2,0770588E+000	9,467286157068089E-002	1,000000000000000E+000	-3,7118450E-002	40	1,9664109E-004
2	1	0	1	0	2,299540714797056E+005	2,1003129E+000	2,1010816E+000	8,375133914493826E-002	1,000000000000000E+000	-3,4976959E-002	40	1,7596839E-004
2	1	0	1	0	2,299780670834598E+005	2,1243088E+000	2,1250253E+000	7,521550030805435E-002	1,000000000000000E+000	-3,3067465E-002	40	1,5983485E-004
2	1	0	1	0	2,300020628872140E+005	2,1483045E+000	2,1490567E+000	6,860224253932845E-002	1,000000000000000E+000	-3,1338830E-002	40	1,4743011E-004
2	1	0	1	0	2,300260588909690E+005	2,1723006E+000	2,1730340E+000	6,323699658494014E-002	1,000000000000000E+000	-2,9752532E-002	40	1,3741614E-004
2	1	0	1	0	2,300500544947227E+005	2,1962962E+000	2,1970809E+000	5,896241447212403E-002	1,000000000000000E+000	-2,8280959E-002	40	1,2954519E-004
2	1	0	1	0	2,300740502984773E+005	2,2202919E+000	2,2210436E+000	5,535260637997980E-002	1,000000000000000E+000	-2,6904916E-002	40	1,2294055E-004
2	1	0	1	0	2,300980463022324E+005	2,2442882E+000	2,2450652E+000	5,228362194855249E-002	1,000000000000000E+000	-2,5608690E-002	40	1,1738014E-004
2	1	0	1	0	2,301220422059866E+005	2,2682834E+000	2,2690482E+000	4,968361867928051E-002	1,000000000000000E+000	-2,4379931E-002	40	1,1273452E-004
2	1	0	1	0	2,301461379097570E+005	2,2923791E+000	2,2931073E+000	4,720873696311007E-002	1,000000000000000E+000	-2,3207022E-002	41	1,0825470E-004
2	1	0	1	0	2,301701337135113E+005	2,3163753E+000	2,3171139E+000	4,539590425994366E-002	1,000000000000000E+000	-2,2090467E-002	41	1,0518748E-004
2	1	0	1	0	2,301941295172656E+005	2,3403709E+000	2,3411119E+000	4,383769826888151E-002	1,000000000000000E+000	-2,1014433E-002	41	1,0262895E-004
2	1	0	1	0	2,302181255210196E+005	2,3643670E+000	2,3650947E+000	4,256422285626082E-002	1,000000000000000E+000	-1,9972434E-002	41	1,0066842E-004
2	1	0	1	0	2,302421211247745E+005	2,3883624E+000	2,3891227E+000	4,150463751846512E-002	1,000000000000000E+000	-1,8958608E-002	41	9,9159675E-005
2	1	0	1	0	2,302661169285290E+005	2,4123583E+000	2,4130926E+000	4,068636691920968E-002	1,000000000000000E+000	-1,7966596E-002	41	9,8179975E-005
2	1	0	1	0	2,302901128322831E+005	2,4363542E+000	2,4370549E+000	3,985539152870515E-002	1,000000000000000E+000	-1,6993850E-002	41	9,7129778E-005
2	1	0	1	0	2,303141087360381E+005	2,4603496E+000	2,4610958E+000	3,887282902734956E-002	1,000000000000000E+000	-1,6042585E-002	41	9,5669755E-005
2	1	0	1	0	2,303381045397921E+005	2,4843457E+000	2,4851010E+000	3,781679432296992E-002	1,000000000000000E+000	-1,5117170E-002	41	9,3978553E-005
2	1	0	1	0	2,303621003435468E+005	2,5083413E+000	2,5090988E+000	3,687220238296152E-002	1,000000000000000E+000	-1,4215786E-002	41	9,2515998E-005
2	1	0	1	0	2,303860961473004E+005	2,5323372E+000	2,5331099E+000	3,610049037775809E-002	1,000000000000000E+000	-1,3334120E-002	41	9,1446513E-005
2	1	0	1	0	2,304100919510558E+005	2,5563331E+000	2,5571039E+000	3,531592776723946E-002	1,000000000000000E+000	-1,2470958E-002	41	9,0306494E-005
2	1	0	1	0	2,304340877548098E+005	2,5803287E+000	2,5811071E+000	3,466450480221800E-002	1,000000000000000E+000	-1,1625865E-002	41	8,9472800E-005
2	1	0	1	0	2,304580837585637E+005	2,6043251E+000	2,6051147E+000	3,428748238939177E-002	1,000000000000000E+000	-1,0793190E-002	41	8,9322821E-005
2	1	0	1	0	2,304820793623179E+005	2,6283202E+000	2,6291108E+000	3,419288592476094E-002	1,000000000000000E+000	-9,9650482E-003	41	8,9896886E-005
2	1	0	1	0	2,305060753660733E+005	2,6523161E+000	2,6530871E+000	3,369616297370875E-002	1,000000000000000E+000	-9,1428040E-003	41	8,9398854E-005
2	1	0	1	0	2,305300711698281E+005	2,6763120E+000	2,6770754E+000	3,291199737214785E-002	1,000000000000000E+000	-8,3370749E-003	41	8,8107896E-005
2	1	0	1	0	2,305540667735818E+005	2,7003076E+000	2,7010751E+000	3,226063114464733E-002	1,000000000000000E+000	-7,5496342E-003	41	8,7138389E-005
2	1	0	1	0	2,305780627773361E+005	2,7243040E+000	2,7251227E+000	3,178155017652487E-002	1,000000000000000E+000	-6,7759431E-003	41	8,6608627E-005
2	1	0	1	0	2,306020585810910E+005	2,7482994E+000	2,7490962E+000	3,145774793922324E-002	1,000000000000000E+000	-6,0122618E-003	41	8,6480373E-005
2	1	0	1	0	2,306260543848453E+005	2,7722952E+000	2,7731099E+000	3,135338070810378E-002	1,000000000000000E+000	-5,2530640E-003	41	8,6946369E-005
2	1	0	1	0	2,306500501885996E+005	2,7962911E+000	2,7970853E+000	3,146058790825790E-002	1,000000000000000E+000	-4,4938414E-003	41	8,7997949E-005
2	1	0	1	0	2,306740459923546E+005	2,8202870E+000	2,8210931E+000	3,171817859660053E-002	1,000000000000000E+000	-3,7301995E-003	41	8,9479938E-005
2	1	0	1	0	2,306980417961092E+005	2,8442826E+000	2,8450804E+000	3,190471906472292E-002	1,000000000000000E+000	-2,9605955E-003	41	9,0771493E-005
2	1	0	1	0	2,307220376998624E+005	2,8682785E+000	2,8690622E+000	3,183982249600159E-002	1,000000000000000E+000	-2,1896625E-003	41	9,1350434E-005
2	1	0	1	0	2,307460336036172E+005	2,8922741E+000	2,8930852E+000	3,159794644136549E-002	1,000000000000000E+000	-1,4232738E-003	41	9,1415553E-005
2	1	0	1	0	2,307700294073723E+005	2,9162700E+000	2,9170759E+000	3,136100716393864E-002	1,000000000000000E+000	-6,6237123E-004	41	9,1482434E-005
2	1	0	1	0	2,307940250111269E+005	2,9402657E+000	2,9410658E+000	3,129990085228657E-002	1,000000000000000E+000	9,5364325E-005	41	9,2055066E-005
2	1	0	1	0	2,308180210148804E+005	2,9642615E+000	2,9650319E+000	3,134641394534707E-002	1,000000000000000E+000	8,5286930E-004	41	9,2943119E-005
2	1	0	1	0	2,308420168186345E+005	2,9882576E+000	2,9890656E+000	3,156803648658912E-002	1,000000000000000E+000	1,6136400E-003	41	9,4358933E-005
2	1	0	1	1	2,308643130221232E+005	2,9894574E+000	2,9902577E+000	1,931475522801424E-002	1,000000000000000E+000	2,2234924E-003	41	5,7756097E-005
2	1	0	1	1	2,308883088258782E+005	2,9654615E+000	2,9662595E+000	1,290387298732864E-002	1,000000000000000E+000	2,5945879E-003	41	3,8276237E-005
2	1	0	1	1	2,309123046296323E+005	2,9414659E+000	2,9422901E+000	9,304575594481966E-003	1,000000000000000E+000	2,8515505E-003	41	2,7376760E-005
2	1	0	1	1	2,309363005333869E+005	2,9174697E+000	2,9183047E+000	6,810925867743012E-003	1,000000000000000E+000	3,0371803E-003	41	1,9876357E-005
2	1	0	1	1	2,309602962371417E+005	2,8934739E+000	2,8942637E+000	4,897543518050135E-003	1,000000000000000E+000	3,1717962E-003	42	1,4174782E-005
2	1	0	1	1	2,309842920408961E+005	2,8694782E+000	2,8702660E+000	3,479093826347351E-003	1,000000000000000E+000	3,2665678E-003	42	9,9859244E-006
2	1	0	1	1	2,310082879446493E+005	2,8454823E+000	2,8462939E+000	2,304580848142439E-003	1,000000000000000E+000	3,3297238E-003	42	6,5595145E-006
2	1	0	1	1	2,310322836484043E+005	2,8214869E+000	2,8223276E+000	1,267176706107440E-003	1,000000000000000E+000	3,3663714E-003	42	3,5763878E-006
2	1	0	1	1	2,310562794521594E+005	2,7974911E+000	2,7983291E+000	4,718161712172408E-004	1,000000000000000E+000	3,3815755E-003	42	1,3202970E-006
2	1	0	1	1	2,310802753559141E+005	2,7734952E+000	2,7743158E+000	-2,160802388788656E-004	1,000000000000000E+000	3,3794867E-003	42	-5,9947484E-007
2	0	0	1	1	2,311042710596677E+005	2,7494993E+000	2,7503386E+000	-7,938543575065503E-004	1,000000000000000E+000	3,3623041E-003	42	-2,1833682E-006
2	0	0	1	1	2,311282668634215E+005	2,7255037E+000	2,7263355E+000	-1,375165668669825E-003	1,000000000000000E+000	3,3308296E-003	42	-3,7491629E-006
2	0	0	1	1	2,311522628671769E+005	2,7015076E+000	2,7023516E+000	-1,967191049734827E-003	1,000000000000000E+000	3,2853268E-003	42	-5,3160420E-006
2	0	0	1	1	2,311762584709311E+005	2,6775117E+000	2,6783674E+000	-2,570471832631309E-003	1,000000000000000E+000	3,2255426E-003	42	-6,8846680E-006
2	0	0	1	1	2,312002542746854E+005	2,6535161E+000	2,6543763E+000	-3,311285477801247E-003	1,000000000000000E+000	3,1493336E-003	42	-8,7893977E-006
2	0	0	1	1	2,312242500784398E+005	2,6295202E+000	2,6304016E+000	-4,328430232301034E-003	1,000000000000000E+000	3,0525068E-003	42	-1,1385509E-005
2	0	0	1	1	2,312482458821945E+005	2,6055243E+000	2,6064444E+000	-5,219695666258378E-003	1,000000000000000E+000	2,9319660E-003	42	-1,3604847E-005
2	0	0	1	1	2,312722416859483E+005	2,5815287E+000	2,5824108E+000	-5,581741151564512E-003	1,000000000000000E+000	2,7964846E-003	42	-1,4414349E-005
2	0	0	1	1	2,312962374897031E+005	2,5575328E+000	2,5584464E+000	-5,812869188149508E-003	1,000000000000000E+000	2,6551066E-003	42	-1,4871915E-005
2	0	0	1	1	2,313202331934583E+005	2,5335374E+000	2,5344472E+000	-6,298049163619576E-003	1,000000000000000E+000	2,5048803E-003	42	-1,5962072E-005
2	0	0	1	1	2,313442290972122E+005	2,5095410E+000	2,5104628E+000	-6,848370082363379E-003	1,000000000000000E+000	2,3415841E-003	42	-1,7192579E-005
2	0	0	1	1	2,313682249009665E+005	2,4855456E+000	2,4864402E+000	-7,415326992999766E-003	1,000000000000000E+000	2,1643911E-003	42	-1,8437768E-005
2	0	0	1	1	2,313922207047206E+005	2,4615498E+000	2,4624295E+000	-8,030619511099679E-003	1,000000000000000E+000	1,9733452E-003	42	-1,9774834E-005
2	0	0	1	1	2,314162163084757E+005	2,4375539E+000	2,4384418E+000	-8,550227416744743E-003	1,000000000000000E+000	1,7686611E-003	42	-2,0849231E-005
2	0	0	1	1	2,314402123122304E+005	2,4135582E+000	2,4144676E+000	-9,071360563156494E-003	1,000000000000000E+000	1,5516307E-003	42	-2,1902506E-005
2	0	0	1	1	2,314642081159838E+005	2,3895621E+000	2,3904564E+000	-9,345680215435109E-003	1,000000000000000E+000	1,3257094E-003	42	-2,2340442E-005
2	0	0	1	1	2,314882038197380E+005	2,3655667E+000	2,3663471E+000	-9,627199671345725E-003	1,000000000000000E+000	1,0929351E-003	41	-2,2781296E-005
2	0	0	1	1	2,315121997234933E+005	2,3415709E+000	2,3423669E+000	-9,980475689556262E-003	1,000000000000000E+000	8,5245317E-004	41	-2,3377936E-005
2	0	0	1	1	2,315361955272472E+005	2,3175747E+000	2,3183680E+000	-1,041298939853344E-002	1,000000000000000E+000	6,0222292E-004	41	-2,4141142E-005
2	0	0	1	1	2,315601912310016E+005	2,2935791E+000	2,2943690E+000	-1,089875737464768E-002	1,000000000000000E+000	3,4114628E-004	41	-2,5005771E-005
2	0	0	1	1	2,315841870347565E+005	2,2695832E+000	2,2703729E+000	-1,141145245993533E-002	1,000000000000000E+000	6,7831083E-005	41	-2,5908252E-005
2	0	0	1	1	2,316067831382913E+005	2,2469871E+000	2,2477689E+000	-1,198723038322638E-002	2,000000000000000E+000	-2,0196987E-004	41	-2,6944523E-005
2	0	0	1	1	2,316307789420465E+005	2,2229915E+000	2,2237630E+000	-1,266504682325370E-002	2,000000000000000E+000	-5,0329225E-004	41	-2,8164062E-005
2	0	0	1	1	2,316547745458009E+005	2,1989961E+000	2,1997724E+000	-1,342017255186251E-002	2,000000000000000E+000	-8,2145771E-004	41	-2,9521325E-005
2	0	0	1	1	2,316787705495544E+005	2,1749997E+000	2,1757667E+000	-1,422410574472323E-002	2,000000000000000E+000	-1,1586060E-003	41	-3,0948337E-005
2	0	0	1	1	2,317027663533089E+005	2,1510038E+000	2,1518142E+000	-1,514110930005630E-002	2,000000000000000E+000	-1,5159065E-003	41	-3,2580854E-005
2	0	0	1	1	2,317267620570641E+005	2,1270082E+000	2,1278005E+000	-1,609053239899219E-002	2,000000000000000E+000	-1,8957435E-003	41	-3,4237441E-005
2	0	0	1	1	2,317507579608192E+005	2,1030123E+000	2,1037991E+000	-1,712782297625442E-002	2,000000000000000E+000	-2,2997695E-003	41	-3,6033500E-005
2	0	0	1	1	2,317747537645726E+005	2,0790167E+000	2,0797770E+000	-1,831793795977907E-002	2,000000000000000E+000	-2,7304241E-003	41	-3,8097227E-005
2	0	0	1	1	2,317987494683273E+005	2,0550210E+000	2,0558105E+000	-1,948573724294933E-002	2,000000000000000E+000	-3,1898550E-003	41	-4,0058982E-005
2	0	0	1	1	2,318227451720820E+005	2,0310252E+000	2,0318024E+000	-2,088961278557300E-002	2,000000000000000E+000	-3,6804925E-003	41	-4,2443568E-005
2	0	0	1	1	2,318467410758352E+005	2,0070291E+000	2,0077929E+000	-2,235260626834061E-002	2,000000000000000E+000	-4,2051496E-003	41	-4,4879405E-005
2	0	0	1	1	2,318707369795900E+005	1,9830335E+000	1,9838392E+000	-2,388942965089738E-002	2,000000000000000E+000	-4,7659604E-003	41	-4,7392787E-005
2	0	0	1	1	2,318947327833454E+005	1,9590377E+000	1,9598449E+000	-2,553009851830218E-002	2,000000000000000E+000	-5,3650467E-003	41	-5,0035036E-005
2	0	0	1	1	2,319187284871000E+005	1,9350419E+000	1,9358569E+000	-2,719023804344727E-002	2,000000000000000E+000	-6,0030548E-003	41	-5,2636409E-005
2	0	0	1	1	2,319427243908532E+005	1,9110460E+000	1,9118464E+000	-2,902884494663527E-002	2,000000000000000E+000	-6,6826218E-003	41	-5,5498691E-005
2	0	0	1	1	2,319667201946075E+005	1,8870503E+000	1,8878464E+000	-3,111815229283649E-002	2,000000000000000E+000	-7,4096909E-003	41	-5,8746289E-005
2	0	0	1	1	2,319907159983628E+005	1,8630546E+000	1,8638480E+000	-3,362089015970920E-002	2,000000000000000E+000	-8,1921136E-003	41	-6,2664229E-005
2	0	0	1	1	2,320147116021169E+005	1,8390590E+000	1,8398315E+000	-3,647766283809520E-002	2,000000000000000E+000	-9,0383375E-003	41	-6,7112749E-005
2	0	0	1	1	2,320387075058715E+005	1,8150629E+000	1,8158232E+000	-3,981987041242477E-002	2,000000000000000E+000	-9,9578043E-003	41	-7,2305847E-005
2	0	0	1	1	2,320627033096256E+005	1,7910671E+000	1,7918741E+000	-4,366707177990981E-002	2,000000000000000E+000	-1,0963182E-002	41	-7,8245896E-005
2	0	0	1	1	2,320866991133802E+005	1,7670712E+000	1,7679000E+000	-4,836886194948142E-002	2,000000000000000E+000	-1,2072587E-002	41	-8,5511310E-005
2	0	0	1	1	2,321106949171340E+005	1,7430754E+000	1,7439103E+000	-5,399709069871417E-002	2,000000000000000E+000	-1,3305470E-002	41	-9,4166084E-005
2	0	0	1	1	2,321346906208887E+005	1,7190800E+000	1,7199272E+000	-6,059925439003266E-002	2,000000000000000E+000	-1,4684285E-002	41	-1,0422630E-004
2	0	0	0	1	2,321586865246441E+005	1,6950840E+000	1,6959350E+000	-6,821093727133515E-002	2,000000000000000E+000	-1,6233422E-002	41	-1,1568132E-004
2	0	0	1	1	2,321826824283977E+005	1,6710882E+000	1,6719239E+000	-7,719588209286837E-002	2,000000000000000E+000	-1,7981423E-002	41	-1,2906564E-004
2	0	0	1	1	2,322066781321522E+005	1,6470923E+000	1,6479387E+000	-8,763296361488426E-002	2,000000000000000E+000	-1,9962158E-002	41	-1,4441376E-004
2	0	0	1	1	2,322306738359064E+005	1,6230967E+000	1,6239659E+000	-9,993153256556964E-002	2,000000000000000E+000	-2,2214595E-002	41	-1,6228540E-004
2	0	0	0	1	2,322546697396615E+005	1,5991007E+000	1,5998620E+000	-1,145222404401851E-001	2,000000000000000E+000	-2,4788128E-002	40	-1,8321977E-004
2	0	0	1	1	2,322786656434159E+005	1,5751048E+000	1,5758804E+000	-1,328343136676844E-001	2,000000000000000E+000	-2,7753439E-002	40	-2,0933099E-004
2	0	0	1	1	2,323026612471696E+005	1,5511093E+000	1,5518589E+000	-1,559197191262254E-001	2,000000000000000E+000	-3,1213569E-002	40	-2,4196540E-004
2	0	0	1	1	2,323266571509239E+005	1,5271133E+000	1,5279315E+000	-1,875740376843620E-001	2,000000000000000E+000	-3,5316885E-002	40	-2,8660026E-004
2	0	0	1	1	2,323506528546792E+005	1,5031177E+000	1,5038655E+000	-2,296943002138803E-001	2,000000000000000E+000	-4,0328339E-002	40	-3,4542932E-004
2	0	0	1	1	2,323746487584333E+005	1,4791218E+000	1,4799004E+000	-2,603441398476125E-001	2,000000000000000E+000	-4,6248849E-002	40	-3,8528338E-004
2	0	0	1	1	2,323986446621874E+005	1,4551259E+000	1,4558891E+000	-2,757655936454819E-001	2,000000000000000E+000	-5,2711807E-002	40	-4,0148411E-004
2	0	0	1	1	2,324226402659423E+005	1,4311302E+000	1,4319131E+000	-2,817010759082690E-001	2,000000000000000E+000	-5,9420533E-002	40	-4,0337146E-004
2	0	0	1	1	2,324466360696964E+005	1,4071344E+000	1,4079413E+000	-2,825922749129202E-001	2,000000000000000E+000	-6,6204906E-002	40	-3,9787334E-004
2	0	0	1	1	2,324706318734502E+005	1,3831385E+000	1,3839325E+000	-2,808085397976190E-001	2,000000000000000E+000	-7,2974585E-002	40	-3,8862004E-004
2	0	0	1	1	2,324946277772051E+005	1,3591427E+000	1,3599188E+000	-2,782640897416719E-001	2,000000000000000E+000	-7,9689905E-002	40	-3,7841659E-004
2	0	0	1	1	2,325186234809603E+005	1,3351470E+000	1,3359253E+000	-2,751392427031457E-001	2,000000000000000E+000	-8,6339362E-002	40	-3,6756549E-004
2	0	0	1	1	2,325426192847150E+005	1,3111511E+000	1,3119622E+000	-2,692548340211832E-001	2,000000000000000E+000	-9,2882365E-002	40	-3,5325217E-004
2	0	0	1	1	2,325666150884684E+005	1,2871555E+000	1,2879804E+000	-2,614555071862855E-001	2,000000000000000E+000	-9,9258102E-002	40	-3,3674957E-004
2	0	0	1	1	2,325906108922227E+005	1,2631596E+000	1,2639655E+000	-2,534822219577430E-001	2,000000000000000E+000	-1,0544305E-001	40	-3,2039278E-004
2	0	0	1	1	2,326146066959780E+005	1,2391638E+000	1,2399321E+000	-2,463353132106890E-001	2,000000000000000E+000	-1,1144520E-001	40	-3,0543905E-004
2	0	0	1	1	2,326386023997325E+005	1,2151681E+000	1,2159966E+000	-2,395312723920027E-001	2,000000000000000E+000	-1,1727978E-001	40	-2,9126921E-004
2	0	0	1	1	2,326625983034866E+005	1,1911721E+000	1,1919485E+000	-2,334714909917395E-001	2,000000000000000E+000	-1,2296060E-001	40	-2,7828600E-004
2	0	0	1	1	2,326865941072406E+005	1,1671765E+000	1,1679795E+000	-2,280152899224200E-001	2,000000000000000E+000	-1,2850206E-001	40	-2,6631719E-004
2	0	0	1	1	2,327105899109954E+005	1,1431806E+000	1,1439605E+000	-2,234112801013102E-001	2,000000000000000E+000	-1,3392213E-001	40	-2,5557369E-004
2	0	0	1	1	2,327345857147491E+005	1,1191847E+000	1,1199497E+000	-2,193934524334322E-001	2,000000000000000E+000	-1,3923894E-001	40	-2,4570964E-004
2	0	0	1	1	2,327585815185038E+005	1,0951890E+000	1,0959572E+000	-2,162614875346429E-001	2,000000000000000E+000	-1,4447065E-001	40	-2,3701333E-004
2	0	0	1	1	2,327825773222590E+005	1,0711933E+000	1,0719666E+000	-2,138482416297722E-001	2,000000000000000E+000	-1,4963485E-001	40	-2,2923818E-004
2	0	0	0	1	2,328065730260131E+005	1,0471975E+000	1,0479745E+000	-2,122283683094874E-001	2,000000000000000E+000	-1,5475070E-001	40	-2,2240992E-004
2	0	0	1	1	2,328305688297665E+005	1,0232017E+000	1,0240054E+000	-2,116296379438651E-001	2,000000000000000E+000	-1,5983859E-001	40	-2,1670990E-004
2	0	0	0	1	2,328538154334037E+005	9,9995601E-001	1,0007749E+000	-2,116843020868681E-001	2,000000000000000E+000	-1,6476259E-001	40	-2,1184832E-004
2	0	0	1	1	2,328773613370883E+005	1,0235014E+000	1,0243057E+000	-1,614923140649025E-001	2,000000000000000E+000	-1,6897188E-001	40	-1,6541750E-004
2	0	0	1	1	2,329013571408433E+005	1,0474973E+000	1,0482713E+000	-1,398168877679016E-001	2,000000000000000E+000	-1,7256427E-001	40	-1,4656603E-004
2	0	0	1	1	2,329253529445976E+005	1,0714931E+000	1,0722560E+000	-1,243998072603736E-001	2,000000000000000E+000	-1,7572083E-001	40	-1,3338844E-004
2	0	0	1	1	2,329493488483522E+005	1,0954890E+000	1,0962547E+000	-1,123708139144604E-001	2,000000000000000E+000	-1,7855062E-001	40	-1,2318703E-004
2	0	0	1	1	2,329733445521058E+005	1,1194847E+000	1,1202501E+000	-1,024263951629558E-001	2,000000000000000E+000	-1,8111908E-001	40	-1,1474318E-004
2	0	0	1	1	2,329973403558610E+005	1,1434805E+000	1,1442603E+000	-9,404029919596923E-002	2,000000000000000E+000	-1,8346848E-001	40	-1,0760658E-004
2	0	0	1	1	2,330213362596156E+005	1,1674763E+000	1,1682138E+000	-8,671265477499723E-002	2,000000000000000E+000	-1,8563057E-001	40	-1,0129892E-004
2	0	0	1	1	2,330453319633694E+005	1,1914722E+000	1,1922443E+000	-8,021034743153588E-002	2,000000000000000E+000	-1,8762660E-001	40	-9,5630327E-005
2	0	0	1	1	2,330693277671242E+005	1,2154679E+000	1,2162392E+000	-7,426641771562059E-002	2,000000000000000E+000	-1,8947354E-001	40	-9,0325731E-005
2	0	0	1	1	2,330933235708782E+005	1,2394637E+000	1,2402211E+000	-6,874513704448448E-002	2,000000000000000E+000	-1,9118410E-001	40	-8,5259169E-005
2	0	0	1	1	2,331173193746330E+005	1,2634594E+000	1,2642081E+000	-6,363333193739984E-002	2,000000000000000E+000	-1,9276717E-001	40	-8,0445774E-005
2	0	0	1	1	2,331413152783869E+005	1,2874553E+000	1,2882106E+000	-5,862696627250530E-002	2,000000000000000E+000	-1,9422899E-001	40	-7,5523880E-005
2	0	0	1	1	2,331653111821422E+005	1,3114511E+000	1,3121876E+000	-5,382458060314194E-002	2,000000000000000E+000	-1,9557357E-001	40	-7,0627946E-005
2	0	0	1	1	2,331893067858964E+005	1,3354468E+000	1,3361869E+000	-4,911116954397299E-002	2,000000000000000E+000	-1,9680366E-001	40	-6,5621702E-005
2	0	0	0	1	2,332133026896510E+005	1,3594427E+000	1,3602560E+000	-4,452822030475931E-002	2,000000000000000E+000	-1,9792533E-001	41	-6,0569779E-005
2	0	0	1	1	2,332372985934047E+005	1,3834387E+000	1,3842010E+000	-3,959533413563121E-002	2,000000000000000E+000	-1,9893126E-001	41	-5,4807904E-005
2	0	0	1	1	2,332612942971599E+005	1,4074342E+000	1,4082134E+000	-3,437171034780429E-002	2,000000000000000E+000	-1,9981490E-001	41	-4,8402700E-005
2	0	0	1	1	2,332852902009143E+005	1,4314301E+000	1,4322091E+000	-2,858913249808837E-002	2,000000000000000E+000	-2,0056680E-001	41	-4,0945615E-005
2	0	0	1	1	2,333092860046681E+005	1,4554260E+000	1,4561960E+000	-2,209078055968722E-002	2,000000000000000E+000	-2,0117223E-001	41	-3,2168504E-005
2	0	0	1	1	2,333332818084223E+005	1,4794217E+000	1,4802036E+000	-1,447283205630269E-002	2,000000000000000E+000	-2,0160913E-001	41	-2,1422738E-005
2	0	0	1	1	2,333572776121774E+005	1,5034176E+000	1,5041687E+000	-5,335893313216003E-003	2,000000000000000E+000	-2,0184602E-001	41	-8,0260843E-006
2	1	0	1	1	2,333812734159315E+005	1,5274135E+000	1,5281094E+000	5,811979736272288E-003	2,000000000000000E+000	-2,0184013E-001	42	8,8813413E-006
2	1	0	1	1	2,334052691196857E+005	1,5514091E+000	1,5521435E+000	2,028116519640089E-002	2,000000000000000E+000	-2,0152850E-001	41	3,1479278E-005
2	1	0	1	1	2,334292650234407E+005	1,5754049E+000	1,5760745E+000	3,861621817728395E-002	2,000000000000000E+000	-2,0082925E-001	41	6,0862036E-005
2	1	0	1	1	2,334532608271949E+005	1,5994008E+000	1,6000676E+000	7,428385229230994E-002	2,000000000000000E+000	-1,9953607E-001	41	1,1885919E-004
2	1	0	1	1	2,334772566309487E+005	1,6233965E+000	1,6241523E+000	1,427401140263603E-001	2,000000000000000E+000	-1,9697213E-001	40	2,3183168E-004
2	1	0	1	1	2,335012524347033E+005	1,6473925E+000	1,6481303E+000	2,250996434516965E-001	2,000000000000000E+000	-1,9256581E-001	40	3,7099354E-004
2	1	0	1	1	2,335252482384585E+005	1,6713881E+000	1,6720698E+000	3,105503486687899E-001	2,000000000000000E+000	-1,8613358E-001	40	5,1926187E-004
2	1	0	1	1	2,335492441422134E+005	1,6953841E+000	1,6960555E+000	3,943452859653738E-001	2,000000000000000E+000	-1,7765914E-001	40	6,6883152E-004
2	1	0	1	1	2,335732399459668E+005	1,7193797E+000	1,7200457E+000	4,708001921517387E-001	2,000000000000000E+000	-1,6725203E-001	40	8,0979784E-004
2	1	0	1	1	2,335972356497209E+005	1,7433753E+000	1,7440393E+000	5,336836123075388E-001	2,000000000000000E+000	-1,5516132E-001	40	9,3076518E-004
2	1	0	1	1	2,336212315534761E+005	1,7673713E+000	1,7680215E+000	5,766641412311602E-001	2,000000000000000E+000	-1,4178933E-001	40	1,0195546E-003
2	1	0	1	1	2,336452272572303E+005	1,7913671E+000	1,7920253E+000	5,945574941985576E-001	2,000000000000000E+000	-1,2767655E-001	40	1,0654621E-003
2	1	0	0	1	2,336692231609849E+005	1,8153628E+000	1,8160386E+000	5,837110532036238E-001	2,000000000000000E+000	-1,1347433E-001	40	1,0600418E-003
2	1	0	1	1	2,336932189647390E+005	1,8393587E+000	1,8400275E+000	5,453642442624407E-001	2,000000000000000E+000	-9,9871360E-002	40	1,0034852E-003
2	1	0	1	1	2,337172148684936E+005	1,8633547E+000	1,8640244E+000	4,857691543785738E-001	2,000000000000000E+000	-8,7461814E-002	40	9,0548553E-004
2	1	0	1	1	2,337412105722474E+005	1,8873502E+000	1,8880429E+000	4,161291011477903E-001	2,000000000000000E+000	-7,6628394E-002	40	7,8566960E-004
2	1	0	1	1	2,337652064760022E+005	1,9113462E+000	1,9120827E+000	3,467763827251620E-001	2,000000000000000E+000	-6,7477211E-002	40	6,6306512E-004
2	1	0	1	1	2,337892021797573E+005	1,9353417E+000	1,9360647E+000	2,826725310892613E-001	2,000000000000000E+000	-5,9934866E-002	40	5,4727233E-004
2	1	0	1	1	2,338131979835113E+005	1,9593377E+000	1,9600631E+000	2,275577998957550E-001	2,000000000000000E+000	-5,3827889E-002	40	4,4602764E-004
2	1	0	1	1	2,338371938872663E+005	1,9833337E+000	1,9840740E+000	1,834336011715809E-001	2,000000000000000E+000	-4,8912883E-002	40	3,6394584E-004
2	1	0	1	1	2,338611896910197E+005	2,0073292E+000	2,0080640E+000	1,499482294928480E-001	2,000000000000000E+000	-4,4927422E-002	40	3,0110564E-004
2	1	0	1	1	2,338851854947750E+005	2,0313251E+000	2,0320606E+000	1,252028615103102E-001	2,000000000000000E+000	-4,1635931E-002	40	2,5441981E-004
2	1	0	1	1	2,339091814985289E+005	2,0553210E+000	2,0560751E+000	1,068936949840619E-001	2,000000000000000E+000	-3,8855515E-002	40	2,1978146E-004
2	1	0	1	1	2,339331772022825E+005	2,0793166E+000	2,0800791E+000	9,306675818051036E-002	2,000000000000000E+000	-3,6457006E-002	40	1,9358622E-004
2	1	0	1	1	2,339571731060371E+005	2,1033125E+000	2,1040745E+000	8,247657774777262E-002	2,000000000000000E+000	-3,4349930E-002	40	1,7353686E-004
2	1	0	1	1	2,339811689097923E+005	2,1273084E+000	2,1280766E+000	7,422910647172409E-002	2,000000000000000E+000	-3,2467626E-002	40	1,5796522E-004
2	1	0	1	1	2,340051647135471E+005	2,1513040E+000	2,1520777E+000	6,776485767854734E-002	2,000000000000000E+000	-3,0760758E-002	40	1,4583523E-004
2	1	0	1	1	2,340291606173008E+005	2,1753001E+000	2,1760750E+000	6,261872473908792E-002	2,000000000000000E+000	-2,9192289E-002	40	1,3626304E-004
2	1	0	1	1	2,340531563210554E+005	2,1992958E+000	2,2000751E+000	5,834641512965577E-002	2,000000000000000E+000	-2,7736617E-002	40	1,2836650E-004
2	1	0	1	1	2,340771521248100E+005	2,2232914E+000	2,2240975E+000	5,485861912428192E-002	2,000000000000000E+000	-2,6374457E-002	40	1,2201092E-004
2	1	0	1	1	2,341011479285648E+005	2,2472870E+000	2,2480414E+000	5,179559085714706E-002	2,000000000000000E+000	-2,5090463E-002	40	1,1643863E-004
2	1	0	1	1	2,341251439323188E+005	2,2712831E+000	2,2720649E+000	4,933263552792555E-002	2,000000000000000E+000	-2,3871709E-002	40	1,1208695E-004
2	1	0	1	1	2,341492395360889E+005	2,2953784E+000	2,2961144E+000	4,689476365435719E-002	2,000000000000000E+000	-2,2707444E-002	41	1,0767575E-004
2	1	0	1	1	2,341732355398426E+005	2,3193746E+000	2,3200641E+000	4,512106556219053E-002	2,000000000000000E+000	-2,1597313E-002	41	1,0468376E-004
2	1	0	1	1	2,341972313435979E+005	2,3433704E+000	2,3441033E+000	4,357513942192215E-002	2,000000000000000E+000	-2,0526765E-002	41	1,0214463E-004
2	1	0	1	1	2,342212269473528E+005	2,3673658E+000	2,3680875E+000	4,237142503680458E-002	2,000000000000000E+000	-1,9489618E-002	41	1,0033925E-004
2	1	0	1	1	2,342452229511067E+005	2,3913622E+000	2,3920856E+000	4,133626058237888E-002	2,000000000000000E+000	-1,8480001E-002	41	9,8879871E-005
2	1	0	1	1	2,342692187548609E+005	2,4153578E+000	2,4160874E+000	4,053531985231704E-002	2,000000000000000E+000	-1,7491970E-002	41	9,7936878E-005
2	1	0	1	1	2,342932145586158E+005	2,4393532E+000	2,4400854E+000	3,972292052271620E-002	2,000000000000000E+000	-1,6522557E-002	41	9,6927317E-005
2	1	0	1	1	2,343172105623698E+005	2,4633496E+000	2,4641085E+000	3,873211715423719E-002	2,000000000000000E+000	-1,5574825E-002	41	9,5440140E-005
2	1	0	1	1	2,343412063661239E+005	2,4873452E+000	2,4881167E+000	3,771509081265800E-002	2,000000000000000E+000	-1,4651380E-002	41	9,3839546E-005
2	1	0	1	1	2,343652020698793E+005	2,5113406E+000	2,5121148E+000	3,686126820306923E-002	2,000000000000000E+000	-1,3750497E-002	41	9,2599737E-005
2	1	0	1	1	2,343891977736335E+005	2,5353365E+000	2,5361075E+000	3,605788161438714E-002	2,000000000000000E+000	-1,2869382E-002	41	9,1446665E-005
2	1	0	1	1	2,344131937773870E+005	2,5593324E+000	2,5601168E+000	3,524074319310370E-002	2,000000000000000E+000	-1,2006956E-002	41	9,0220419E-005
2	1	0	1	1	2,344371895811416E+005	2,5833282E+000	2,5841300E+000	3,459228949786281E-002	2,000000000000000E+000	-1,1162695E-002	41	8,9390975E-005
2	1	0	1	1	2,344611851848967E+005	2,6073239E+000	2,6081259E+000	3,428721367266735E-002	2,000000000000000E+000	-1,0330924E-002	41	8,9425368E-005
2	1	0	1	1	2,344851811886514E+005	2,6313198E+000	2,6320772E+000	3,409634816400997E-002	2,000000000000000E+000	-9,5039904E-003	41	8,9744222E-005
2	1	0	1	1	2,345091771924049E+005	2,6553159E+000	2,6561038E+000	3,357532254646121E-002	2,000000000000000E+000	-8,6850151E-003	41	8,9179543E-005
2	1	0	1	1	2,345331728961591E+005	2,6793110E+000	2,6800921E+000	3,276288058628934E-002	2,000000000000000E+000	-7,8832489E-003	41	8,7807537E-005
2	1	0	1	1	2,345571687999144E+005	2,7033074E+000	2,7040913E+000	3,211903197106723E-002	2,000000000000000E+000	-7,0994673E-003	41	8,6852793E-005
2	1	0	1	1	2,345811646036697E+005	2,7273035E+000	2,7280993E+000	3,164333780391332E-002	2,000000000000000E+000	-6,3287811E-003	41	8,6326167E-005
2	1	0	1	1	2,346051603074232E+005	2,7512987E+000	2,7520967E+000	3,139690689397669E-002	2,000000000000000E+000	-5,5668349E-003	41	8,6407323E-005
2	1	0	1	1	2,346291560111776E+005	2,7752945E+000	2,7760816E+000	3,128511852650645E-002	2,000000000000000E+000	-4,8091905E-003	41	8,6850043E-005
2	1	0	1	1	2,346531520149317E+005	2,7992907E+000	2,8000801E+000	3,136911176510643E-002	2,000000000000000E+000	-4,0513803E-003	41	8,7836022E-005
2	1	0	1	1	2,346771477186857E+005	2,8232863E+000	2,8240824E+000	3,161491756165530E-002	2,000000000000000E+000	-3,2894546E-003	41	8,9283130E-005
2	1	0	1	1	2,347011434224404E+005	2,8472822E+000	2,8480535E+000	3,172247416559926E-002	2,000000000000000E+000	-2,5219882E-003	41	9,0347305E-005
2	1	0	1	1	2,347251396261957E+005	2,8712780E+000	2,8720801E+000	3,165086804400313E-002	2,000000000000000E+000	-1,7540632E-003	41	9,0903828E-005
2	1	0	1	1	2,347491354299500E+005	2,8952742E+000	2,8960745E+000	3,146544485215899E-002	2,000000000000000E+000	-9,9117332E-004	41	9,1126276E-005
2	1	0	1	1	2,347731310337037E+005	2,9192693E+000	2,9200873E+000	3,129788127241863E-002	2,000000000000000E+000	-2,3268575E-004	41	9,1392547E-005
2	1	0	1	1	2,347971270374579E+005	2,9432654E+000	2,9440439E+000	3,125635217366568E-002	2,000000000000000E+000	5,2325608E-004	41	9,2020069E-005
2	1	0	1	1	2,348211228412131E+005	2,9672613E+000	2,9680438E+000	3,130149454075712E-002	2,000000000000000E+000	1,2797328E-003	41	9,2904207E-005
2	1	0	1	1	2,348451185449674E+005	2,9912570E+000	2,9920564E+000	3,156395302821641E-002	2,000000000000000E+000	2,0401559E-003	41	9,4441129E-005
2	1	0	1	0	2,348674148484557E+005	2,9864578E+000	2,9872522E+000	1,818653179084651E-002	2,000000000000000E+000	2,6088660E-003	41	5,4327757E-005
2	1	0	1	0	2,348914106522100E+005	2,9624622E+000	2,9632933E+000	1,230821429803741E-002	2,000000000000000E+000	2,9598754E-003	41	3,6472848E-005
2	1	0	1	0	2,349154065559644E+005	2,9384663E+000	2,9392829E+000	8,867993721326045E-003	2,000000000000000E+000	3,2045085E-003	41	2,6065542E-005
2	1	0	1	0	2,349394022597191E+005	2,9144704E+000	2,9153030E+000	6,484503093550503E-003	2,000000000000000E+000	3,3812246E-003	41	1,8904291E-005
2	1	0	1	0	2,349633980634734E+005	2,8904748E+000	2,8912494E+000	4,681827124601308E-003	2,000000000000000E+000	3,5087822E-003	42	1,3536330E-005
2	1	0	1	0	2,349873939672275E+005	2,8664784E+000	2,8672400E+000	3,223296079789700E-003	2,000000000000000E+000	3,5980279E-003	42	9,2419632E-006
2	1	0	1	0	2,350113896709828E+005	2,8424828E+000	2,8432722E+000	2,102446324725008E-003	2,000000000000000E+000	3,6563461E-003	42	5,9778272E-006
2	1	0	1	0	2,350353854747373E+005	2,8184872E+000	2,8193133E+000	1,140886154303928E-003	2,000000000000000E+000	3,6892379E-003	42	3,2165156E-006
2	1	0	1	0	2,350593814784912E+005	2,7944913E+000	2,7953281E+000	3,825885199527281E-004	2,000000000000000E+000	3,7015143E-003	42	1,0694605E-006
2	0	0	1	0	2,350833770822452E+005	2,7704957E+000	2,7713420E+000	-2,913221290632697E-004	2,000000000000000E+000	3,6966018E-003	42	-8,0735327E-007
2	0	0	1	0	2,351073728860004E+005	2,7464998E+000	2,7472847E+000	-9,306402446786575E-004	2,000000000000000E+000	3,6760427E-003	42	-2,5567338E-006
2	0	0	1	0	2,351313688897546E+005	2,7225041E+000	2,7233348E+000	-1,516674264906308E-003	2,000000000000000E+000	3,6411115E-003	42	-4,1304120E-006
2	0	0	1	0	2,351553645935096E+005	2,6985080E+000	2,6993380E+000	-2,114709191969873E-003	2,000000000000000E+000	3,5920632E-003	42	-5,7083148E-006
2	0	0	1	0	2,351793602972628E+005	2,6745126E+000	2,6753576E+000	-2,730720568328598E-003	2,000000000000000E+000	3,5284662E-003	42	-7,3056540E-006
2	0	0	1	0	2,352033563010180E+005	2,6505165E+000	2,6513641E+000	-3,529539857997012E-003	2,000000000000000E+000	3,4482582E-003	42	-9,3580957E-006
2	0	0	1	0	2,352273519047732E+005	2,6265206E+000	2,6273870E+000	-4,500311512571825E-003	2,000000000000000E+000	3,3467251E-003	42	-1,1824060E-005
2	0	0	1	0	2,352513477085265E+005	2,6025248E+000	2,6034207E+000	-5,318812869743478E-003	2,000000000000000E+000	3,2222231E-003	42	-1,3847108E-005
2	0	0	1	0	2,352753435122812E+005	2,5785294E+000	2,5794268E+000	-5,610993425212318E-003	2,000000000000000E+000	3,0842177E-003	42	-1,4473147E-005
2	0	0	1	0	2,352993392160353E+005	2,5545335E+000	2,5554464E+000	-5,925724676824139E-003	2,000000000000000E+000	2,9405979E-003	42	-1,5142872E-005
2	0	0	1	0	2,353233351197904E+005	2,5305376E+000	2,5314271E+000	-6,425144819091538E-003	2,000000000000000E+000	2,7873081E-003	42	-1,6264787E-005
2	0	0	1	0	2,353473309235440E+005	2,5065417E+000	2,5074472E+000	-6,980375746350832E-003	2,000000000000000E+000	2,6207867E-003	42	-1,7502924E-005
2	0	0	1	0	2,353713267272993E+005	2,4825459E+000	2,4834459E+000	-7,594744419420263E-003	2,000000000000000E+000	2,4405154E-003	42	-1,8861138E-005
2	0	0	1	0	2,353953225310533E+005	2,4585502E+000	2,4594648E+000	-8,155959722924225E-003	2,000000000000000E+000	2,2465147E-003	42	-2,0059295E-005
2	0	0	1	0	2,354193183348076E+005	2,4345546E+000	2,4354401E+000	-8,692080094539756E-003	2,000000000000000E+000	2,0389105E-003	42	-2,1169040E-005
2	0	0	1	0	2,354433141385614E+005	2,4105587E+000	2,4114351E+000	-9,123254109386580E-003	2,000000000000000E+000	1,8192860E-003	42	-2,2000135E-005
2	0	0	1	0	2,354673098423167E+005	2,3865628E+000	2,3873789E+000	-9,364605337725429E-003	2,000000000000000E+000	1,5914661E-003	41	-2,2356862E-005
2	0	0	1	0	2,354913057460715E+005	2,3625672E+000	2,3633776E+000	-9,645421533566456E-003	2,000000000000000E+000	1,3575820E-003	41	-2,2795773E-005
2	0	0	1	0	2,355153015498258E+005	2,3385711E+000	2,3393569E+000	-1,005018989713283E-002	2,000000000000000E+000	1,1156319E-003	41	-2,3510982E-005
2	0	0	1	0	2,355392972535794E+005	2,3145752E+000	2,3153999E+000	-1,042637268845542E-002	2,000000000000000E+000	8,6405961E-004	41	-2,4141222E-005
2	0	0	1	0	2,355632930573341E+005	2,2905796E+000	2,2914021E+000	-1,093293936428349E-002	2,000000000000000E+000	6,0163188E-004	41	-2,5051761E-005
2	0	0	1	0	2,355872889610892E+005	2,2665839E+000	2,2674000E+000	-1,145505033121447E-002	2,000000000000000E+000	3,2712365E-004	41	-2,5973181E-005
2	0	0	0	0	2,356041712637298E+005	2,2496376E+000	2,2504683E+000	-1,246226890626451E-002	2,000000000000000E+000	1,2602242E-004	41	-2,8045941E-005