File: Dati/210416_2/CV_LTO-CB_grafite nuova_15 layers__09_CV_C01.mpt
EC-Lab ASCII FILE
Nb header lines : 57

Cyclic Voltammetry

Run on channel : 1 (SN 6806)
User : Seelab
Electrode connection : standard
Ewe ctrl range : min = 0,00 V, max = 5,00 V
Ewe,I filtering : 50 kHz
Safety Limits :
	Do not start on E overload
Channel : Grounded
Acquisition started on : 04/16/2021 18:47:00
Saved on :
	File : CV_LTO-CB_grafite nuova_15 layers__09_CV_C01.mpr
	Directory : C:\Users\labsuperfici\Desktop\Biologic\Users\Prisca Viviani\210416_2\
	Host : 10.78.33.0
Device : VSP-300 (SN 0638)
Address : USB
EC-Lab for windows v11.31 (software)
Internet server v11.30 (firmware)
Command interpretor v11.31 (firmware)
Electrode material :
Initial state :
Electrolyte :
Comments :
Cable : standard
Reference electrode : SCE Saturated Calomel Electrode (0,241 V)
Electrode surface area : 0,001 cm²
Characteristic mass : 0,001 g
Equivalent Weight : 0,000 g/eq.
Density : 0,000 g/cm3
Cycle Definition : Charge/Discharge alternance
Ei (V)              0,000
vs.                 Eoc
dE/dt               0,800
dE/dt unit          mV/s
E1 (V)              1,000
vs.                 Ref
Step percent        50
N                   10
E range min (V)     0,000
E range max (V)     5,000
I Range             Auto
I Range min         Unset
I Range max         Unset
I Range init        Unset
Bandwidth           8
E2 (V)              3,000
vs.                 Ref
nc cycles           1
Reverse Scan        1
Ef (V)              0,000
vs.                 Eoc

mode	ox/red	error	control changes	counter inc.	time/s	control/V	Ewe/V	<I>/mA	cycle number	(Q-Qo)/C	I Range	P/W
2	0	0	1	0	2,087144012565110E+005	2,2496376E+000	2,2504070E+000	-1,038297358900309E-002	1,000000000000000E+000	0,0000000E+000	41	-2,3365916E-005
2	0	0	1	0	2,087438336611143E+005	2,2260911E+000	2,2268686E+000	-1,010924057907275E-002	1,000000000000000E+000	-2,9096336E-004	41	-2,2511951E-005
2	0	0	1	0	2,087738283658079E+005	2,2020953E+000	2,2028842E+000	-1,085386909175314E-002	1,000000000000000E+000	-6,1136507E-004	41	-2,3909817E-005
2	0	0	1	0	2,088038232705025E+005	2,1780992E+000	2,1789103E+000	-1,163017028350127E-002	1,000000000000000E+000	-9,5483923E-004	41	-2,5341098E-005
2	0	0	1	0	2,088338180751936E+005	2,1541035E+000	2,1548932E+000	-1,245444266371181E-002	1,000000000000000E+000	-1,3221340E-003	41	-2,6837994E-005
2	0	0	1	0	2,088638126798873E+005	2,1301079E+000	2,1309073E+000	-1,330166838424351E-002	1,000000000000000E+000	-1,7144133E-003	41	-2,8344622E-005
2	0	0	1	0	2,088938074845816E+005	2,1061118E+000	2,1069119E+000	-1,421726933900500E-002	1,000000000000000E+000	-2,1331792E-003	41	-2,9954534E-005
2	0	0	1	0	2,089238020892725E+005	2,0821164E+000	2,0829058E+000	-1,520453926255497E-002	1,000000000000000E+000	-2,5808639E-003	41	-3,1669624E-005
2	0	0	1	0	2,089537967939663E+005	2,0581203E+000	2,0589113E+000	-1,630371741970899E-002	1,000000000000000E+000	-3,0599141E-003	41	-3,3567907E-005
2	0	0	1	0	2,089837914986606E+005	2,0341244E+000	2,0349064E+000	-1,749929397761711E-002	1,000000000000000E+000	-3,5727958E-003	41	-3,5609424E-005
2	0	0	1	0	2,090137863033516E+005	2,0101290E+000	2,0109007E+000	-1,876916476012241E-002	1,000000000000000E+000	-4,1230540E-003	41	-3,7742928E-005
2	0	0	1	0	2,090437811080455E+005	1,9861330E+000	1,9869516E+000	-2,010859345467760E-002	1,000000000000000E+000	-4,7133169E-003	41	-3,9954801E-005
2	0	0	1	0	2,090737759127398E+005	1,9621372E+000	1,9629281E+000	-2,153662938575937E-002	1,000000000000000E+000	-5,3449008E-003	41	-4,2274853E-005
2	0	0	1	0	2,091037707174304E+005	1,9381413E+000	1,9389440E+000	-2,291069671433810E-002	1,000000000000000E+000	-6,0179043E-003	41	-4,4422559E-005
2	0	0	1	0	2,091337654221243E+005	1,9141457E+000	1,9149679E+000	-2,445116298533032E-002	1,000000000000000E+000	-6,7347712E-003	41	-4,6823192E-005
2	0	0	1	0	2,091637601268184E+005	1,8901496E+000	1,8909478E+000	-2,630854001067554E-002	1,000000000000000E+000	-7,5023468E-003	41	-4,9748076E-005
2	0	0	1	0	2,091937549315095E+005	1,8661538E+000	1,8669615E+000	-2,836145728257633E-002	1,000000000000000E+000	-8,3282422E-003	41	-5,2949748E-005
2	0	0	1	0	2,092237496362035E+005	1,8421582E+000	1,8429570E+000	-3,079815060500335E-002	1,000000000000000E+000	-9,2212511E-003	41	-5,6759669E-005
2	0	0	1	0	2,092537444408974E+005	1,8181624E+000	1,8189671E+000	-3,362316780883379E-002	1,000000000000000E+000	-1,0192848E-002	41	-6,1159437E-005
2	0	0	1	0	2,092837391455886E+005	1,7941667E+000	1,7949636E+000	-3,695799387263911E-002	1,000000000000000E+000	-1,1256916E-002	41	-6,6338253E-005
2	0	0	1	0	2,093137338502829E+005	1,7701708E+000	1,7709788E+000	-4,102747133343450E-002	1,000000000000000E+000	-1,2431999E-002	41	-7,2658782E-005
2	0	0	1	0	2,093437286549765E+005	1,7461752E+000	1,7469825E+000	-4,582573373424148E-002	1,000000000000000E+000	-1,3739495E-002	41	-8,0056750E-005
2	0	0	1	0	2,093737233596677E+005	1,7221792E+000	1,7229952E+000	-5,143500014888369E-002	1,000000000000000E+000	-1,5203260E-002	41	-8,8622255E-005
2	0	0	1	0	2,094037181643618E+005	1,6981834E+000	1,6989993E+000	-5,805259990821510E-002	1,000000000000000E+000	-1,6850119E-002	41	-9,8631324E-005
2	0	0	1	0	2,094337129690559E+005	1,6741875E+000	1,6750206E+000	-6,575933081191024E-002	1,000000000000000E+000	-1,8710645E-002	41	-1,1014823E-004
2	0	0	1	0	2,094637077737469E+005	1,6501918E+000	1,6510341E+000	-7,472085415375185E-002	1,000000000000000E+000	-2,0821050E-002	41	-1,2336668E-004
2	0	0	1	0	2,094937025784411E+005	1,6261959E+000	1,6270808E+000	-8,511121285846901E-002	1,000000000000000E+000	-2,3221074E-002	41	-1,3848282E-004
2	0	0	1	0	2,095236971831350E+005	1,6022002E+000	1,6030712E+000	-9,766972503891691E-002	1,000000000000000E+000	-2,5963923E-002	41	-1,5657152E-004
2	0	0	1	0	2,095536918878253E+005	1,5782045E+000	1,5789802E+000	-1,131759601280806E-001	1,000000000000000E+000	-2,9124910E-002	40	-1,7870260E-004
2	0	0	1	0	2,095836866925198E+005	1,5542086E+000	1,5549692E+000	-1,331638142231362E-001	1,000000000000000E+000	-3,2814138E-002	40	-2,0706563E-004
2	0	0	1	0	2,096136814972134E+005	1,5302129E+000	1,5309925E+000	-1,617266978536541E-001	1,000000000000000E+000	-3,7213899E-002	40	-2,4760235E-004
2	0	0	1	0	2,096436762019047E+005	1,5062171E+000	1,5070001E+000	-2,015142272361068E-001	1,000000000000000E+000	-4,2662892E-002	40	-3,0368197E-004
2	0	0	1	0	2,096736710065990E+005	1,4822211E+000	1,4829894E+000	-2,308382784341134E-001	1,000000000000000E+000	-4,9197778E-002	40	-3,4233072E-004
2	0	0	1	0	2,097036657112925E+005	1,4582255E+000	1,4589870E+000	-2,450495058374608E-001	1,000000000000000E+000	-5,6370299E-002	40	-3,5752406E-004
2	0	0	1	0	2,097336604159838E+005	1,4342297E+000	1,4349979E+000	-2,499643765595487E-001	1,000000000000000E+000	-6,3817687E-002	40	-3,5869837E-004
2	0	0	1	0	2,097636552206784E+005	1,4102339E+000	1,4109893E+000	-2,501409982665823E-001	1,000000000000000E+000	-7,1334034E-002	40	-3,5294626E-004
2	0	0	1	0	2,097936500253719E+005	1,3862381E+000	1,3870308E+000	-2,478397829518535E-001	1,000000000000000E+000	-7,8813270E-002	40	-3,4376144E-004
2	0	0	1	0	2,098236447300627E+005	1,3622423E+000	1,3630204E+000	-2,451566779756211E-001	1,000000000000000E+000	-8,6213291E-002	40	-3,3415356E-004
2	0	0	1	0	2,098536394347574E+005	1,3382465E+000	1,3390187E+000	-2,420200612446122E-001	1,000000000000000E+000	-9,3533061E-002	40	-3,2406938E-004
2	0	0	1	0	2,098836342394510E+005	1,3142506E+000	1,3150582E+000	-2,358840684158698E-001	1,000000000000000E+000	-1,0071313E-001	40	-3,1020129E-004
2	0	0	1	0	2,099136290441421E+005	1,2902550E+000	1,2910460E+000	-2,285694815936621E-001	1,000000000000000E+000	-1,0768721E-001	40	-2,9509372E-004
2	0	0	1	0	2,099436236488366E+005	1,2662591E+000	1,2670468E+000	-2,212672878663655E-001	1,000000000000000E+000	-1,1443869E-001	40	-2,8035601E-004
2	0	0	1	0	2,099736184535301E+005	1,2422632E+000	1,2430354E+000	-2,144168933733572E-001	1,000000000000000E+000	-1,2097749E-001	40	-2,6652779E-004
2	0	0	1	0	2,100036132582210E+005	1,2182676E+000	1,2190294E+000	-2,082232363166525E-001	1,000000000000000E+000	-1,2732035E-001	40	-2,5383025E-004
2	0	0	1	0	2,100336080629154E+005	1,1942716E+000	1,1950270E+000	-2,026294452333205E-001	1,000000000000000E+000	-1,3348632E-001	40	-2,4214765E-004
2	0	0	1	0	2,100636026676088E+005	1,1702760E+000	1,1710432E+000	-1,977110121409371E-001	1,000000000000000E+000	-1,3949613E-001	40	-2,3152813E-004
2	0	0	1	0	2,100935974722998E+005	1,1462799E+000	1,1470280E+000	-1,933546024878647E-001	1,000000000000000E+000	-1,4536569E-001	40	-2,2178314E-004
2	0	0	1	0	2,101235921769945E+005	1,1222843E+000	1,1230515E+000	-1,895726805550351E-001	1,000000000000000E+000	-1,5111358E-001	40	-2,1289989E-004
2	0	0	1	0	2,101535869816877E+005	1,0982885E+000	1,0990534E+000	-1,865569041793982E-001	1,000000000000000E+000	-1,5675960E-001	40	-2,0503599E-004
2	0	0	1	0	2,101835816863794E+005	1,0742927E+000	1,0750630E+000	-1,842151671834027E-001	1,000000000000000E+000	-1,6232552E-001	40	-1,9804291E-004
2	0	0	1	0	2,102135764910739E+005	1,0502969E+000	1,0510784E+000	-1,825525130415666E-001	1,000000000000000E+000	-1,6783103E-001	40	-1,9187701E-004
2	0	0	1	0	2,102435711957668E+005	1,0263011E+000	1,0270851E+000	-1,815685366228574E-001	1,000000000000000E+000	-1,7329532E-001	40	-1,8648633E-004
2	0	0	1	0	2,102735660004583E+005	1,0023053E+000	1,0031056E+000	-1,813645849783470E-001	1,000000000000000E+000	-1,7874369E-001	40	-1,8192784E-004
2	0	0	1	0	2,103021869049378E+005	1,0205022E+000	1,0212797E+000	-1,413484775177141E-001	1,000000000000000E+000	-1,8326242E-001	40	-1,4435632E-004
2	0	0	1	0	2,103321815096317E+005	1,0444980E+000	1,0452781E+000	-1,216175751615021E-001	1,000000000000000E+000	-1,8717834E-001	40	-1,2712418E-004
2	0	0	1	0	2,103621763143227E+005	1,0684937E+000	1,0692492E+000	-1,078397616611957E-001	1,000000000000000E+000	-1,9060290E-001	40	-1,1530757E-004
2	0	0	1	0	2,103921711190170E+005	1,0924895E+000	1,0932482E+000	-9,722668695255585E-002	1,000000000000000E+000	-1,9366631E-001	40	-1,0629291E-004
2	0	0	1	0	2,104221659237109E+005	1,1164854E+000	1,1172673E+000	-8,861476648940503E-002	1,000000000000000E+000	-1,9644332E-001	40	-9,9006378E-005
2	0	0	1	0	2,104521605284018E+005	1,1404811E+000	1,1412480E+000	-8,129933633472664E-002	1,000000000000000E+000	-1,9898334E-001	40	-9,2782706E-005
2	0	0	1	0	2,104821553330962E+005	1,1644769E+000	1,1652293E+000	-7,491139978740824E-002	1,000000000000000E+000	-2,0131892E-001	40	-8,7288958E-005
2	0	0	1	0	2,105121501377895E+005	1,1884726E+000	1,1892471E+000	-6,923824306379145E-002	1,000000000000000E+000	-2,0347372E-001	40	-8,2341379E-005
2	0	0	1	0	2,105421449424806E+005	1,2124685E+000	1,2132523E+000	-6,411152251291824E-002	1,000000000000000E+000	-2,0546721E-001	40	-7,7783450E-005
2	0	0	1	0	2,105721395471750E+005	1,2364641E+000	1,2372410E+000	-5,934627399336012E-002	1,000000000000000E+000	-2,0731269E-001	40	-7,3425646E-005
2	0	0	1	0	2,106021343518686E+005	1,2604601E+000	1,2612207E+000	-5,490939349454746E-002	1,000000000000000E+000	-2,0902061E-001	40	-6,9252863E-005
2	0	0	1	0	2,106321291565597E+005	1,2844559E+000	1,2852365E+000	-5,073477173680296E-002	1,000000000000000E+000	-2,1059951E-001	40	-6,5206179E-005
2	0	0	1	0	2,106621240612543E+005	1,3084519E+000	1,3092741E+000	-4,692236395343352E-002	1,000000000000000E+000	-2,1205896E-001	41	-6,1434235E-005
2	0	0	1	0	2,106921187659479E+005	1,3324475E+000	1,3332678E+000	-4,288028815321876E-002	1,000000000000000E+000	-2,1340114E-001	41	-5,7170906E-005
2	0	0	1	0	2,107221135706389E+005	1,3564432E+000	1,3572257E+000	-3,884149459885511E-002	1,000000000000000E+000	-2,1462221E-001	41	-5,2716674E-005
2	0	0	1	0	2,107521082753333E+005	1,3804390E+000	1,3812009E+000	-3,462982494138755E-002	1,000000000000000E+000	-2,1571970E-001	41	-4,7830745E-005
2	0	0	1	0	2,107821030800268E+005	1,4044348E+000	1,4052013E+000	-3,018120886777451E-002	1,000000000000000E+000	-2,1668766E-001	41	-4,2410673E-005
2	0	0	1	0	2,108120977847180E+005	1,4284307E+000	1,4292054E+000	-2,528670842793287E-002	1,000000000000000E+000	-2,1751593E-001	41	-3,6139900E-005
2	0	0	1	0	2,108420925894126E+005	1,4524263E+000	1,4531844E+000	-1,980346754118878E-002	1,000000000000000E+000	-2,1818909E-001	41	-2,8778089E-005
2	0	0	1	0	2,108720873941062E+005	1,4764222E+000	1,4772012E+000	-1,331298120777991E-002	1,000000000000000E+000	-2,1868442E-001	41	-1,9665953E-005
2	0	0	1	0	2,109020821987973E+005	1,5004182E+000	1,5011615E+000	-5,669843793924496E-003	1,000000000000000E+000	-2,1896856E-001	41	-8,5113506E-006
2	1	0	1	0	2,109322019035113E+005	1,5245140E+000	1,5252500E+000	3,812071062625884E-003	1,000000000000000E+000	-2,1899736E-001	42	5,8143614E-006
2	1	0	1	0	2,109621966082049E+005	1,5485096E+000	1,5492682E+000	1,602293812962091E-002	1,000000000000000E+000	-2,1870285E-001	41	2,4823828E-005
2	1	0	1	0	2,109921914128955E+005	1,5725055E+000	1,5732298E+000	3,148171536849753E-002	1,000000000000000E+000	-2,1799640E-001	41	4,9527971E-005
2	1	0	1	0	2,110221862175901E+005	1,5965012E+000	1,5971766E+000	6,081727254642022E-002	1,000000000000000E+000	-2,1667697E-001	41	9,7135919E-005
2	1	0	1	0	2,110521810222836E+005	1,6204970E+000	1,6212209E+000	1,200095146090121E-001	1,000000000000000E+000	-2,1401516E-001	40	1,9456194E-004
2	1	0	1	0	2,110821758269747E+005	1,6444929E+000	1,6452249E+000	1,924109286202862E-001	1,000000000000000E+000	-2,0934285E-001	40	3,1655925E-004
2	1	0	1	0	2,111121706316695E+005	1,6684887E+000	1,6691873E+000	2,695814114586308E-001	1,000000000000000E+000	-2,0241161E-001	40	4,4998186E-004
2	1	0	1	0	2,111421653363626E+005	1,6924845E+000	1,6931872E+000	3,466947790129806E-001	1,000000000000000E+000	-1,9315520E-001	40	5,8701920E-004
2	1	0	1	0	2,111721601410538E+005	1,7164803E+000	1,7171806E+000	4,183353659048672E-001	1,000000000000000E+000	-1,8165168E-001	40	7,1835739E-004
2	1	0	1	0	2,112021548457484E+005	1,7404759E+000	1,7411391E+000	4,779306821144225E-001	1,000000000000000E+000	-1,6816454E-001	40	8,3214376E-004
2	1	0	1	0	2,112321496504419E+005	1,7644719E+000	1,7651151E+000	5,183713905241696E-001	1,000000000000000E+000	-1,5316038E-001	40	9,1498520E-004
2	1	0	1	0	2,112621444551330E+005	1,7884675E+000	1,7891176E+000	5,339566935508877E-001	1,000000000000000E+000	-1,3730468E-001	40	9,5531129E-004
2	1	0	1	0	2,112921392598277E+005	1,8124635E+000	1,8131089E+000	5,213582692113388E-001	1,000000000000000E+000	-1,2140092E-001	40	9,4527932E-004
2	1	0	1	0	2,113221340645212E+005	1,8364592E+000	1,8371453E+000	4,826567528796542E-001	1,000000000000000E+000	-1,0627850E-001	40	8,8671059E-004
2	1	0	1	0	2,113521287692119E+005	1,8604549E+000	1,8611410E+000	4,249570943389702E-001	1,000000000000000E+000	-9,2627928E-002	40	7,9090503E-004
2	1	0	1	0	2,113821235739068E+005	1,8844509E+000	1,8851498E+000	3,598096342233976E-001	1,000000000000000E+000	-8,0847204E-002	40	6,7829509E-004
2	1	0	1	0	2,114121182786003E+005	1,9084464E+000	1,9091707E+000	2,957643497902800E-001	1,000000000000000E+000	-7,1018048E-002	40	5,6466466E-004
2	1	0	1	0	2,114421130832909E+005	1,9324422E+000	1,9331805E+000	2,375868285799450E-001	1,000000000000000E+000	-6,3033357E-002	40	4,5929820E-004
2	1	0	1	0	2,114721078879857E+005	1,9564382E+000	1,9571555E+000	1,891135268590623E-001	1,000000000000000E+000	-5,6655690E-002	40	3,7012456E-004
2	1	0	1	0	2,115021026926790E+005	1,9804338E+000	1,9811682E+000	1,517384014232448E-001	1,000000000000000E+000	-5,1564734E-002	40	3,0061929E-004
2	1	0	1	0	2,115320974973703E+005	2,0044296E+000	2,0051651E+000	1,240374977615644E-001	1,000000000000000E+000	-4,7442805E-002	40	2,4871566E-004
2	1	0	1	0	2,115620923020650E+005	2,0284257E+000	2,0291452E+000	1,037135553567630E-001	1,000000000000000E+000	-4,4034947E-002	40	2,1044987E-004
2	1	0	1	0	2,115920870067580E+005	2,0524213E+000	2,0532002E+000	8,863716127618315E-002	1,000000000000000E+000	-4,1153692E-002	40	1,8198985E-004
2	1	0	1	0	2,116220817114497E+005	2,0764170E+000	2,0771599E+000	7,713034119561291E-002	1,000000000000000E+000	-3,8668796E-002	40	1,6021205E-004
2	1	0	1	0	2,116520767161442E+005	2,1004128E+000	2,1011736E+000	6,831470966491987E-002	1,000000000000000E+000	-3,6485590E-002	40	1,4354107E-004
2	1	0	1	0	2,116820715208375E+005	2,1244087E+000	2,1251771E+000	6,161731359499745E-002	1,000000000000000E+000	-3,4533300E-002	40	1,3094771E-004
2	1	0	1	0	2,117120661255287E+005	2,1484044E+000	2,1491828E+000	5,629051932175599E-002	1,000000000000000E+000	-3,2760836E-002	40	1,2097861E-004
2	1	0	1	0	2,117420609302232E+005	2,1724005E+000	2,1731675E+000	5,191467946634143E-002	1,000000000000000E+000	-3,1133365E-002	40	1,1281929E-004
2	1	0	1	0	2,117721181349261E+005	2,1964462E+000	2,1971624E+000	4,801665900682378E-002	1,000000000000000E+000	-2,9620910E-002	40	1,0550040E-004
2	1	0	1	0	2,118021755396272E+005	2,2204919E+000	2,2212441E+000	4,500761399779130E-002	1,000000000000000E+000	-2,8216161E-002	41	9,9972895E-005
2	1	0	1	0	2,118321702443219E+005	2,2444880E+000	2,2452133E+000	4,242613026915698E-002	1,000000000000000E+000	-2,6898175E-002	41	9,5255709E-005
2	1	0	1	0	2,118621649490152E+005	2,2684834E+000	2,2692242E+000	4,028837144552566E-002	1,000000000000000E+000	-2,5650615E-002	41	9,1423346E-005
2	1	0	1	0	2,118921598537059E+005	2,2924795E+000	2,2932491E+000	3,852567807833134E-002	1,000000000000000E+000	-2,4462132E-002	41	8,8348977E-005
2	1	0	1	0	2,119221546584007E+005	2,3164752E+000	2,3172207E+000	3,694418783179440E-002	1,000000000000000E+000	-2,3323657E-002	41	8,5607833E-005
2	1	0	1	0	2,119521491630939E+005	2,3404706E+000	2,3412015E+000	3,562746694983088E-002	1,000000000000000E+000	-2,2228494E-002	41	8,3411083E-005
2	1	0	1	0	2,119821440677852E+005	2,3644667E+000	2,3652315E+000	3,458092418946573E-002	1,000000000000000E+000	-2,1169018E-002	41	8,1791892E-005
2	1	0	1	0	2,120121389724801E+005	2,3884628E+000	2,3891883E+000	3,368316496083212E-002	1,000000000000000E+000	-2,0138780E-002	41	8,0475424E-005
2	1	0	1	0	2,120421336771729E+005	2,4124584E+000	2,4132218E+000	3,302712067427577E-002	1,000000000000000E+000	-1,9131796E-002	41	7,9701771E-005
2	1	0	1	0	2,120721283818649E+005	2,4364543E+000	2,4371955E+000	3,236710757647332E-002	1,000000000000000E+000	-1,8144058E-002	41	7,8884972E-005
2	1	0	1	0	2,121021232865592E+005	2,4604499E+000	2,4612401E+000	3,156115615649069E-002	1,000000000000000E+000	-1,7178299E-002	41	7,7679579E-005
2	1	0	1	0	2,121321179912523E+005	2,4844458E+000	2,4852431E+000	3,076137511280064E-002	1,000000000000000E+000	-1,6237717E-002	41	7,6449498E-005
2	1	0	1	0	2,121621126959438E+005	2,5084417E+000	2,5092249E+000	3,001624693760030E-002	1,000000000000000E+000	-1,5320337E-002	41	7,5317512E-005
2	1	0	1	0	2,121921075006382E+005	2,5324373E+000	2,5332496E+000	2,940908556306976E-002	1,000000000000000E+000	-1,4422033E-002	41	7,4500553E-005
2	1	0	1	0	2,122221023053313E+005	2,5564334E+000	2,5572116E+000	2,880912833895841E-002	1,000000000000000E+000	-1,3541734E-002	41	7,3671035E-005
2	1	0	1	0	2,122520970100230E+005	2,5804288E+000	2,5812404E+000	2,823195660949196E-002	1,000000000000000E+000	-1,2679962E-002	41	7,2873467E-005
2	1	0	1	0	2,122820918147175E+005	2,6044247E+000	2,6052194E+000	2,798976441440382E-002	1,000000000000000E+000	-1,1831316E-002	41	7,2919480E-005
2	1	0	1	0	2,123120867194105E+005	2,6284208E+000	2,6292233E+000	2,797800645492510E-002	1,000000000000000E+000	-1,0985324E-002	41	7,3560426E-005
2	1	0	1	0	2,123420812241018E+005	2,6524160E+000	2,6531813E+000	2,757789639047681E-002	1,000000000000000E+000	-1,0144061E-002	41	7,3169162E-005
2	1	0	1	0	2,123720761287962E+005	2,6764119E+000	2,6771920E+000	2,687176435661687E-002	1,000000000000000E+000	-9,3205245E-003	41	7,1940871E-005
2	1	0	1	0	2,124020710334894E+005	2,7004080E+000	2,7011857E+000	2,631997290123836E-002	1,000000000000000E+000	-8,5167550E-003	41	7,1095135E-005
2	1	0	1	0	2,124320657381809E+005	2,7244039E+000	2,7252197E+000	2,591306900484997E-002	1,000000000000000E+000	-7,7274484E-003	41	7,0618808E-005
2	1	0	1	0	2,124620604428756E+005	2,7483995E+000	2,7491870E+000	2,567881039586578E-002	1,000000000000000E+000	-6,9473535E-003	41	7,0595852E-005
2	1	0	1	0	2,124920553475684E+005	2,7723954E+000	2,7732227E+000	2,564761617189250E-002	1,000000000000000E+000	-6,1711478E-003	41	7,1126553E-005
2	1	0	1	0	2,125220499522605E+005	2,7963910E+000	2,7971969E+000	2,578385114434872E-002	1,000000000000000E+000	-5,3934897E-003	41	7,2122508E-005
2	1	0	1	0	2,125520446569549E+005	2,8203869E+000	2,8212125E+000	2,608482976845200E-002	1,000000000000000E+000	-4,6085319E-003	41	7,3590847E-005
2	1	0	1	0	2,125820395616475E+005	2,8443828E+000	2,8452003E+000	2,631799454094852E-002	1,000000000000000E+000	-3,8151117E-003	41	7,4879965E-005
2	1	0	1	0	2,126120342663396E+005	2,8683786E+000	2,8691733E+000	2,624688338255041E-002	1,000000000000000E+000	-3,0201070E-003	41	7,5306860E-005
2	1	0	1	0	2,126420290710339E+005	2,8923743E+000	2,8931737E+000	2,601472426276719E-002	1,000000000000000E+000	-2,2307653E-003	41	7,5265118E-005
2	1	0	1	0	2,126720238757269E+005	2,9163702E+000	2,9172051E+000	2,581685073342771E-002	1,000000000000000E+000	-1,4473714E-003	41	7,5313052E-005
2	1	0	1	0	2,127020187804184E+005	2,9403660E+000	2,9411466E+000	2,573197637474117E-002	1,000000000000000E+000	-6,6768000E-004	41	7,5681513E-005
2	1	0	1	0	2,127320132851133E+005	2,9643617E+000	2,9651754E+000	2,578646191004436E-002	1,000000000000000E+000	1,1146886E-004	41	7,6461380E-005
2	1	0	1	0	2,127620081898058E+005	2,9883575E+000	2,9891803E+000	2,596252480580413E-002	1,000000000000000E+000	8,9338154E-004	41	7,7606666E-005
2	1	0	1	1	2,127897534941451E+005	2,9894571E+000	2,9902735E+000	1,598675362950968E-002	1,000000000000000E+000	1,5172047E-003	41	4,7804766E-005
2	1	0	1	1	2,128197482988398E+005	2,9654617E+000	2,9662790E+000	1,063017259226764E-002	1,000000000000000E+000	1,8998766E-003	41	3,1532058E-005
2	1	0	1	1	2,128497432035329E+005	2,9414654E+000	2,9422870E+000	7,584289433200525E-003	1,000000000000000E+000	2,1633471E-003	41	2,2315156E-005
2	1	0	1	1	2,128797379082243E+005	2,9174700E+000	2,9183013E+000	5,547085329334792E-003	1,000000000000000E+000	2,3528039E-003	41	1,6188067E-005
2	1	0	1	1	2,129097326129189E+005	2,8934741E+000	2,8942695E+000	4,027006635977555E-003	1,000000000000000E+000	2,4889640E-003	42	1,1655242E-005
2	1	0	1	1	2,129397275176123E+005	2,8694780E+000	2,8702819E+000	2,823249163225836E-003	1,000000000000000E+000	2,5849291E-003	42	8,1035214E-006
2	1	0	1	1	2,129697222223037E+005	2,8454826E+000	2,8462949E+000	1,835249221150893E-003	1,000000000000000E+000	2,6479175E-003	42	5,2236605E-006
2	1	0	1	1	2,129997169269983E+005	2,8214867E+000	2,8223164E+000	9,848113819621029E-004	1,000000000000000E+000	2,6836833E-003	42	2,7794492E-006
2	1	0	1	1	2,130297117316914E+005	2,7974908E+000	2,7983298E+000	3,465147752693345E-004	1,000000000000000E+000	2,6975498E-003	42	9,6966266E-007
2	0	0	1	1	2,130597064363828E+005	2,7734952E+000	2,7743430E+000	-1,895177748337654E-004	1,000000000000000E+000	2,6940466E-003	42	-5,2578730E-007
2	0	0	1	1	2,130897011410773E+005	2,7494991E+000	2,7503314E+000	-6,763717293447481E-004	1,000000000000000E+000	2,6752399E-003	42	-1,8602464E-006
2	0	0	1	1	2,131196957457704E+005	2,7255034E+000	2,7263732E+000	-1,151648796260771E-003	1,000000000000000E+000	2,6420150E-003	42	-3,1398245E-006
2	0	0	1	1	2,131496905504623E+005	2,7015073E+000	2,7023551E+000	-1,629630066374604E-003	1,000000000000000E+000	2,5947776E-003	42	-4,4038393E-006
2	0	0	1	1	2,131796851551568E+005	2,6775117E+000	2,6783795E+000	-2,149260739495021E-003	1,000000000000000E+000	2,5328295E-003	42	-5,7565358E-006
2	0	0	1	1	2,132096799598495E+005	2,6535161E+000	2,6543825E+000	-2,804168757534684E-003	1,000000000000000E+000	2,4537975E-003	42	-7,4433365E-006
2	0	0	1	1	2,132396748645408E+005	2,6295202E+000	2,6303992E+000	-3,646842173333414E-003	1,000000000000000E+000	2,3522815E-003	42	-9,5926507E-006
2	0	0	1	1	2,132696695692355E+005	2,6055245E+000	2,6064203E+000	-4,329317857138387E-003	1,000000000000000E+000	2,2256586E-003	42	-1,1284022E-005
2	0	0	1	1	2,132996642739279E+005	2,5815289E+000	2,5823886E+000	-4,552787819244897E-003	1,000000000000000E+000	2,0858312E-003	42	-1,1757067E-005
2	0	0	1	1	2,133296588786202E+005	2,5575330E+000	2,5584052E+000	-4,746735656395266E-003	1,000000000000000E+000	1,9415953E-003	42	-1,2144073E-005
2	0	0	1	1	2,133596536833148E+005	2,5335369E+000	2,5344326E+000	-5,161933716241150E-003	1,000000000000000E+000	1,7883836E-003	42	-1,3082574E-005
2	0	0	1	1	2,133896482880078E+005	2,5095415E+000	2,5104651E+000	-5,636210417641979E-003	1,000000000000000E+000	1,6218820E-003	42	-1,4149510E-005
2	0	0	1	1	2,134196431926999E+005	2,4855454E+000	2,4864264E+000	-6,081858548032525E-003	1,000000000000000E+000	1,4411634E-003	42	-1,5122093E-005
2	0	0	1	1	2,134496379973942E+005	2,4615495E+000	2,4624560E+000	-6,520017176701462E-003	1,000000000000000E+000	1,2461629E-003	42	-1,6055255E-005
2	0	0	1	1	2,134796326020868E+005	2,4375541E+000	2,4384556E+000	-6,992124638781821E-003	1,000000000000000E+000	1,0370614E-003	42	-1,7049986E-005
2	0	0	1	1	2,135096274067790E+005	2,4135582E+000	2,4144244E+000	-7,342784919306206E-003	1,000000000000000E+000	8,1569841E-004	42	-1,7728598E-005
2	0	0	1	1	2,135396220114734E+005	2,3895619E+000	2,3904347E+000	-7,560987149986931E-003	1,000000000000000E+000	5,8628857E-004	42	-1,8074046E-005
2	0	0	1	1	2,135696167161656E+005	2,3655670E+000	2,3664732E+000	-7,829754779682715E-003	1,000000000000000E+000	3,5029204E-004	42	-1,8528905E-005
2	0	0	1	1	2,135996114208582E+005	2,3415706E+000	2,3424799E+000	-8,093093923268846E-003	1,000000000000000E+000	1,0601604E-004	42	-1,8957910E-005
2	0	0	1	1	2,136296063255526E+005	2,3175747E+000	2,3184688E+000	-8,489598883004462E-003	1,000000000000000E+000	-1,4777969E-004	42	-1,9682870E-005
2	0	0	1	1	2,136596009302447E+005	2,2935793E+000	2,2944810E+000	-8,823245581081940E-003	1,000000000000000E+000	-4,1277183E-004	42	-2,0244770E-005
2	0	0	1	1	2,136895957349373E+005	2,2695832E+000	2,2704911E+000	-9,304284714125310E-003	1,000000000000000E+000	-6,9015415E-004	42	-2,1125295E-005
2	0	0	1	1	2,137178406393577E+005	2,2469871E+000	2,2478027E+000	-9,686615856579622E-003	2,000000000000000E+000	-9,6397835E-004	41	-2,1773601E-005
2	0	0	1	1	2,137478354440499E+005	2,2229915E+000	2,2237985E+000	-1,022730096146431E-002	2,000000000000000E+000	-1,2691269E-003	41	-2,2743458E-005
2	0	0	1	1	2,137778300487424E+005	2,1989956E+000	2,1997862E+000	-1,085584767953490E-002	2,000000000000000E+000	-1,5916543E-003	41	-2,3880544E-005
2	0	0	1	1	2,138078248534370E+005	2,1749997E+000	2,1758177E+000	-1,155298105400609E-002	2,000000000000000E+000	-1,9328877E-003	41	-2,5137180E-005
2	0	0	1	1	2,138378197581288E+005	2,1510041E+000	2,1518416E+000	-1,223051980592060E-002	2,000000000000000E+000	-2,2949835E-003	41	-2,6318141E-005
2	0	0	1	1	2,138678144628217E+005	2,1270084E+000	2,1277995E+000	-1,303787904952481E-002	2,000000000000000E+000	-2,6798099E-003	41	-2,7741993E-005
2	0	0	1	1	2,138978091675162E+005	2,1030126E+000	2,1038158E+000	-1,387048800971098E-002	2,000000000000000E+000	-3,0894962E-003	41	-2,9180952E-005
2	0	0	1	1	2,139278038722081E+005	2,0790167E+000	2,0798018E+000	-1,484249629727531E-002	2,000000000000000E+000	-3,5259803E-003	41	-3,0869451E-005
2	0	0	1	1	2,139577985769007E+005	2,0550208E+000	2,0558255E+000	-1,587629162730772E-002	2,000000000000000E+000	-3,9922032E-003	41	-3,2638884E-005
2	0	0	1	1	2,139877932815955E+005	2,0310249E+000	2,0318058E+000	-1,697203945501430E-002	2,000000000000000E+000	-4,4906293E-003	41	-3,4483888E-005
2	0	0	1	1	2,140177880862872E+005	2,0070295E+000	2,0078137E+000	-1,821230619516950E-002	2,000000000000000E+000	-5,0240760E-003	41	-3,6566918E-005
2	0	0	1	1	2,140477828909800E+005	1,9830334E+000	1,9838588E+000	-1,951265273723846E-002	2,000000000000000E+000	-5,5953069E-003	41	-3,8710350E-005
2	0	0	1	1	2,140777775956746E+005	1,9590380E+000	1,9598638E+000	-2,079275752095255E-002	2,000000000000000E+000	-6,2053804E-003	41	-4,0750972E-005
2	0	0	1	1	2,141077724003661E+005	1,9350420E+000	1,9358571E+000	-2,208955200777872E-002	2,000000000000000E+000	-6,8546967E-003	41	-4,2762214E-005
2	0	0	1	1	2,141377671050592E+005	1,9110464E+000	1,9118580E+000	-2,360521757294215E-002	2,000000000000000E+000	-7,5458745E-003	41	-4,5129822E-005
2	0	0	1	1	2,141677619097540E+005	1,8870503E+000	1,8878496E+000	-2,539035080006014E-002	2,000000000000000E+000	-8,2858521E-003	41	-4,7933161E-005
2	0	0	1	1	2,141977567144451E+005	1,8630545E+000	1,8638462E+000	-2,735334480067378E-002	2,000000000000000E+000	-9,0825232E-003	41	-5,0982428E-005
2	0	0	1	1	2,142277513191380E+005	1,8390588E+000	1,8398782E+000	-2,970087820274592E-002	2,000000000000000E+000	-9,9438438E-003	41	-5,4646000E-005
2	0	0	1	1	2,142577461238329E+005	1,8150628E+000	1,8158623E+000	-3,245268014348043E-002	2,000000000000000E+000	-1,0881525E-002	41	-5,8929600E-005
2	0	0	1	1	2,142877409285242E+005	1,7910670E+000	1,7918915E+000	-3,576820634064815E-002	2,000000000000000E+000	-1,1909277E-002	41	-6,4092746E-005
2	0	0	1	1	2,143177356332173E+005	1,7670715E+000	1,7678765E+000	-3,964189055681627E-002	2,000000000000000E+000	-1,3044553E-002	41	-7,0081966E-005
2	0	0	1	1	2,143477303379122E+005	1,7430757E+000	1,7439126E+000	-4,425510732393051E-002	2,000000000000000E+000	-1,4307425E-002	41	-7,7177036E-005
2	0	0	1	1	2,143777251426033E+005	1,7190796E+000	1,7199380E+000	-4,971967983432080E-002	2,000000000000000E+000	-1,5721601E-002	41	-8,5514766E-005
2	0	0	1	1	2,144077198472962E+005	1,6950841E+000	1,6959199E+000	-5,616752600863273E-002	2,000000000000000E+000	-1,7314406E-002	41	-9,5255622E-005
2	0	0	1	1	2,144377146519911E+005	1,6710881E+000	1,6719342E+000	-6,370383243109456E-002	2,000000000000000E+000	-1,9115927E-002	41	-1,0650862E-004
2	0	0	1	1	2,144677094566822E+005	1,6470923E+000	1,6479594E+000	-7,240827051162912E-002	2,000000000000000E+000	-2,1160195E-002	41	-1,1932589E-004
2	0	0	1	1	2,144977041613755E+005	1,6230968E+000	1,6240044E+000	-8,272520975946596E-002	2,000000000000000E+000	-2,3489082E-002	41	-1,3434610E-004
2	0	0	1	1	2,145276989660705E+005	1,5991006E+000	1,6000090E+000	-9,504843537422358E-002	2,000000000000000E+000	-2,6156057E-002	41	-1,5207836E-004
2	0	0	1	1	2,145576937707616E+005	1,5751048E+000	1,5758826E+000	-1,101807583063365E-001	2,000000000000000E+000	-2,9232044E-002	40	-1,7363194E-004
2	0	0	1	1	2,145876883754547E+005	1,5511091E+000	1,5519382E+000	-1,296961396985110E-001	2,000000000000000E+000	-3,2824896E-002	40	-2,0128039E-004
2	0	0	1	1	2,146176831801496E+005	1,5271134E+000	1,5279404E+000	-1,573670542918237E-001	2,000000000000000E+000	-3,7109673E-002	40	-2,4044748E-004
2	0	0	1	1	2,146476779848402E+005	1,5031176E+000	1,5039500E+000	-1,939495914062619E-001	2,000000000000000E+000	-4,2390294E-002	40	-2,9169049E-004
2	0	0	1	1	2,146776726895335E+005	1,4791218E+000	1,4799428E+000	-2,192823976319143E-001	2,000000000000000E+000	-4,8634943E-002	40	-3,2452540E-004
2	0	0	1	1	2,147076674942281E+005	1,4551260E+000	1,4559146E+000	-2,312683995639424E-001	2,000000000000000E+000	-5,5426490E-002	40	-3,3670705E-004
2	0	0	1	1	2,147376621989193E+005	1,4311301E+000	1,4319489E+000	-2,351975643374171E-001	2,000000000000000E+000	-6,2443439E-002	40	-3,3679089E-004
2	0	0	1	1	2,147676569036128E+005	1,4071344E+000	1,4079649E+000	-2,350221685295919E-001	2,000000000000000E+000	-6,9507077E-002	40	-3,3090299E-004
2	0	0	1	1	2,147976517083072E+005	1,3831387E+000	1,3839605E+000	-2,329987797033137E-001	2,000000000000000E+000	-7,6535739E-002	40	-3,2246110E-004
2	0	0	1	1	2,148276465129983E+005	1,3591428E+000	1,3599255E+000	-2,308519905655346E-001	2,000000000000000E+000	-8,3497219E-002	40	-3,1394151E-004
2	0	0	1	1	2,148576412176921E+005	1,3351470E+000	1,3359671E+000	-2,280884282920805E-001	2,000000000000000E+000	-9,0392925E-002	40	-3,0471862E-004
2	0	0	1	1	2,148876360223866E+005	1,3111510E+000	1,3119787E+000	-2,226535984276815E-001	2,000000000000000E+000	-9,7165644E-002	40	-2,9211678E-004
2	0	0	1	1	2,149176306270775E+005	1,2871555E+000	1,2879686E+000	-2,161353169951203E-001	2,000000000000000E+000	-1,0375525E-001	40	-2,7837552E-004
2	0	0	1	1	2,149476254317711E+005	1,2631596E+000	1,2639554E+000	-2,094921913587691E-001	2,000000000000000E+000	-1,1014501E-001	40	-2,6478877E-004
2	0	0	1	1	2,149776201364654E+005	1,2391639E+000	1,2399452E+000	-2,034638685004246E-001	2,000000000000000E+000	-1,1634236E-001	40	-2,5228405E-004
2	0	0	1	1	2,150076149411565E+005	1,2151682E+000	1,2160020E+000	-1,977885776110089E-001	2,000000000000000E+000	-1,2236521E-001	40	-2,4051130E-004
2	0	0	1	1	2,150376096458503E+005	1,1911721E+000	1,1919615E+000	-1,927126778212399E-001	2,000000000000000E+000	-1,2822615E-001	40	-2,2970610E-004
2	0	0	1	1	2,150676044505448E+005	1,1671765E+000	1,1679939E+000	-1,881640719452496E-001	2,000000000000000E+000	-1,3394274E-001	40	-2,1977449E-004
2	0	0	1	1	2,150975992552354E+005	1,1431805E+000	1,1439838E+000	-1,842936423560756E-001	2,000000000000000E+000	-1,3953310E-001	40	-2,1082895E-004
2	0	0	1	1	2,151275938599290E+005	1,1191850E+000	1,1199793E+000	-1,811062390581581E-001	2,000000000000000E+000	-1,4501689E-001	40	-2,0283523E-004
2	0	0	1	1	2,151575886646234E+005	1,0951891E+000	1,0959818E+000	-1,783025477187801E-001	2,000000000000000E+000	-1,5041089E-001	40	-1,9541636E-004
2	0	0	1	1	2,151875834693145E+005	1,0711931E+000	1,0720274E+000	-1,761303930702689E-001	2,000000000000000E+000	-1,5573101E-001	40	-1,8881662E-004
2	0	0	1	1	2,152175782740084E+005	1,0471975E+000	1,0480046E+000	-1,748575726119950E-001	2,000000000000000E+000	-1,6099966E-001	40	-1,8325154E-004
2	0	0	1	1	2,152475728787025E+005	1,0232017E+000	1,0240158E+000	-1,742074838421637E-001	2,000000000000000E+000	-1,6623889E-001	40	-1,7839122E-004
2	0	0	1	1	2,152766310832473E+005	9,9995601E-001	1,0007901E+000	-1,742361128330234E-001	2,000000000000000E+000	-1,7130704E-001	40	-1,7437378E-004
2	0	0	1	1	2,153060634878529E+005	1,0235016E+000	1,0242933E+000	-1,327467254342294E-001	2,000000000000000E+000	-1,7563541E-001	40	-1,3597158E-004
2	0	0	1	1	2,153360582925477E+005	1,0474974E+000	1,0482620E+000	-1,146931586202609E-001	2,000000000000000E+000	-1,7932081E-001	40	-1,2022848E-004
2	0	0	1	1	2,153660530972388E+005	1,0714931E+000	1,0722922E+000	-1,019205448569562E-001	2,000000000000000E+000	-1,8255457E-001	40	-1,0928861E-004
2	0	0	1	1	2,153960478019319E+005	1,0954890E+000	1,0962744E+000	-9,210143500841972E-002	2,000000000000000E+000	-1,8545535E-001	40	-1,0096844E-004
2	0	0	1	1	2,154260425066268E+005	1,1194847E+000	1,1202626E+000	-8,409651360742555E-002	2,000000000000000E+000	-1,8808980E-001	40	-9,4210183E-005
2	0	0	1	1	2,154560373113179E+005	1,1434807E+000	1,1442391E+000	-7,723570356488874E-002	2,000000000000000E+000	-1,9050185E-001	40	-8,8376109E-005
2	0	0	1	1	2,154860321160111E+005	1,1674764E+000	1,1682754E+000	-7,115418934913742E-002	2,000000000000000E+000	-1,9272043E-001	40	-8,3127685E-005
2	0	0	1	1	2,155160269207060E+005	1,1914722E+000	1,1922404E+000	-6,579442310615458E-002	2,000000000000000E+000	-1,9476846E-001	40	-7,8442768E-005
2	0	0	1	1	2,155460215253965E+005	1,2154679E+000	1,2162743E+000	-6,086357211198412E-002	2,000000000000000E+000	-1,9666171E-001	40	-7,4026793E-005
2	0	0	1	1	2,155760163300899E+005	1,2394638E+000	1,2402433E+000	-5,634844000033595E-002	2,000000000000000E+000	-1,9841374E-001	40	-6,9885777E-005
2	0	0	1	1	2,156060111347847E+005	1,2634597E+000	1,2642400E+000	-5,207282338244462E-002	2,000000000000000E+000	-2,0003445E-001	40	-6,5832544E-005
2	0	0	1	1	2,156360058394754E+005	1,2874553E+000	1,2882680E+000	-4,835014943674587E-002	2,000000000000000E+000	-2,0153248E-001	41	-6,2287952E-005
2	0	0	1	1	2,156660007441691E+005	1,3114512E+000	1,3122761E+000	-4,446301917582063E-002	2,000000000000000E+000	-2,0291959E-001	41	-5,8347759E-005
2	0	0	1	1	2,156959954488636E+005	1,3354468E+000	1,3362408E+000	-4,058214395758419E-002	2,000000000000000E+000	-2,0419081E-001	41	-5,4227516E-005
2	0	0	1	1	2,157259902535547E+005	1,3594429E+000	1,3602558E+000	-3,670315848359051E-002	2,000000000000000E+000	-2,0534557E-001	41	-4,9925686E-005
2	0	0	1	1	2,157559849582484E+005	1,3834386E+000	1,3842422E+000	-3,269283455611120E-002	2,000000000000000E+000	-2,0638177E-001	41	-4,5254801E-005
2	0	0	1	1	2,157859797629430E+005	1,4074343E+000	1,4082106E+000	-2,839249777021557E-002	2,000000000000000E+000	-2,0729344E-001	41	-3,9982617E-005
2	0	0	1	1	2,158159745676341E+005	1,4314301E+000	1,4322075E+000	-2,362982662583057E-002	2,000000000000000E+000	-2,0806967E-001	41	-3,3842814E-005
2	0	0	1	1	2,158459693723274E+005	1,4554259E+000	1,4561878E+000	-1,826045407116272E-002	2,000000000000000E+000	-2,0869493E-001	41	-2,6590651E-005
2	0	0	1	1	2,158759641770222E+005	1,4794219E+000	1,4801931E+000	-1,200327851366387E-002	2,000000000000000E+000	-2,0914628E-001	41	-1,7767170E-005
2	0	0	1	1	2,159059588817130E+005	1,5034175E+000	1,5042354E+000	-4,459738002765612E-003	2,000000000000000E+000	-2,0939207E-001	42	-6,7084957E-006
2	1	0	1	1	2,159360785864262E+005	1,5275133E+000	1,5282565E+000	4,797607138956623E-003	2,000000000000000E+000	-2,0938760E-001	42	7,3319743E-006
2	1	0	1	1	2,159660733911209E+005	1,5515093E+000	1,5522543E+000	1,672939781395226E-002	2,000000000000000E+000	-2,0906667E-001	41	2,5968280E-005
2	1	0	1	1	2,159960681958115E+005	1,5755049E+000	1,5762143E+000	3,200618194064868E-002	2,000000000000000E+000	-2,0834354E-001	41	5,0448602E-005
2	1	0	1	1	2,160260629005050E+005	1,5995007E+000	1,6001991E+000	6,232311403689450E-002	2,000000000000000E+000	-2,0699620E-001	41	9,9729390E-005
2	1	0	1	1	2,160560577051993E+005	1,6234964E+000	1,6242485E+000	1,204199025456605E-001	2,000000000000000E+000	-2,0430070E-001	40	1,9559184E-004
2	1	0	1	1	2,160860525098904E+005	1,6474923E+000	1,6482160E+000	1,904171908014214E-001	2,000000000000000E+000	-1,9964923E-001	40	3,1384866E-004
2	1	0	1	1	2,161160473145842E+005	1,6714882E+000	1,6722001E+000	2,642919493927223E-001	2,000000000000000E+000	-1,9282614E-001	40	4,4194903E-004
2	1	0	1	1	2,161460420192787E+005	1,6954838E+000	1,6962147E+000	3,373311288210035E-001	2,000000000000000E+000	-1,8378823E-001	40	5,7218602E-004
2	1	0	1	1	2,161760368239698E+005	1,7194797E+000	1,7201462E+000	4,038841663050454E-001	2,000000000000000E+000	-1,7264305E-001	40	6,9473981E-004
2	1	0	1	1	2,162060316286636E+005	1,7434754E+000	1,7441700E+000	4,579733439500213E-001	2,000000000000000E+000	-1,5966956E-001	40	7,9878332E-004
2	1	0	1	1	2,162360263333577E+005	1,7674714E+000	1,7681459E+000	4,933390568988107E-001	2,000000000000000E+000	-1,4534156E-001	40	8,7229547E-004
2	1	0	1	1	2,162660212380490E+005	1,7914668E+000	1,7921305E+000	5,053804515716629E-001	2,000000000000000E+000	-1,3028894E-001	40	9,0570771E-004
2	1	0	1	1	2,162960159427426E+005	1,8154631E+000	1,8161215E+000	4,915380135790990E-001	2,000000000000000E+000	-1,1526357E-001	40	8,9269271E-004
2	1	0	1	1	2,163260107474369E+005	1,8394588E+000	1,8401469E+000	4,529415790976490E-001	2,000000000000000E+000	-1,0103941E-001	40	8,3347905E-004
2	1	0	1	1	2,163560054521281E+005	1,8634545E+000	1,8641455E+000	3,971913819925632E-001	2,000000000000000E+000	-8,8252574E-002	40	7,4042252E-004
2	1	0	1	1	2,163860002568217E+005	1,8874502E+000	1,8881468E+000	3,347480860951308E-001	2,000000000000000E+000	-7,7268399E-002	40	6,3205353E-004
2	1	0	1	1	2,164159949615160E+005	1,9114460E+000	1,9121695E+000	2,746761978138865E-001	2,000000000000000E+000	-6,8133347E-002	40	5,2522746E-004
2	1	0	1	1	2,164459898662069E+005	1,9354419E+000	1,9362198E+000	2,205122806925477E-001	2,000000000000000E+000	-6,0720146E-002	40	4,2696024E-004
2	1	0	1	1	2,164759846709005E+005	1,9594376E+000	1,9602069E+000	1,759661226022824E-001	2,000000000000000E+000	-5,4793604E-002	40	3,4493001E-004
2	1	0	1	1	2,165059794755951E+005	1,9834336E+000	1,9841830E+000	1,416711407024720E-001	2,000000000000000E+000	-5,0049160E-002	40	2,8110147E-004
2	1	0	1	1	2,165359742802861E+005	2,0074294E+000	2,0081758E+000	1,164038085053558E-001	2,000000000000000E+000	-4,6190195E-002	40	2,3375932E-004
2	1	0	1	1	2,165659689849797E+005	2,0314250E+000	2,0321753E+000	9,778024995443119E-002	2,000000000000000E+000	-4,2985316E-002	40	1,9870661E-004
2	1	0	1	1	2,165959636896742E+005	2,0554209E+000	2,0561767E+000	8,396484839288265E-002	2,000000000000000E+000	-4,0262472E-002	40	1,7264656E-004
2	1	0	1	1	2,166259584943652E+005	2,0794168E+000	2,0801783E+000	7,344921473703336E-002	2,000000000000000E+000	-3,7902474E-002	40	1,5278746E-004
2	1	0	1	1	2,166559534990591E+005	2,1034124E+000	2,1041951E+000	6,531660812806717E-002	2,000000000000000E+000	-3,5819761E-002	40	1,3743888E-004
2	1	0	1	1	2,166859480037531E+005	2,1274083E+000	2,1281865E+000	5,905097597281084E-002	2,000000000000000E+000	-3,3951741E-002	40	1,2567149E-004
2	1	0	1	1	2,167159429084444E+005	2,1514041E+000	2,1521769E+000	5,417025371555556E-002	2,000000000000000E+000	-3,2249834E-002	40	1,1658396E-004
2	1	0	1	1	2,167459377131381E+005	2,1753998E+000	2,1761601E+000	5,022701504503202E-002	2,000000000000000E+000	-3,0680129E-002	40	1,0930203E-004
2	1	0	1	1	2,167760574178519E+005	2,1994956E+000	2,2002256E+000	4,666884912656227E-002	2,000000000000000E+000	-2,9214503E-002	41	1,0268200E-004
2	1	0	1	1	2,168060521225431E+005	2,2234917E+000	2,2242029E+000	4,396858547020910E-002	2,000000000000000E+000	-2,7849095E-002	41	9,7795055E-005
2	1	0	1	1	2,168360468272369E+005	2,2474873E+000	2,2482319E+000	4,160697755643413E-002	2,000000000000000E+000	-2,6559066E-002	41	9,3542134E-005
2	1	0	1	1	2,168660417319313E+005	2,2714829E+000	2,2722313E+000	3,972270779462611E-002	2,000000000000000E+000	-2,5332706E-002	41	9,0259178E-005
2	1	0	1	1	2,168960366366222E+005	2,2954788E+000	2,2962379E+000	3,805656660863210E-002	2,000000000000000E+000	-2,4159752E-002	41	8,7386936E-005
2	1	0	1	1	2,169260311413156E+005	2,3194742E+000	2,3202195E+000	3,670293171297007E-002	2,000000000000000E+000	-2,3032477E-002	41	8,5158856E-005
2	1	0	1	1	2,169560260460097E+005	2,3434706E+000	2,3442216E+000	3,547025732453080E-002	2,000000000000000E+000	-2,1943903E-002	41	8,3150146E-005
2	1	0	1	1	2,169860208507008E+005	2,3674662E+000	2,3682241E+000	3,450611949266744E-002	2,000000000000000E+000	-2,0887621E-002	41	8,1718223E-005
2	1	0	1	1	2,170160156553948E+005	2,3914621E+000	2,3922126E+000	3,367983785241280E-002	2,000000000000000E+000	-1,9858746E-002	41	8,0569334E-005
2	1	0	1	1	2,170460103600891E+005	2,4154577E+000	2,4162250E+000	3,305945061932347E-002	2,000000000000000E+000	-1,8850934E-002	41	7,9879072E-005
2	1	0	1	1	2,170760051647802E+005	2,4394536E+000	2,4402092E+000	3,245351709346123E-002	2,000000000000000E+000	-1,7861217E-002	41	7,9193371E-005
2	1	0	1	1	2,171059998694742E+005	2,4634495E+000	2,4642546E+000	3,168001238470808E-002	2,000000000000000E+000	-1,6892275E-002	41	7,8067620E-005
2	1	0	1	1	2,171359945741682E+005	2,4874449E+000	2,4882517E+000	3,086128515480563E-002	2,000000000000000E+000	-1,5947822E-002	41	7,6790646E-005
2	1	0	1	1	2,171659894788591E+005	2,5114410E+000	2,5122273E+000	3,019431431425641E-002	2,000000000000000E+000	-1,5025690E-002	41	7,5854980E-005
2	1	0	1	1	2,171959843835532E+005	2,5354369E+000	2,5362585E+000	2,959753326493986E-002	2,000000000000000E+000	-1,4122840E-002	41	7,5066993E-005
2	1	0	1	1	2,172259788882472E+005	2,5594325E+000	2,5602376E+000	2,897410227095654E-002	2,000000000000000E+000	-1,3238047E-002	41	7,4180585E-005
2	1	0	1	1	2,172559737929385E+005	2,5834284E+000	2,5842278E+000	2,843511370083268E-002	2,000000000000000E+000	-1,2370613E-002	41	7,3482814E-005
2	1	0	1	1	2,172859686976324E+005	2,6074245E+000	2,6082237E+000	2,822954878790562E-002	2,000000000000000E+000	-1,1515401E-002	41	7,3628980E-005
2	1	0	1	1	2,173159632023266E+005	2,6314199E+000	2,6321912E+000	2,820014514273883E-002	2,000000000000000E+000	-1,0662445E-002	41	7,4228170E-005
2	1	0	1	1	2,173459580070176E+005	2,6554158E+000	2,6561828E+000	2,774138165566722E-002	2,000000000000000E+000	-9,8156584E-003	41	7,3686177E-005
2	1	0	1	1	2,173759529117116E+005	2,6794116E+000	2,6801934E+000	2,699259999229450E-002	2,000000000000000E+000	-8,9882333E-003	41	7,2345392E-005
2	1	0	1	1	2,174059476164053E+005	2,7034073E+000	2,7042050E+000	2,647566643754412E-002	2,000000000000000E+000	-8,1799654E-003	41	7,1595634E-005
2	1	0	1	1	2,174359423210961E+005	2,7274032E+000	2,7282093E+000	2,613815721043034E-002	2,000000000000000E+000	-7,3848818E-003	41	7,1310365E-005
2	1	0	1	1	2,174659372257904E+005	2,7513988E+000	2,7521920E+000	2,592552609836538E-002	2,000000000000000E+000	-6,5979226E-003	41	7,1352028E-005
2	1	0	1	1	2,174959319304843E+005	2,7753947E+000	2,7762265E+000	2,586447427783933E-002	2,000000000000000E+000	-5,8154087E-003	41	7,1805640E-005
2	1	0	1	1	2,175259266351755E+005	2,7993906E+000	2,8002417E+000	2,601506798601083E-002	2,000000000000000E+000	-5,0314115E-003	41	7,2848481E-005
2	1	0	1	1	2,175559215398697E+005	2,8233869E+000	2,8242133E+000	2,631988531590576E-002	2,000000000000000E+000	-4,2408695E-003	41	7,4332973E-005
2	1	0	1	1	2,175859163445635E+005	2,8473823E+000	2,8481779E+000	2,643955047276658E-002	2,000000000000000E+000	-3,4425533E-003	41	7,5304546E-005
2	1	0	1	1	2,176159109492544E+005	2,8713779E+000	2,8721960E+000	2,633302053637002E-002	2,000000000000000E+000	-2,6439782E-003	41	7,5633594E-005
2	1	0	1	1	2,176459058539487E+005	2,8953736E+000	2,8961570E+000	2,608232020654049E-002	2,000000000000000E+000	-1,8518125E-003	41	7,5538497E-005
2	1	0	1	1	2,176759006586429E+005	2,9193697E+000	2,9201651E+000	2,593369907458698E-002	2,000000000000000E+000	-1,0655046E-003	41	7,5730684E-005
2	1	0	1	1	2,177058952633338E+005	2,9433651E+000	2,9441676E+000	2,584833628037447E-002	2,000000000000000E+000	-2,8262276E-004	41	7,6101831E-005
2	1	0	1	1	2,177358900680279E+005	2,9673610E+000	2,9681404E+000	2,586534583518635E-002	2,000000000000000E+000	4,9925980E-004	41	7,6771976E-005
2	1	0	1	1	2,177658849727218E+005	2,9913571E+000	2,9921811E+000	2,606532241927922E-002	2,000000000000000E+000	1,2843263E-003	41	7,7992161E-005
2	1	0	1	0	2,177936302770614E+005	2,9864578E+000	2,9872711E+000	1,516820825411092E-002	2,000000000000000E+000	1,8698983E-003	41	4,5311550E-005
2	1	0	1	0	2,178236251817551E+005	2,9624619E+000	2,9633191E+000	1,029318586080819E-002	2,000000000000000E+000	2,2370503E-003	41	3,0501993E-005
2	1	0	1	0	2,178536198864495E+005	2,9384663E+000	2,9393394E+000	7,440591451144396E-003	2,000000000000000E+000	2,4935515E-003	41	2,1870424E-005
2	1	0	1	0	2,178836145911398E+005	2,9144704E+000	2,9153180E+000	5,484065606250720E-003	2,000000000000000E+000	2,6795836E-003	41	1,5987795E-005
2	1	0	1	0	2,179136094958339E+005	2,8904746E+000	2,8912716E+000	4,000018746283626E-003	2,000000000000000E+000	2,8143432E-003	42	1,1565141E-005
2	1	0	1	0	2,179436042005280E+005	2,8664789E+000	2,8672726E+000	2,782356456871095E-003	2,000000000000000E+000	2,9097984E-003	42	7,9777747E-006
2	1	0	1	0	2,179735989052192E+005	2,8424828E+000	2,8433187E+000	1,837422647395552E-003	2,000000000000000E+000	2,9732760E-003	42	5,2243781E-006
2	1	0	1	0	2,180035937099132E+005	2,8184869E+000	2,8193343E+000	1,050399243863756E-003	2,000000000000000E+000	3,0100446E-003	42	2,9614266E-006
2	1	0	1	0	2,180335885146074E+005	2,7944913E+000	2,7953408E+000	4,125612085138538E-004	2,000000000000000E+000	3,0255758E-003	42	1,1532492E-006
2	1	0	1	0	2,180635831192983E+005	2,7704959E+000	2,7713306E+000	-8,910219423776755E-005	2,000000000000000E+000	3,0243124E-003	42	-2,4693165E-007
2	0	0	1	0	2,180935779239922E+005	2,7464995E+000	2,7473166E+000	-6,019634098210006E-004	2,000000000000000E+000	3,0080767E-003	42	-1,6537840E-006
2	0	0	1	0	2,181235725286864E+005	2,7225041E+000	2,7233281E+000	-1,089057814264618E-003	2,000000000000000E+000	2,9769959E-003	42	-2,9658618E-006
2	0	0	1	0	2,181535672333771E+005	2,6985080E+000	2,6993213E+000	-1,577909609590391E-003	2,000000000000000E+000	2,9312607E-003	42	-4,2592851E-006
2	0	0	1	0	2,181835619380714E+005	2,6745124E+000	2,6753936E+000	-2,085017871689188E-003	2,000000000000000E+000	2,8705527E-003	42	-5,5782434E-006
2	0	0	1	0	2,182135568427653E+005	2,6505165E+000	2,6513729E+000	-2,779679649274794E-003	2,000000000000000E+000	2,7919954E-003	42	-7,3699675E-006
2	0	0	1	0	2,182435515474565E+005	2,6265209E+000	2,6273968E+000	-3,634481838548906E-003	2,000000000000000E+000	2,6903711E-003	42	-9,5492260E-006
2	0	0	1	0	2,182735462521507E+005	2,6025250E+000	2,6034100E+000	-4,279555556766373E-003	2,000000000000000E+000	2,5645844E-003	42	-1,1141437E-005
2	0	0	1	0	2,183035411568447E+005	2,5785291E+000	2,5794189E+000	-4,462442531300972E-003	2,000000000000000E+000	2,4269642E-003	42	-1,1510509E-005
2	0	0	1	0	2,183335356615349E+005	2,5545335E+000	2,5553992E+000	-4,691076149824266E-003	2,000000000000000E+000	2,2844356E-003	42	-1,1987572E-005
2	0	0	1	0	2,183635302662294E+005	2,5305381E+000	2,5314507E+000	-5,093232847399209E-003	2,000000000000000E+000	2,1319641E-003	42	-1,2893268E-005
2	0	0	1	0	2,183935251709232E+005	2,5065415E+000	2,5074344E+000	-5,580540411126628E-003	2,000000000000000E+000	1,9659828E-003	42	-1,3992839E-005
2	0	0	1	0	2,184235199756143E+005	2,4825461E+000	2,4834383E+000	-6,059767035683811E-003	2,000000000000000E+000	1,7857221E-003	42	-1,5049057E-005
2	0	0	1	0	2,184535145803088E+005	2,4585502E+000	2,4594302E+000	-6,553375201272586E-003	2,000000000000000E+000	1,5912481E-003	42	-1,6117569E-005
2	0	0	1	0	2,184835093850023E+005	2,4345543E+000	2,4354267E+000	-6,963606605350336E-003	2,000000000000000E+000	1,3826594E-003	42	-1,6959353E-005
2	0	0	1	0	2,185135041896934E+005	2,4105587E+000	2,4114530E+000	-7,327441160535134E-003	2,000000000000000E+000	1,1622905E-003	42	-1,7669779E-005
2	0	0	1	0	2,185434986943877E+005	2,3865628E+000	2,3874528E+000	-7,513253241045792E-003	2,000000000000000E+000	9,3377021E-004	42	-1,7937538E-005
2	0	0	1	0	2,185734933990813E+005	2,3625669E+000	2,3634624E+000	-7,782583644624103E-003	2,000000000000000E+000	6,9841085E-004	42	-1,8393845E-005
2	0	0	1	0	2,186034883037722E+005	2,3385711E+000	2,3394656E+000	-8,105583859743831E-003	2,000000000000000E+000	4,5447695E-004	42	-1,8962735E-005
2	0	0	1	0	2,186334829084669E+005	2,3145754E+000	2,3154438E+000	-8,502077514995543E-003	2,000000000000000E+000	2,0034325E-004	42	-1,9686082E-005
2	0	0	1	0	2,186634777131602E+005	2,2905798E+000	2,2914634E+000	-8,881397148833403E-003	2,000000000000000E+000	-6,5053835E-005	42	-2,0351396E-005
2	0	0	1	0	2,186934725178515E+005	2,2665842E+000	2,2674961E+000	-9,312548847774035E-003	2,000000000000000E+000	-3,4336065E-004	42	-2,1116168E-005
2	0	0	0	0	2,187145752211553E+005	2,2496376E+000	2,2504184E+000	-1,014119699665400E-002	2,000000000000000E+000	-5,4768886E-004	41	-2,2821936E-005