File: Dati/210416_2/CV_LTO-CB_grafite nuova_15 layers__07_CV_C01.mpt
EC-Lab ASCII FILE
Nb header lines : 57

Cyclic Voltammetry

Run on channel : 1 (SN 6806)
User : Seelab
Electrode connection : standard
Ewe ctrl range : min = 0,00 V, max = 5,00 V
Ewe,I filtering : 50 kHz
Safety Limits :
	Do not start on E overload
Channel : Grounded
Acquisition started on : 04/16/2021 18:47:00
Saved on :
	File : CV_LTO-CB_grafite nuova_15 layers__07_CV_C01.mpr
	Directory : C:\Users\labsuperfici\Desktop\Biologic\Users\Prisca Viviani\210416_2\
	Host : 10.78.33.0
Device : VSP-300 (SN 0638)
Address : USB
EC-Lab for windows v11.31 (software)
Internet server v11.30 (firmware)
Command interpretor v11.31 (firmware)
Electrode material :
Initial state :
Electrolyte :
Comments :
Cable : standard
Reference electrode : SCE Saturated Calomel Electrode (0,241 V)
Electrode surface area : 0,001 cm²
Characteristic mass : 0,001 g
Equivalent Weight : 0,000 g/eq.
Density : 0,000 g/cm3
Cycle Definition : Charge/Discharge alternance
Ei (V)              0,000
vs.                 Eoc
dE/dt               0,600
dE/dt unit          mV/s
E1 (V)              1,000
vs.                 Ref
Step percent        50
N                   10
E range min (V)     0,000
E range max (V)     5,000
I Range             Auto
I Range min         Unset
I Range max         Unset
I Range init        Unset
Bandwidth           8
E2 (V)              3,000
vs.                 Ref
nc cycles           1
Reverse Scan        1
Ef (V)              0,000
vs.                 Eoc

mode	ox/red	error	control changes	counter inc.	time/s	control/V	Ewe/V	<I>/mA	cycle number	(Q-Qo)/C	I Range	P/W
2	0	0	1	0	1,839515937820782E+005	2,2496376E+000	2,2504530E+000	-7,344287820160389E-003	1,000000000000000E+000	0,0000000E+000	42	-1,6527974E-005
2	0	0	1	0	1,839908368882188E+005	2,2260909E+000	2,2269719E+000	-7,868691501260169E-003	1,000000000000000E+000	-3,0047898E-004	42	-1,7523354E-005
2	0	0	1	0	1,840308297944756E+005	2,2020953E+000	2,2029746E+000	-8,547260690047992E-003	1,000000000000000E+000	-6,3536572E-004	42	-1,8829398E-005
2	0	0	1	0	1,840708230007342E+005	2,1780989E+000	2,1790264E+000	-9,182248055821005E-003	1,000000000000000E+000	-9,9651713E-004	42	-2,0008361E-005
2	0	0	1	0	1,841108161069893E+005	2,1541035E+000	2,1549010E+000	-9,810983216659349E-003	1,000000000000000E+000	-1,3843551E-003	41	-2,1141697E-005
2	0	0	1	0	1,841508088132492E+005	2,1301076E+000	2,1309178E+000	-1,055282843279655E-002	1,000000000000000E+000	-1,7988166E-003	41	-2,2487209E-005
2	0	0	1	0	1,841908020195044E+005	2,1061118E+000	2,1068954E+000	-1,131349285694955E-002	1,000000000000000E+000	-2,2426825E-003	41	-2,3836346E-005
2	0	0	1	0	1,842307950257630E+005	2,0821161E+000	2,0828981E+000	-1,213564599443373E-002	1,000000000000000E+000	-2,7181611E-003	41	-2,5277315E-005
2	0	0	1	0	1,842707880320200E+005	2,0581203E+000	2,0589190E+000	-1,301258561875723E-002	1,000000000000000E+000	-3,2275149E-003	41	-2,6791859E-005
2	0	0	1	0	1,843107809382772E+005	2,0341246E+000	2,0349188E+000	-1,404079159205382E-002	1,000000000000000E+000	-3,7750541E-003	41	-2,8571871E-005
2	0	0	1	0	1,843507740445347E+005	2,0101285E+000	2,0109122E+000	-1,510003957495796E-002	1,000000000000000E+000	-4,3647210E-003	41	-3,0364854E-005
2	0	0	1	0	1,843907671507918E+005	1,9861332E+000	1,9869465E+000	-1,624689842923618E-002	1,000000000000000E+000	-4,9995543E-003	41	-3,2281718E-005
2	0	0	1	0	1,844307601570506E+005	1,9621372E+000	1,9629389E+000	-1,735371563275723E-002	1,000000000000000E+000	-5,6796516E-003	41	-3,4064284E-005
2	0	0	1	0	1,844707531633060E+005	1,9381416E+000	1,9389340E+000	-1,853267244319734E-002	1,000000000000000E+000	-6,4050388E-003	41	-3,5933626E-005
2	0	0	1	0	1,845107462695658E+005	1,9141455E+000	1,9149513E+000	-1,987822554182198E-002	1,000000000000000E+000	-7,1800957E-003	41	-3,8065835E-005
2	0	0	1	0	1,845507390758204E+005	1,8901498E+000	1,8909541E+000	-2,146471215913781E-002	1,000000000000000E+000	-8,0128470E-003	41	-4,0588788E-005
2	0	0	1	0	1,845907321820795E+005	1,8661540E+000	1,8669345E+000	-2,318784978467833E-002	1,000000000000000E+000	-8,9112893E-003	41	-4,3290198E-005
2	0	0	1	0	1,846307252883362E+005	1,8421580E+000	1,8429568E+000	-2,515412297228376E-002	1,000000000000000E+000	-9,8834168E-003	41	-4,6357960E-005
2	0	0	1	0	1,846707181945940E+005	1,8181626E+000	1,8189729E+000	-2,750826351079361E-002	1,000000000000000E+000	-1,0942809E-002	41	-5,0036786E-005
2	0	0	1	0	1,847107113008513E+005	1,7941663E+000	1,7949376E+000	-3,039668793535621E-002	1,000000000000000E+000	-1,2107723E-002	41	-5,4560158E-005
2	0	0	1	0	1,847507042071086E+005	1,7701709E+000	1,7709088E+000	-3,381759255809338E-002	1,000000000000000E+000	-1,3397896E-002	41	-5,9887872E-005
2	0	0	1	0	1,847906972133666E+005	1,7461752E+000	1,7469441E+000	-3,784111564341275E-002	1,000000000000000E+000	-1,4836470E-002	41	-6,6106310E-005
2	0	0	1	0	1,848306903196222E+005	1,7221791E+000	1,7230004E+000	-4,254219323110869E-002	1,000000000000000E+000	-1,6448919E-002	41	-7,3300216E-005
2	0	0	1	0	1,848706833258821E+005	1,6981834E+000	1,6990064E+000	-4,799913750255635E-002	1,000000000000000E+000	-1,8265616E-002	41	-8,1550847E-005
2	0	0	1	0	1,849106763321366E+005	1,6741875E+000	1,6749952E+000	-5,441044119215022E-002	1,000000000000000E+000	-2,0319642E-002	41	-9,1137226E-005
2	0	0	1	0	1,849506694383961E+005	1,6501919E+000	1,6509863E+000	-6,176669895197679E-002	1,000000000000000E+000	-2,2648025E-002	41	-1,0197597E-004
2	0	0	1	0	1,849906623446522E+005	1,6261959E+000	1,6270334E+000	-7,024505607185694E-002	1,000000000000000E+000	-2,5291981E-002	41	-1,1429105E-004
2	0	0	1	0	1,850306554509103E+005	1,6022003E+000	1,6030515E+000	-8,051915368365237E-002	1,000000000000000E+000	-2,8307103E-002	41	-1,2907635E-004
2	0	0	1	0	1,850706484571677E+005	1,5782044E+000	1,5790572E+000	-9,368685601138183E-002	1,000000000000000E+000	-3,1786997E-002	41	-1,4793691E-004
2	0	0	1	0	1,851106413634249E+005	1,5542086E+000	1,5549800E+000	-1,110623416627502E-001	1,000000000000000E+000	-3,5873529E-002	40	-1,7269973E-004
2	0	0	1	0	1,851506344696833E+005	1,5302129E+000	1,5310024E+000	-1,371965391062951E-001	1,000000000000000E+000	-4,0802762E-002	40	-2,1004824E-004
2	0	0	1	0	1,851906274759392E+005	1,5062170E+000	1,5069972E+000	-1,749396254076379E-001	1,000000000000000E+000	-4,7049522E-002	40	-2,6363353E-004
2	0	0	1	0	1,852306203821986E+005	1,4822212E+000	1,4829849E+000	-2,011148989619409E-001	1,000000000000000E+000	-5,4635461E-002	40	-2,9825035E-004
2	0	0	1	0	1,852706134884530E+005	1,4582256E+000	1,4590003E+000	-2,129691004078751E-001	1,000000000000000E+000	-6,2964939E-002	40	-3,1072198E-004
2	0	0	1	0	1,853106064947126E+005	1,4342296E+000	1,4350169E+000	-2,163877364272115E-001	1,000000000000000E+000	-7,1579032E-002	40	-3,1052006E-004
2	0	0	1	0	1,853505995009686E+005	1,4102340E+000	1,4109882E+000	-2,155767727793392E-001	1,000000000000000E+000	-8,0235220E-002	40	-3,0417630E-004
2	0	0	1	0	1,853905926072268E+005	1,3862379E+000	1,3870255E+000	-2,130743030801878E-001	1,000000000000000E+000	-8,8818341E-002	40	-2,9553947E-004
2	0	0	1	0	1,854305854134839E+005	1,3622423E+000	1,3630152E+000	-2,108424956585626E-001	1,000000000000000E+000	-9,7297996E-002	40	-2,8738152E-004
2	0	0	1	0	1,854705785197412E+005	1,3382466E+000	1,3390220E+000	-2,070075653248313E-001	1,000000000000000E+000	-1,0567193E-001	40	-2,7718770E-004
2	0	0	1	0	1,855105715259993E+005	1,3142507E+000	1,3150743E+000	-2,005213456093551E-001	1,000000000000000E+000	-1,1383373E-001	40	-2,6370047E-004
2	0	0	1	0	1,855505645322558E+005	1,2902550E+000	1,2910626E+000	-1,934575404845347E-001	1,000000000000000E+000	-1,2172094E-001	40	-2,4976578E-004
2	0	0	1	0	1,855905575385150E+005	1,2662591E+000	1,2670761E+000	-1,868116363256589E-001	1,000000000000000E+000	-1,2933150E-001	40	-2,3670457E-004
2	0	0	1	0	1,856305505447695E+005	1,2422634E+000	1,2430325E+000	-1,806665595535248E-001	1,000000000000000E+000	-1,3668455E-001	40	-2,2457440E-004
2	0	0	1	0	1,856705435510296E+005	1,2182674E+000	1,2190741E+000	-1,751198321230241E-001	1,000000000000000E+000	-1,4380476E-001	40	-2,1348406E-004
2	0	0	1	0	1,857105366572845E+005	1,1942717E+000	1,1950281E+000	-1,701979124900257E-001	1,000000000000000E+000	-1,5071566E-001	40	-2,0339128E-004
2	0	0	1	0	1,857505295635430E+005	1,1702760E+000	1,1710651E+000	-1,657280153902578E-001	1,000000000000000E+000	-1,5743931E-001	40	-1,9407830E-004
2	0	0	1	0	1,857905225698003E+005	1,1462802E+000	1,1470340E+000	-1,617842022104473E-001	1,000000000000000E+000	-1,6399343E-001	40	-1,8557199E-004
2	0	0	1	0	1,858305156760578E+005	1,1222843E+000	1,1230441E+000	-1,582548318741338E-001	1,000000000000000E+000	-1,7039692E-001	40	-1,7772715E-004
2	0	0	1	0	1,858705085823154E+005	1,0982885E+000	1,0990639E+000	-1,554099633914349E-001	1,000000000000000E+000	-1,7667320E-001	40	-1,7080548E-004
2	0	0	1	0	1,859105016885723E+005	1,0742925E+000	1,0750686E+000	-1,531334943333089E-001	1,000000000000000E+000	-1,8284847E-001	40	-1,6462900E-004
2	0	0	1	0	1,859504945948310E+005	1,0502969E+000	1,0510876E+000	-1,515212986787617E-001	1,000000000000000E+000	-1,8894531E-001	40	-1,5926216E-004
2	0	0	1	0	1,859904876010863E+005	1,0263010E+000	1,0270838E+000	-1,504975812813978E-001	1,000000000000000E+000	-1,9498853E-001	40	-1,5457362E-004
2	0	0	1	0	1,860304807073460E+005	1,0023052E+000	1,0030994E+000	-1,502570225421215E-001	1,000000000000000E+000	-2,0100737E-001	40	-1,5072274E-004
2	0	0	1	0	1,860686413133153E+005	1,0205021E+000	1,0212824E+000	-1,175290034730051E-001	1,000000000000000E+000	-2,0601515E-001	40	-1,2003031E-004
2	0	0	1	0	1,861086342195733E+005	1,0444978E+000	1,0452617E+000	-1,009934826993816E-001	1,000000000000000E+000	-2,1035418E-001	40	-1,0556462E-004
2	0	0	1	0	1,861486272258298E+005	1,0684938E+000	1,0692312E+000	-8,945647669574217E-002	1,000000000000000E+000	-2,1414398E-001	40	-9,5649651E-005
2	0	0	1	0	1,861886203320888E+005	1,0924895E+000	1,0932627E+000	-8,054566943018060E-002	1,000000000000000E+000	-2,1752982E-001	40	-8,8057575E-005
2	0	0	1	0	1,862286133383433E+005	1,1164852E+000	1,1172478E+000	-7,337067212151960E-002	1,000000000000000E+000	-2,2059697E-001	40	-8,1973223E-005
2	0	0	1	0	1,862686062446034E+005	1,1404811E+000	1,1412325E+000	-6,720464772822354E-002	1,000000000000000E+000	-2,2339872E-001	40	-7,6696124E-005
2	0	0	1	0	1,863085993508585E+005	1,1644770E+000	1,1652200E+000	-6,188473500001525E-002	1,000000000000000E+000	-2,2597280E-001	40	-7,2109331E-005
2	0	0	1	0	1,863485924571169E+005	1,1884727E+000	1,1892540E+000	-5,715650964675001E-002	1,000000000000000E+000	-2,2834592E-001	40	-6,7973611E-005
2	0	0	1	0	1,863885855633742E+005	1,2124685E+000	1,2132323E+000	-5,285628171799628E-002	1,000000000000000E+000	-2,3053862E-001	40	-6,4126951E-005
2	0	0	1	0	1,864285784696315E+005	1,2364643E+000	1,2372532E+000	-4,893218796494669E-002	1,000000000000000E+000	-2,3256758E-001	40	-6,0541504E-005
2	0	0	1	0	1,864685714758895E+005	1,2604601E+000	1,2612559E+000	-4,549155003424497E-002	1,000000000000000E+000	-2,3445444E-001	41	-5,7376485E-005
2	0	0	1	0	1,865085645821462E+005	1,2844558E+000	1,2852768E+000	-4,200839832492997E-002	1,000000000000000E+000	-2,3619841E-001	41	-5,3992419E-005
2	0	0	1	0	1,865485577884051E+005	1,3084518E+000	1,3092722E+000	-3,860335901529055E-002	1,000000000000000E+000	-2,3780511E-001	41	-5,0542305E-005
2	0	0	1	0	1,865885507946596E+005	1,3324474E+000	1,3332677E+000	-3,525835690960355E-002	1,000000000000000E+000	-2,3927717E-001	41	-4,7008827E-005
2	0	0	1	0	1,866285438009196E+005	1,3564432E+000	1,3572578E+000	-3,193401958225917E-002	1,000000000000000E+000	-2,4061558E-001	41	-4,3342698E-005
2	0	0	1	0	1,866685368071753E+005	1,3804390E+000	1,3812199E+000	-2,846501129394863E-002	1,000000000000000E+000	-2,4181835E-001	41	-3,9316437E-005
2	0	0	1	0	1,867085298134336E+005	1,4044347E+000	1,4052061E+000	-2,480363538893388E-002	1,000000000000000E+000	-2,4287969E-001	41	-3,4854220E-005
2	0	0	1	0	1,867485230196905E+005	1,4284308E+000	1,4291776E+000	-2,077885309033789E-002	1,000000000000000E+000	-2,4378778E-001	41	-2,9696672E-005
2	0	0	1	0	1,867885159259478E+005	1,4524264E+000	1,4531748E+000	-1,623781340780928E-002	1,000000000000000E+000	-2,4452420E-001	41	-2,3596382E-005
2	0	0	1	0	1,868285090322057E+005	1,4764222E+000	1,4771723E+000	-1,088847214092395E-002	1,000000000000000E+000	-2,4506326E-001	41	-1,6084148E-005
2	0	0	1	0	1,868685020384623E+005	1,5004179E+000	1,5011992E+000	-4,447229226094628E-003	1,000000000000000E+000	-2,4536788E-001	42	-6,6761772E-006
2	1	0	1	0	1,869084950447213E+005	1,5244138E+000	1,5251387E+000	3,511161864530432E-003	1,000000000000000E+000	-2,4538794E-001	42	5,3550089E-006
2	1	0	1	0	1,869484882509762E+005	1,5484096E+000	1,5491582E+000	1,395154888239342E-002	1,000000000000000E+000	-2,4504349E-001	41	2,1613156E-005
2	1	0	1	0	1,869884812572361E+005	1,5724053E+000	1,5731359E+000	2,729996410340951E-002	1,000000000000000E+000	-2,4422710E-001	41	4,2946551E-005
2	1	0	1	0	1,870284742634916E+005	1,5964012E+000	1,5971254E+000	5,443498620590348E-002	1,000000000000000E+000	-2,4267823E-001	41	8,6939501E-005
2	1	0	1	0	1,870684673697500E+005	1,6203972E+000	1,6211430E+000	1,063456627183145E-001	1,000000000000000E+000	-2,3951712E-001	40	1,7240153E-004
2	1	0	1	0	1,871084602760072E+005	1,6443927E+000	1,6451508E+000	1,685258800310123E-001	1,000000000000000E+000	-2,3403946E-001	40	2,7725048E-004
2	1	0	1	0	1,871484534822646E+005	1,6683886E+000	1,6691078E+000	2,361530144107902E-001	1,000000000000000E+000	-2,2595279E-001	40	3,9416485E-004
2	1	0	1	0	1,871884465885228E+005	1,6923846E+000	1,6930643E+000	3,059641473435111E-001	1,000000000000000E+000	-2,1510136E-001	40	5,1801698E-004
2	1	0	1	0	1,872284395947787E+005	1,7163801E+000	1,7170767E+000	3,723999701389147E-001	1,000000000000000E+000	-2,0150509E-001	40	6,3943927E-004
2	1	0	1	0	1,872684327010377E+005	1,7403761E+000	1,7410827E+000	4,277309145160397E-001	1,000000000000000E+000	-1,8544304E-001	40	7,4471487E-004
2	1	0	1	0	1,873084256072924E+005	1,7643718E+000	1,7650443E+000	4,623091811769310E-001	1,000000000000000E+000	-1,6755317E-001	40	8,1599620E-004
2	1	0	1	0	1,873484188135525E+005	1,7883677E+000	1,7890451E+000	4,701794276356548E-001	1,000000000000000E+000	-1,4879787E-001	40	8,4117218E-004
2	1	0	1	0	1,873884119198080E+005	1,8123634E+000	1,8130374E+000	4,505618200464818E-001	1,000000000000000E+000	-1,3029064E-001	40	8,1688544E-004
2	1	0	1	0	1,874284048260666E+005	1,8363591E+000	1,8370807E+000	4,081125427872934E-001	1,000000000000000E+000	-1,1305282E-001	40	7,4973569E-004
2	1	0	1	0	1,874683978323238E+005	1,8603553E+000	1,8610386E+000	3,507669432665201E-001	1,000000000000000E+000	-9,7840570E-002	40	6,5279083E-004
2	1	0	1	0	1,875083909385809E+005	1,8843505E+000	1,8850641E+000	2,910971550482513E-001	1,000000000000000E+000	-8,5003093E-002	40	5,4873683E-004
2	1	0	1	0	1,875483840448391E+005	1,9083467E+000	1,9090519E+000	2,347972383501787E-001	1,000000000000000E+000	-7,4492410E-002	40	4,4824011E-004
2	1	0	1	0	1,875883771510955E+005	1,9323423E+000	1,9330863E+000	1,858370737407232E-001	1,000000000000000E+000	-6,6103563E-002	40	3,5923909E-004
2	1	0	1	0	1,876283700573547E+005	1,9563383E+000	1,9570704E+000	1,468581148676660E-001	1,000000000000000E+000	-5,9479382E-002	40	2,8741168E-004
2	1	0	1	0	1,876683630636088E+005	1,9803340E+000	1,9810722E+000	1,178684950140243E-001	1,000000000000000E+000	-5,4208454E-002	40	2,3350600E-004
2	1	0	1	0	1,877083563698686E+005	2,0043297E+000	2,0050938E+000	9,651562931963809E-002	1,000000000000000E+000	-4,9935333E-002	40	1,9352289E-004
2	1	0	1	0	1,877483494761246E+005	2,0283256E+000	2,0290465E+000	8,063488250240547E-002	1,000000000000000E+000	-4,6401367E-002	40	1,6361193E-004
2	1	0	1	0	1,877883423823827E+005	2,0523210E+000	2,0530584E+000	6,883160925867249E-002	1,000000000000000E+000	-4,3415558E-002	40	1,4131531E-004
2	1	0	1	0	1,878283355886401E+005	2,0763171E+000	2,0770886E+000	5,996030019507259E-002	1,000000000000000E+000	-4,0839933E-002	40	1,2454286E-004
2	1	0	1	0	1,878683285948975E+005	2,1003129E+000	2,1010659E+000	5,312401287013269E-002	1,000000000000000E+000	-3,8577154E-002	40	1,1161705E-004
2	1	0	1	0	1,879084883011794E+005	2,1244090E+000	2,1251359E+000	4,761223477606748E-002	1,000000000000000E+000	-3,6545422E-002	41	1,0118247E-004
2	1	0	1	0	1,879484814074391E+005	2,1484044E+000	2,1491351E+000	4,356186339800350E-002	1,000000000000000E+000	-3,4715865E-002	41	9,3620329E-005
2	1	0	1	0	1,879884746136949E+005	2,1724002E+000	2,1731119E+000	4,034595287069231E-002	1,000000000000000E+000	-3,3030532E-002	41	8,7676272E-005
2	1	0	1	0	1,880284676199533E+005	2,1963959E+000	2,1970944E+000	3,768440795656391E-002	1,000000000000000E+000	-3,1462509E-002	41	8,2796207E-005
2	1	0	1	0	1,880684606262106E+005	2,2203920E+000	2,2211475E+000	3,547212001011024E-002	1,000000000000000E+000	-2,9991439E-002	41	7,8788813E-005
2	1	0	1	0	1,881084535324677E+005	2,2443879E+000	2,2451649E+000	3,363170211140099E-002	1,000000000000000E+000	-2,8602449E-002	41	7,5508717E-005
2	1	0	1	0	1,881484470387260E+005	2,2683837E+000	2,2691274E+000	3,200343205338038E-002	1,000000000000000E+000	-2,7281854E-002	41	7,2619863E-005
2	1	0	1	0	1,881884400449821E+005	2,2923796E+000	2,2931523E+000	3,072017454566814E-002	1,000000000000000E+000	-2,6019882E-002	41	7,0446040E-005
2	1	0	1	0	1,882284329512417E+005	2,3163750E+000	2,3171136E+000	2,955909607369742E-002	1,000000000000000E+000	-2,4807073E-002	41	6,8491783E-005
2	1	0	1	0	1,882684260574961E+005	2,3403707E+000	2,3411350E+000	2,856627365004261E-002	1,000000000000000E+000	-2,3636838E-002	41	6,6877503E-005
2	1	0	1	0	1,883084192637552E+005	2,3643668E+000	2,3651330E+000	2,775367723746039E-002	1,000000000000000E+000	-2,2502741E-002	41	6,5641136E-005
2	1	0	1	0	1,883484122700114E+005	2,3883622E+000	2,3891182E+000	2,708729265947551E-002	1,000000000000000E+000	-2,1398790E-002	41	6,4714746E-005
2	1	0	1	0	1,883884054762695E+005	2,4123583E+000	2,4131072E+000	2,658064167073937E-002	1,000000000000000E+000	-2,0318225E-002	41	6,4141939E-005
2	1	0	1	0	1,884283986825268E+005	2,4363539E+000	2,4370804E+000	2,605632254941348E-002	1,000000000000000E+000	-1,9257162E-002	41	6,3501349E-005
2	1	0	1	0	1,884683914887843E+005	2,4603498E+000	2,4611423E+000	2,545266331417645E-002	1,000000000000000E+000	-1,8218914E-002	41	6,2642626E-005
2	1	0	1	0	1,885083844950423E+005	2,4843457E+000	2,4851246E+000	2,486132566709492E-002	1,000000000000000E+000	-1,7205814E-002	41	6,1783488E-005
2	1	0	1	0	1,885483780012983E+005	2,5083416E+000	2,5091093E+000	2,431532275234483E-002	1,000000000000000E+000	-1,6215650E-002	41	6,1009803E-005
2	1	0	1	0	1,885883709075581E+005	2,5323372E+000	2,5331252E+000	2,382016727686337E-002	1,000000000000000E+000	-1,5244556E-002	41	6,0339466E-005
2	1	0	1	0	1,886283639138127E+005	2,5563331E+000	2,5571234E+000	2,333420860593574E-002	1,000000000000000E+000	-1,4294017E-002	41	5,9668451E-005
2	1	0	1	0	1,886683570200719E+005	2,5803292E+000	2,5811083E+000	2,289480793323595E-002	1,000000000000000E+000	-1,3362227E-002	41	5,9093978E-005
2	1	0	1	0	1,887083501263284E+005	2,6043248E+000	2,6051450E+000	2,274595663328483E-002	1,000000000000000E+000	-1,2443641E-002	41	5,9256516E-005
2	1	0	1	0	1,887483433325863E+005	2,6283205E+000	2,6290979E+000	2,278093008498910E-002	1,000000000000000E+000	-1,1525442E-002	41	5,9893297E-005
2	1	0	1	0	1,887883363388432E+005	2,6523163E+000	2,6530919E+000	2,237723834928063E-002	1,000000000000000E+000	-1,0612641E-002	41	5,9368871E-005
2	1	0	1	0	1,888283295451005E+005	2,6763122E+000	2,6770716E+000	2,178742183857782E-002	1,000000000000000E+000	-9,7214719E-003	41	5,8326488E-005
2	1	0	1	0	1,888683222513590E+005	2,7003078E+000	2,7011099E+000	2,131569437396535E-002	1,000000000000000E+000	-8,8523217E-003	41	5,7576031E-005
2	1	0	1	0	1,889083153576148E+005	2,7243037E+000	2,7251179E+000	2,100244470529627E-002	1,000000000000000E+000	-7,9984991E-003	41	5,7234138E-005
2	1	0	1	0	1,889483089638744E+005	2,7482994E+000	2,7490795E+000	2,086743172220919E-002	1,000000000000000E+000	-7,1541332E-003	41	5,7366229E-005
2	1	0	1	0	1,889883018701295E+005	2,7722955E+000	2,7731371E+000	2,086011576608027E-002	1,000000000000000E+000	-6,3119293E-003	41	5,7847959E-005
2	1	0	1	0	1,890282947763880E+005	2,7962909E+000	2,7971084E+000	2,105803139889151E-002	1,000000000000000E+000	-5,4657762E-003	41	5,8901598E-005
2	1	0	1	0	1,890682879826450E+005	2,8202870E+000	2,8210876E+000	2,143977514019035E-002	1,000000000000000E+000	-4,6081445E-003	41	6,0483482E-005
2	1	0	1	0	1,891082808889027E+005	2,8442826E+000	2,8451059E+000	2,163951106098094E-002	1,000000000000000E+000	-3,7381921E-003	41	6,1566701E-005
2	1	0	1	0	1,891482741951603E+005	2,8682783E+000	2,8690886E+000	2,149469268267518E-002	1,000000000000000E+000	-2,8672782E-003	41	6,1670180E-005
2	1	0	1	0	1,891882673014173E+005	2,8922744E+000	2,8931031E+000	2,127745099061007E-002	1,000000000000000E+000	-2,0043347E-003	41	6,1557861E-005
2	1	0	1	0	1,892282604076760E+005	2,9162703E+000	2,9170761E+000	2,112579596797459E-002	1,000000000000000E+000	-1,1485489E-003	41	6,1625557E-005
2	1	0	1	0	1,892682532139306E+005	2,9402654E+000	2,9410717E+000	2,105806443870856E-002	1,000000000000000E+000	-2,9734772E-004	41	6,1933279E-005
2	1	0	1	0	1,893082463201908E+005	2,9642620E+000	2,9650621E+000	2,109715538561688E-002	1,000000000000000E+000	5,5313815E-004	41	6,2554376E-005
2	1	0	1	0	1,893482398264459E+005	2,9882572E+000	2,9890723E+000	2,127101160110567E-002	1,000000000000000E+000	1,4078225E-003	41	6,3580592E-005
2	1	0	1	1	1,893853998322617E+005	2,9894569E+000	2,9902866E+000	1,342433958170869E-002	1,000000000000000E+000	2,0984011E-003	41	4,0142622E-005
2	1	0	1	1	1,894253928385177E+005	2,9654613E+000	2,9662788E+000	8,960993110170803E-003	1,000000000000000E+000	2,5272556E-003	41	2,6580803E-005
2	1	0	1	1	1,894653860447770E+005	2,9414656E+000	2,9422901E+000	6,417111701119901E-003	1,000000000000000E+000	2,8228301E-003	41	1,8881005E-005
2	1	0	1	1	1,895053789510317E+005	2,9174700E+000	2,9182467E+000	4,645190777493632E-003	1,000000000000000E+000	3,0346308E-003	42	1,3555813E-005
2	1	0	1	1	1,895453718572916E+005	2,8934743E+000	2,8942769E+000	3,405843329448426E-003	1,000000000000000E+000	3,1877500E-003	42	9,8574537E-006
2	1	0	1	1	1,895853650635472E+005	2,8694782E+000	2,8702912E+000	2,414530805927507E-003	1,000000000000000E+000	3,2965653E-003	42	6,9304065E-006
2	1	0	1	1	1,896253579698055E+005	2,8454826E+000	2,8462729E+000	1,602611735905391E-003	1,000000000000000E+000	3,3692876E-003	42	4,5614706E-006
2	1	0	1	1	1,896653508760626E+005	2,8214867E+000	2,8223178E+000	9,091984901723974E-004	1,000000000000000E+000	3,4120751E-003	42	2,5660472E-006
2	1	0	1	1	1,897053440823201E+005	2,7974906E+000	2,7982593E+000	3,085853909045744E-004	1,000000000000000E+000	3,4306219E-003	43	8,6350195E-007
2	0	0	1	1	1,897453369885781E+005	2,7734950E+000	2,7743025E+000	-1,328700863376384E-004	1,000000000000000E+000	3,4302105E-003	43	-3,6862181E-007
2	0	0	1	1	1,897853298948347E+005	2,7494991E+000	2,7503574E+000	-5,318385114981960E-004	1,000000000000000E+000	3,4130351E-003	43	-1,4627460E-006
2	0	0	1	1	1,898253231010935E+005	2,7255034E+000	2,7263548E+000	-8,107134780920323E-004	1,000000000000000E+000	3,3798814E-003	42	-2,2102927E-006
2	0	0	1	1	1,898653161073478E+005	2,7015076E+000	2,7023299E+000	-1,234000646107713E-003	1,000000000000000E+000	3,3315588E-003	42	-3,3346769E-006
2	0	0	1	1	1,899053089136081E+005	2,6775115E+000	2,6783268E+000	-1,632606060848179E-003	1,000000000000000E+000	3,2676409E-003	42	-4,3726527E-006
2	0	0	1	1	1,899453020198634E+005	2,6535163E+000	2,6543572E+000	-2,155193595407731E-003	1,000000000000000E+000	3,1853896E-003	42	-5,7206535E-006
2	0	0	1	1	1,899852951261220E+005	2,6295202E+000	2,6303594E+000	-2,878645792097394E-003	1,000000000000000E+000	3,0781943E-003	42	-7,5718731E-006
2	0	0	1	1	1,900252881323788E+005	2,6055245E+000	2,6063559E+000	-3,516845924473089E-003	1,000000000000000E+000	2,9421130E-003	42	-9,1661523E-006
2	0	0	1	1	1,900652810386366E+005	2,5815287E+000	2,5823464E+000	-3,641679592699062E-003	1,000000000000000E+000	2,7909225E-003	42	-9,4040779E-006
2	0	0	1	1	1,901052741448940E+005	2,5575328E+000	2,5584085E+000	-3,748177460536836E-003	1,000000000000000E+000	2,6370580E-003	42	-9,5893693E-006
2	0	0	1	1	1,901452671511510E+005	2,5335371E+000	2,5343869E+000	-4,078193018392087E-003	1,000000000000000E+000	2,4737311E-003	42	-1,0335719E-005
2	0	0	1	1	1,901852600574098E+005	2,5095415E+000	2,5104017E+000	-4,453764653378212E-003	1,000000000000000E+000	2,2959879E-003	42	-1,1180739E-005
2	0	0	1	1	1,902252531636648E+005	2,4855454E+000	2,4864156E+000	-4,851343696658184E-003	1,000000000000000E+000	2,1024942E-003	42	-1,2062456E-005
2	0	0	1	1	1,902652463699249E+005	2,4615495E+000	2,4624336E+000	-5,248807164257255E-003	1,000000000000000E+000	1,8932656E-003	42	-1,2924839E-005
2	0	0	1	1	1,903052389761792E+005	2,4375539E+000	2,4384155E+000	-5,615814886912318E-003	1,000000000000000E+000	1,6681310E-003	42	-1,3693691E-005
2	0	0	1	1	1,903452321824383E+005	2,4135580E+000	2,4144056E+000	-5,912377867216725E-003	1,000000000000000E+000	1,4302502E-003	42	-1,4274878E-005
2	0	0	1	1	1,903852252886952E+005	2,3895621E+000	2,3904326E+000	-6,062665527285512E-003	1,000000000000000E+000	1,1840285E-003	42	-1,4492393E-005
2	0	0	1	1	1,904252181949528E+005	2,3655665E+000	2,3663976E+000	-6,237514134250555E-003	1,000000000000000E+000	9,3098299E-004	42	-1,4760439E-005
2	0	0	1	1	1,904652112012100E+005	2,3415706E+000	2,3424239E+000	-6,470922981041793E-003	1,000000000000000E+000	6,6940073E-004	42	-1,5157645E-005
2	0	0	1	1	1,905052043074676E+005	2,3175752E+000	2,3184257E+000	-6,781799385695161E-003	1,000000000000000E+000	3,9712654E-004	42	-1,5723097E-005
2	0	0	1	1	1,905451972137257E+005	2,2935789E+000	2,2944465E+000	-7,065954177092212E-003	1,000000000000000E+000	1,1271522E-004	42	-1,6212454E-005
2	0	0	1	1	1,905851902199816E+005	2,2695835E+000	2,2704656E+000	-7,467688483000966E-003	1,000000000000000E+000	-1,8532095E-004	42	-1,6955129E-005
2	0	0	1	1	1,906228504258743E+005	2,2469871E+000	2,2478631E+000	-7,869413119329262E-003	2,000000000000000E+000	-4,8027642E-004	42	-1,7689363E-005
2	0	0	1	1	1,906628434321323E+005	2,2229912E+000	2,2238526E+000	-8,333079434590183E-003	2,000000000000000E+000	-8,1034435E-004	42	-1,8531540E-005
2	0	0	1	1	1,907028362383894E+005	2,1989956E+000	2,1998978E+000	-8,790285056553188E-003	2,000000000000000E+000	-1,1594648E-003	42	-1,9337729E-005
2	0	0	1	1	1,907428294446466E+005	2,1749997E+000	2,1758890E+000	-9,384896798345685E-003	2,000000000000000E+000	-1,5301382E-003	42	-2,0420493E-005
2	0	0	1	1	1,907828224509051E+005	2,1510041E+000	2,1518121E+000	-9,939093069779088E-003	2,000000000000000E+000	-1,9239748E-003	41	-2,1387061E-005
2	0	0	1	1	1,908228154571606E+005	2,1270080E+000	2,1278048E+000	-1,063396285784887E-002	2,000000000000000E+000	-2,3429673E-003	41	-2,2626997E-005
2	0	0	1	1	1,908628083634209E+005	2,1030128E+000	2,1038241E+000	-1,132820517091213E-002	2,000000000000000E+000	-2,7899295E-003	41	-2,3832552E-005
2	0	0	1	1	1,909028014696748E+005	2,0790167E+000	2,0797923E+000	-1,215703628109480E-002	2,000000000000000E+000	-3,2675071E-003	41	-2,5284109E-005
2	0	0	1	1	1,909427944759340E+005	2,0550210E+000	2,0557909E+000	-1,302918744237846E-002	2,000000000000000E+000	-3,7788404E-003	41	-2,6785285E-005
2	0	0	1	1	1,909827873821906E+005	2,0310252E+000	2,0318217E+000	-1,403629096730247E-002	2,000000000000000E+000	-4,3276506E-003	41	-2,8519242E-005
2	0	0	1	1	1,910227804884485E+005	2,0070291E+000	2,0078416E+000	-1,512085125117432E-002	2,000000000000000E+000	-4,9178251E-003	41	-3,0360274E-005
2	0	0	1	1	1,910627736947057E+005	1,9830335E+000	1,9838355E+000	-1,624229126046295E-002	2,000000000000000E+000	-5,5523673E-003	41	-3,2222033E-005
2	0	0	1	1	1,911027665009632E+005	1,9590377E+000	1,9598321E+000	-1,733016030875555E-002	2,000000000000000E+000	-6,2310519E-003	41	-3,3964203E-005
2	0	0	1	1	1,911427596072215E+005	1,9350421E+000	1,9358701E+000	-1,846788842145244E-002	2,000000000000000E+000	-6,9539906E-003	41	-3,5751433E-005
2	0	0	1	1	1,911827526134774E+005	1,9110461E+000	1,9118431E+000	-1,984195538685646E-002	2,000000000000000E+000	-7,7274893E-003	41	-3,7934704E-005
2	0	0	1	1	1,912227456197371E+005	1,8870504E+000	1,8878452E+000	-2,140072618786099E-002	2,000000000000000E+000	-8,5595176E-003	41	-4,0401257E-005
2	0	0	1	1	1,912627387259915E+005	1,8630545E+000	1,8638384E+000	-2,318603285766296E-002	2,000000000000000E+000	-9,4579980E-003	41	-4,3215019E-005
2	0	0	1	1	1,913027316322511E+005	1,8390589E+000	1,8398619E+000	-2,522766066908502E-002	2,000000000000000E+000	-1,0432702E-002	41	-4,6415411E-005
2	0	0	1	1	1,913427246385068E+005	1,8150630E+000	1,8158680E+000	-2,769001304266872E-002	2,000000000000000E+000	-1,1497632E-002	41	-5,0281411E-005
2	0	0	1	1	1,913827177447648E+005	1,7910670E+000	1,7918879E+000	-3,061013038292865E-002	2,000000000000000E+000	-1,2668777E-002	41	-5,4849923E-005
2	0	0	1	1	1,914227106510224E+005	1,7670715E+000	1,7678775E+000	-3,404451047508816E-002	2,000000000000000E+000	-1,3968955E-002	41	-6,0186521E-005
2	0	0	1	1	1,914627036572794E+005	1,7430755E+000	1,7438639E+000	-3,816960750147639E-002	2,000000000000000E+000	-1,5419784E-002	41	-6,6562599E-005
2	0	0	1	1	1,915026967635374E+005	1,7190797E+000	1,7198886E+000	-4,300614459679317E-002	2,000000000000000E+000	-1,7048612E-002	41	-7,3965777E-005
2	0	0	1	1	1,915426896697942E+005	1,6950840E+000	1,6958961E+000	-4,858643407901342E-002	2,000000000000000E+000	-1,8884761E-002	41	-8,2397550E-005
2	0	0	1	1	1,915826827760530E+005	1,6710881E+000	1,6718905E+000	-5,508039163728318E-002	2,000000000000000E+000	-2,0963367E-002	41	-9,2088383E-005
2	0	0	1	1	1,916226757823075E+005	1,6470923E+000	1,6479001E+000	-6,250027805467573E-002	2,000000000000000E+000	-2,3319962E-002	41	-1,0299421E-004
2	0	0	1	1	1,916626687885674E+005	1,6230965E+000	1,6239133E+000	-7,123570186676445E-002	2,000000000000000E+000	-2,5998607E-002	41	-1,1568060E-004
2	0	0	1	1	1,917026618948234E+005	1,5991007E+000	1,5999517E+000	-8,184657895628278E-002	2,000000000000000E+000	-2,9062180E-002	41	-1,3095058E-004
2	0	0	1	1	1,917426549010816E+005	1,5751051E+000	1,5759455E+000	-9,579652848832776E-002	2,000000000000000E+000	-3,2612693E-002	41	-1,5097011E-004
2	0	0	1	1	1,917826478073387E+005	1,5511091E+000	1,5518817E+000	-1,143028670728167E-001	2,000000000000000E+000	-3,6804404E-002	40	-1,7738453E-004
2	0	0	1	1	1,918226409135957E+005	1,5271134E+000	1,5278858E+000	-1,432869006408724E-001	2,000000000000000E+000	-4,1912176E-002	40	-2,1892603E-004
2	0	0	1	1	1,918626338198534E+005	1,5031176E+000	1,5039071E+000	-1,810822994374170E-001	2,000000000000000E+000	-4,8428994E-002	40	-2,7233094E-004
2	0	0	1	1	1,919026269261102E+005	1,4791219E+000	1,4798889E+000	-2,044681223430977E-001	2,000000000000000E+000	-5,6206156E-002	40	-3,0259011E-004
2	0	0	1	1	1,919426199323693E+005	1,4551260E+000	1,4559075E+000	-2,141698403533190E-001	2,000000000000000E+000	-6,4619631E-002	40	-3,1181145E-004
2	0	0	1	1	1,919826128386243E+005	1,4311301E+000	1,4318956E+000	-2,163904965873238E-001	2,000000000000000E+000	-7,3257901E-002	40	-3,0984860E-004
2	0	0	1	1	1,920226059448842E+005	1,4071345E+000	1,4079001E+000	-2,149648715138262E-001	2,000000000000000E+000	-8,1898972E-002	40	-3,0264907E-004
2	0	0	1	1	1,920625989511395E+005	1,3831387E+000	1,3839653E+000	-2,121465405382454E-001	2,000000000000000E+000	-9,0449207E-002	40	-2,9360343E-004
2	0	0	1	1	1,921025919573979E+005	1,3591429E+000	1,3598917E+000	-2,098143634327267E-001	2,000000000000000E+000	-9,8893628E-002	40	-2,8532482E-004
2	0	0	1	1	1,921425849636551E+005	1,3351470E+000	1,3359115E+000	-2,052535125395401E-001	2,000000000000000E+000	-1,0721388E-001	40	-2,7420052E-004
2	0	0	1	1	1,921825779699125E+005	1,3111513E+000	1,3119346E+000	-1,984922638547939E-001	2,000000000000000E+000	-1,1529978E-001	40	-2,6040888E-004
2	0	0	1	1	1,922225709761702E+005	1,2871555E+000	1,2879648E+000	-1,914410653684651E-001	2,000000000000000E+000	-1,2310483E-001	40	-2,4656937E-004
2	0	0	1	1	1,922625640824271E+005	1,2631595E+000	1,2639066E+000	-1,848701713059526E-001	2,000000000000000E+000	-1,3063449E-001	40	-2,3365863E-004
2	0	0	1	1	1,923025568886851E+005	1,2391639E+000	1,2399319E+000	-1,787359757594253E-001	2,000000000000000E+000	-1,3791111E-001	40	-2,2162044E-004
2	0	0	1	1	1,923425499949406E+005	1,2151681E+000	1,2159604E+000	-1,732259579359354E-001	2,000000000000000E+000	-1,4495592E-001	40	-2,1063590E-004
2	0	0	1	1	1,923825430012008E+005	1,1911722E+000	1,1919430E+000	-1,683753946189155E-001	2,000000000000000E+000	-1,5179260E-001	40	-2,0069389E-004
2	0	0	1	1	1,924225360074556E+005	1,1671766E+000	1,1679586E+000	-1,638053038730334E-001	2,000000000000000E+000	-1,5844169E-001	40	-1,9131781E-004
2	0	0	1	1	1,924625291137144E+005	1,1431806E+000	1,1439316E+000	-1,599540384991025E-001	2,000000000000000E+000	-1,6492042E-001	40	-1,8297648E-004
2	0	0	1	1	1,925025220199712E+005	1,1191850E+000	1,1199359E+000	-1,565289923452764E-001	2,000000000000000E+000	-1,7125475E-001	40	-1,7530243E-004
2	0	0	1	1	1,925425150262288E+005	1,0951891E+000	1,0959493E+000	-1,536918100400717E-001	2,000000000000000E+000	-1,7746334E-001	40	-1,6843843E-004
2	0	0	1	1	1,925825081324861E+005	1,0711931E+000	1,0719414E+000	-1,517218219108210E-001	2,000000000000000E+000	-1,8357494E-001	40	-1,6263690E-004
2	0	0	1	1	1,926225010387434E+005	1,0471975E+000	1,0479892E+000	-1,503895868312743E-001	2,000000000000000E+000	-1,8961875E-001	40	-1,5760667E-004
2	0	0	1	1	1,926624940450019E+005	1,0232017E+000	1,0239574E+000	-1,497747035417785E-001	2,000000000000000E+000	-1,9562340E-001	40	-1,5336291E-004
2	0	0	1	1	1,927012379510615E+005	9,9995601E-001	1,0007786E+000	-1,496598837554881E-001	2,000000000000000E+000	-2,0142677E-001	40	-1,4977640E-004
2	0	0	1	1	1,927404811572041E+005	1,0235015E+000	1,0242828E+000	-1,144487335048502E-001	2,000000000000000E+000	-2,0639928E-001	40	-1,1722787E-004
2	0	0	1	1	1,927804741634591E+005	1,0474974E+000	1,0482419E+000	-9,893962809080725E-002	2,000000000000000E+000	-2,1063913E-001	40	-1,0371266E-004
2	0	0	1	1	1,928204671697177E+005	1,0714931E+000	1,0722479E+000	-8,789153101054792E-002	2,000000000000000E+000	-2,1435638E-001	40	-9,4241506E-005
2	0	0	1	1	1,928604602759751E+005	1,0954891E+000	1,0962609E+000	-7,926107953422394E-002	2,000000000000000E+000	-2,1768612E-001	40	-8,6890825E-005
2	0	0	1	1	1,929004531822324E+005	1,1194847E+000	1,1202147E+000	-7,219002385198897E-002	2,000000000000000E+000	-2,2070454E-001	40	-8,0868325E-005
2	0	0	1	1	1,929404461884899E+005	1,1434805E+000	1,1442204E+000	-6,621765971786431E-002	2,000000000000000E+000	-2,2346392E-001	40	-7,5767595E-005
2	0	0	1	1	1,929804392947468E+005	1,1674765E+000	1,1682274E+000	-6,106693203781155E-002	2,000000000000000E+000	-2,2600247E-001	40	-7,1340066E-005
2	0	0	1	1	1,930204324010056E+005	1,1914721E+000	1,1922210E+000	-5,640727785653732E-002	2,000000000000000E+000	-2,2834389E-001	40	-6,7249945E-005
2	0	0	1	1	1,930604254072607E+005	1,2154679E+000	1,2162511E+000	-5,225296314578973E-002	2,000000000000000E+000	-2,3051071E-001	40	-6,3552725E-005
2	0	0	1	1	1,931004185135206E+005	1,2394638E+000	1,2402756E+000	-4,861311608523390E-002	2,000000000000000E+000	-2,3251732E-001	41	-6,0293663E-005
2	0	0	1	1	1,931404114197758E+005	1,2634596E+000	1,2642710E+000	-4,498229979243379E-002	2,000000000000000E+000	-2,3438424E-001	41	-5,6869820E-005
2	0	0	1	1	1,931804045260345E+005	1,2874554E+000	1,2882818E+000	-4,155603461592206E-002	2,000000000000000E+000	-2,3610920E-001	41	-5,3535881E-005
2	0	0	1	1	1,932203977322914E+005	1,3114513E+000	1,3123013E+000	-3,818029155210715E-002	2,000000000000000E+000	-2,3769827E-001	41	-5,0104045E-005
2	0	0	1	1	1,932603906385486E+005	1,3354467E+000	1,3362441E+000	-3,484935423301661E-002	2,000000000000000E+000	-2,3915412E-001	41	-4,6567246E-005
2	0	0	1	1	1,933003837448065E+005	1,3594427E+000	1,3602169E+000	-3,151720844302747E-002	2,000000000000000E+000	-2,4047627E-001	41	-4,2870237E-005
2	0	0	1	1	1,933403767510634E+005	1,3834386E+000	1,3841903E+000	-2,801459266684003E-002	2,000000000000000E+000	-2,4166183E-001	41	-3,8777529E-005
2	0	0	1	1	1,933803697573221E+005	1,4074345E+000	1,4081970E+000	-2,431857652353919E-002	2,000000000000000E+000	-2,4270438E-001	41	-3,4245346E-005
2	0	0	1	1	1,934203630635771E+005	1,4314302E+000	1,4321859E+000	-2,026930853622569E-002	2,000000000000000E+000	-2,4359231E-001	41	-2,9029417E-005
2	0	0	1	1	1,934603558698369E+005	1,4554259E+000	1,4561667E+000	-1,562786906294328E-002	2,000000000000000E+000	-2,4430710E-001	41	-2,2756783E-005
2	0	0	1	1	1,935003489760924E+005	1,4794217E+000	1,4801749E+000	-1,014807430670453E-002	2,000000000000000E+000	-2,4482067E-001	41	-1,5020925E-005
2	0	0	1	1	1,935403419823508E+005	1,5034176E+000	1,5042149E+000	-3,567584441046108E-003	2,000000000000000E+000	-2,4509378E-001	42	-5,3664135E-006
2	1	0	1	1	1,935803348886077E+005	1,5274131E+000	1,5281203E+000	4,688725028634724E-003	2,000000000000000E+000	-2,4507257E-001	42	7,1649356E-006
2	1	0	1	1	1,936203281948654E+005	1,5514092E+000	1,5521311E+000	1,557553740468619E-002	2,000000000000000E+000	-2,4467091E-001	41	2,4175275E-005
2	1	0	1	1	1,936603212011233E+005	1,5754050E+000	1,5761070E+000	2,977219147077798E-002	2,000000000000000E+000	-2,4377631E-001	41	4,6924160E-005
2	1	0	1	1	1,937003142073796E+005	1,5994008E+000	1,6000812E+000	6,107427603943411E-002	2,000000000000000E+000	-2,4205425E-001	41	9,7723801E-005
2	1	0	1	1	1,937403073136383E+005	1,6233964E+000	1,6241348E+000	1,165229890485776E-001	2,000000000000000E+000	-2,3854433E-001	40	1,8924904E-004
2	1	0	1	1	1,937803002198935E+005	1,6473922E+000	1,6480967E+000	1,815873182180860E-001	2,000000000000000E+000	-2,3259658E-001	40	2,9927347E-004
2	1	0	1	1	1,938202934261535E+005	1,6713883E+000	1,6721039E+000	2,514606403505805E-001	2,000000000000000E+000	-2,2393863E-001	40	4,2046831E-004
2	1	0	1	1	1,938602865324086E+005	1,6953839E+000	1,6960953E+000	3,216110445680940E-001	2,000000000000000E+000	-2,1246077E-001	40	5,4548302E-004
2	1	0	1	1	1,939002795386673E+005	1,7193794E+000	1,7200767E+000	3,862818598920468E-001	2,000000000000000E+000	-1,9826087E-001	40	6,6443440E-004
2	1	0	1	1	1,939402725449242E+005	1,7433755E+000	1,7441106E+000	4,376882129246091E-001	2,000000000000000E+000	-1,8171822E-001	40	7,6337665E-004
2	1	0	1	1	1,939802655511817E+005	1,7673712E+000	1,7680564E+000	4,673022735962844E-001	2,000000000000000E+000	-1,6352642E-001	40	8,2621677E-004
2	1	0	1	1	1,940202587574394E+005	1,7913671E+000	1,7920495E+000	4,698725990836423E-001	2,000000000000000E+000	-1,4467846E-001	40	8,4203499E-004
2	1	0	1	1	1,940602518636963E+005	1,8153632E+000	1,8160659E+000	4,453344560614143E-001	2,000000000000000E+000	-1,2628746E-001	40	8,0875674E-004
2	1	0	1	1	1,941002447699551E+005	1,8393584E+000	1,8400588E+000	3,994235503695585E-001	2,000000000000000E+000	-1,0933093E-001	40	7,3496281E-004
2	1	0	1	1	1,941402377762096E+005	1,8633543E+000	1,8640716E+000	3,406223052191854E-001	2,000000000000000E+000	-9,4506204E-002	40	6,3494436E-004
2	1	0	1	1	1,941802308824698E+005	1,8873503E+000	1,8880708E+000	2,805731972476204E-001	2,000000000000000E+000	-8,2085907E-002	40	5,2974204E-004
2	1	0	1	1	1,942202239887249E+005	1,9113461E+000	1,9120800E+000	2,246692698089032E-001	2,000000000000000E+000	-7,1992256E-002	40	4,2958563E-004
2	1	0	1	1	1,942602169949835E+005	1,9353417E+000	1,9361136E+000	1,768309090790643E-001	2,000000000000000E+000	-6,3992143E-002	40	3,4236471E-004
2	1	0	1	1	1,943002100012405E+005	1,9593377E+000	1,9601303E+000	1,395900683499781E-001	2,000000000000000E+000	-5,7695858E-002	40	2,7361471E-004
2	1	0	1	1	1,943402030074983E+005	1,9833333E+000	1,9841051E+000	1,122076367787448E-001	2,000000000000000E+000	-5,2679852E-002	40	2,2263174E-004
2	1	0	1	1	1,943801962137558E+005	2,0073290E+000	2,0080762E+000	9,221889837153771E-002	2,000000000000000E+000	-4,8602048E-002	40	1,8518258E-004
2	1	0	1	1	1,944201893200127E+005	2,0313251E+000	2,0320828E+000	7,747145045309228E-002	2,000000000000000E+000	-4,5214571E-002	40	1,5742840E-004
2	1	0	1	1	1,944601824262715E+005	2,0553205E+000	2,0560615E+000	6,636481895428203E-002	2,000000000000000E+000	-4,2339820E-002	40	1,3645015E-004
2	1	0	1	1	1,945001754325263E+005	2,0793166E+000	2,0801063E+000	5,808597754725831E-002	2,000000000000000E+000	-3,9849848E-002	40	1,2082500E-004
2	1	0	1	1	1,945401683387866E+005	2,1033123E+000	2,1040943E+000	5,176014298697917E-002	2,000000000000000E+000	-3,7650302E-002	40	1,0890822E-004
2	1	0	1	1	1,945803279450685E+005	2,1274083E+000	2,1281340E+000	4,657815918943775E-002	2,000000000000000E+000	-3,5669368E-002	41	9,9124562E-005
2	1	0	1	1	1,946203214513264E+005	2,1514039E+000	2,1521573E+000	4,280059853421264E-002	2,000000000000000E+000	-3,3876438E-002	41	9,2113623E-005
2	1	0	1	1	1,946603146575829E+005	2,1753998E+000	2,1761107E+000	3,971574536280970E-002	2,000000000000000E+000	-3,2220427E-002	41	8,6425862E-005
2	1	0	1	1	1,947003075638423E+005	2,1993957E+000	2,2001324E+000	3,720989051158327E-002	2,000000000000000E+000	-3,0674638E-002	41	8,1866681E-005
2	1	0	1	1	1,947403004700963E+005	2,2233913E+000	2,2241492E+000	3,509053550616939E-002	2,000000000000000E+000	-2,9222541E-002	41	7,8046585E-005
2	1	0	1	1	1,947802936763563E+005	2,2473872E+000	2,2481208E+000	3,328761081691249E-002	2,000000000000000E+000	-2,7848991E-002	41	7,4834570E-005
2	1	0	1	1	1,948202868826119E+005	2,2713830E+000	2,2721300E+000	3,171646985132359E-002	2,000000000000000E+000	-2,6541766E-002	41	7,2063944E-005
2	1	0	1	1	1,948602798888703E+005	2,2953787E+000	2,2961442E+000	3,039130185003811E-002	2,000000000000000E+000	-2,5291532E-002	41	6,9782815E-005
2	1	0	1	1	1,949002729951278E+005	2,3193746E+000	2,3201416E+000	2,930138442749071E-002	2,000000000000000E+000	-2,4089694E-002	41	6,7983361E-005
2	1	0	1	1	1,949402661013851E+005	2,3433702E+000	2,3441074E+000	2,831668690779754E-002	2,000000000000000E+000	-2,2929741E-002	41	6,6377354E-005
2	1	0	1	1	1,949802589076427E+005	2,3673661E+000	2,3681180E+000	2,751092880748429E-002	2,000000000000000E+000	-2,1805376E-002	41	6,5149128E-005
2	1	0	1	1	1,950202524138994E+005	2,3913620E+000	2,3920865E+000	2,688256313566015E-002	2,000000000000000E+000	-2,0710362E-002	41	6,4305415E-005
2	1	0	1	1	1,950602455201587E+005	2,4153578E+000	2,4160938E+000	2,634889187091383E-002	2,000000000000000E+000	-1,9637156E-002	41	6,3661399E-005
2	1	0	1	1	1,951002385264132E+005	2,4393537E+000	2,4401190E+000	2,587524494854221E-002	2,000000000000000E+000	-1,8583549E-002	41	6,3138679E-005
2	1	0	1	1	1,951402313326730E+005	2,4633491E+000	2,4641521E+000	2,521367466892721E-002	2,000000000000000E+000	-1,7553004E-002	41	6,2130326E-005
2	1	0	1	1	1,951802245389284E+005	2,4873452E+000	2,4881124E+000	2,462592270404684E-002	2,000000000000000E+000	-1,6547656E-002	41	6,1272061E-005
2	1	0	1	1	1,952202178451866E+005	2,5113409E+000	2,5121605E+000	2,413628598482795E-002	2,000000000000000E+000	-1,5564761E-002	41	6,0634226E-005
2	1	0	1	1	1,952602107514441E+005	2,5353367E+000	2,5361402E+000	2,362256408486552E-002	2,000000000000000E+000	-1,4601950E-002	41	5,9910133E-005
2	1	0	1	1	1,953002039577013E+005	2,5593326E+000	2,5600805E+000	2,308779274787154E-002	2,000000000000000E+000	-1,3659727E-002	41	5,9106609E-005
2	1	0	1	1	1,953401970639597E+005	2,5833287E+000	2,5841417E+000	2,264939660658216E-002	2,000000000000000E+000	-1,2736659E-002	41	5,8529251E-005
2	1	0	1	1	1,953801897702159E+005	2,6073241E+000	2,6081157E+000	2,254366648900008E-002	2,000000000000000E+000	-1,1825247E-002	41	5,8796490E-005
2	1	0	1	1	1,954201833764752E+005	2,6313200E+000	2,6320827E+000	2,252935677046275E-002	2,000000000000000E+000	-1,0914561E-002	41	5,9299131E-005
2	1	0	1	1	1,954601763827298E+005	2,6553156E+000	2,6561177E+000	2,208613695919881E-002	2,000000000000000E+000	-1,0012283E-002	41	5,8663380E-005
2	1	0	1	1	1,955001693889890E+005	2,6793115E+000	2,6800852E+000	2,150998757223399E-002	2,000000000000000E+000	-9,1331322E-003	41	5,7648598E-005
2	1	0	1	1	1,955401623952454E+005	2,7033074E+000	2,7040954E+000	2,105879601059114E-002	2,000000000000000E+000	-8,2748868E-003	41	5,6944991E-005
2	1	0	1	1	1,955801554015034E+005	2,7273030E+000	2,7281051E+000	2,076580062983258E-002	2,000000000000000E+000	-7,4311318E-003	41	5,6651286E-005
2	1	0	1	1	1,956201488077608E+005	2,7512989E+000	2,7520957E+000	2,064234389144800E-002	2,000000000000000E+000	-6,5958155E-003	41	5,6809706E-005
2	1	0	1	1	1,956601417140176E+005	2,7752948E+000	2,7761166E+000	2,066851452335572E-002	2,000000000000000E+000	-5,7619461E-003	41	5,7378205E-005
2	1	0	1	1	1,957001348202759E+005	2,7992904E+000	2,8000691E+000	2,089125616310628E-002	2,000000000000000E+000	-4,9236189E-003	41	5,8496960E-005
2	1	0	1	1	1,957401278265317E+005	2,8232865E+000	2,8240867E+000	2,121943861590991E-002	2,000000000000000E+000	-4,0735709E-003	41	5,9925533E-005
2	1	0	1	1	1,957801207327917E+005	2,8472822E+000	2,8481309E+000	2,139662480941418E-002	2,000000000000000E+000	-3,2128762E-003	41	6,0940391E-005
2	1	0	1	1	1,958201142390464E+005	2,8712780E+000	2,8721070E+000	2,118536390970543E-002	2,000000000000000E+000	-2,3531788E-003	41	6,0846633E-005
2	1	0	1	1	1,958601074453053E+005	2,8952734E+000	2,8960857E+000	2,101379427608062E-002	2,000000000000000E+000	-1,5017163E-003	41	6,0857750E-005
2	1	0	1	1	1,959001000515618E+005	2,9192696E+000	2,9200757E+000	2,087299214842930E-002	2,000000000000000E+000	-6,5685320E-004	41	6,0950715E-005
2	1	0	1	1	1,959400932578198E+005	2,9432652E+000	2,9440696E+000	2,081976028672727E-002	2,000000000000000E+000	1,8471894E-004	41	6,1294821E-005
2	1	0	1	1	1,959800863640774E+005	2,9672613E+000	2,9680884E+000	2,091940016855987E-002	2,000000000000000E+000	1,0264893E-003	41	6,2090628E-005
2	1	0	1	1	1,960200796703344E+005	2,9912572E+000	2,9920595E+000	2,108292675131533E-002	2,000000000000000E+000	1,8736357E-003	41	6,3081374E-005
2	1	0	1	0	1,960572396761477E+005	2,9864578E+000	2,9872611E+000	1,242343368978510E-002	2,000000000000000E+000	2,5127167E-003	41	3,7112040E-005
2	1	0	1	0	1,960972328824062E+005	2,9624617E+000	2,9633060E+000	8,400464619999298E-003	2,000000000000000E+000	2,9125088E-003	41	2,4893146E-005
2	1	0	1	0	1,961372256886633E+005	2,9384665E+000	2,9392803E+000	6,012968080665662E-003	2,000000000000000E+000	3,1892925E-003	41	1,7673798E-005
2	1	0	1	0	1,961772186949209E+005	2,9144702E+000	2,9152763E+000	4,396205796201424E-003	2,000000000000000E+000	3,3872060E-003	42	1,2816155E-005
2	1	0	1	0	1,962172118011788E+005	2,8904750E+000	2,8912497E+000	3,194877950203137E-003	2,000000000000000E+000	3,5295039E-003	42	9,2371902E-006
2	1	0	1	0	1,962572047074354E+005	2,8664787E+000	2,8672588E+000	2,212116429487876E-003	2,000000000000000E+000	3,6292728E-003	42	6,3427101E-006
2	1	0	1	0	1,962971977136936E+005	2,8424830E+000	2,8432665E+000	1,403884457697718E-003	2,000000000000000E+000	3,6945713E-003	42	3,9916176E-006
2	1	0	1	0	1,963371908199489E+005	2,8184872E+000	2,8193045E+000	7,831447535939454E-004	2,000000000000000E+000	3,7310892E-003	42	2,2079234E-006
2	1	0	1	0	1,963771839262089E+005	2,7944908E+000	2,7952847E+000	1,954048295776164E-004	2,000000000000000E+000	3,7444178E-003	43	5,4621216E-007
2	0	0	1	0	1,964171767324638E+005	2,7704957E+000	2,7713120E+000	-2,391812762474257E-004	2,000000000000000E+000	3,7393677E-003	43	-6,6284593E-007
2	0	0	1	0	1,964571698387228E+005	2,7465000E+000	2,7473886E+000	-6,018100966867345E-004	2,000000000000000E+000	3,7180395E-003	43	-1,6534062E-006
2	0	0	1	0	1,964971629449795E+005	2,7225039E+000	2,7233393E+000	-9,221276702950417E-004	2,000000000000000E+000	3,6809256E-003	42	-2,5112665E-006
2	0	0	1	0	1,965371559512372E+005	2,6985080E+000	2,6993136E+000	-1,307439019996193E-003	2,000000000000000E+000	3,6292588E-003	42	-3,5291880E-006
2	0	0	1	0	1,965771487574945E+005	2,6745124E+000	2,6753359E+000	-1,718182792779176E-003	2,000000000000000E+000	3,5618648E-003	42	-4,5967163E-006
2	0	0	1	0	1,966171419637518E+005	2,6505165E+000	2,6513364E+000	-2,241740463418873E-003	2,000000000000000E+000	3,4756376E-003	42	-5,9436084E-006
2	0	0	1	0	1,966571348700104E+005	2,6265206E+000	2,6273515E+000	-2,992779613581451E-003	2,000000000000000E+000	3,3637725E-003	42	-7,8630837E-006
2	0	0	1	0	1,966971277762658E+005	2,6025252E+000	2,6033857E+000	-3,540459862315964E-003	2,000000000000000E+000	3,2241724E-003	42	-9,2171822E-006
2	0	0	1	0	1,967371209825259E+005	2,5785291E+000	2,5793698E+000	-3,661192085877826E-003	2,000000000000000E+000	3,0717922E-003	42	-9,4435682E-006
2	0	0	1	0	1,967771138887801E+005	2,5545335E+000	2,5553863E+000	-3,808476703852327E-003	2,000000000000000E+000	2,9160234E-003	42	-9,7321290E-006
2	0	0	1	0	1,968171067950393E+005	2,5305376E+000	2,5314026E+000	-4,134947863476290E-003	2,000000000000000E+000	2,7498642E-003	42	-1,0467218E-005
2	0	0	1	0	1,968571000012956E+005	2,5065417E+000	2,5074501E+000	-4,527918907379538E-003	2,000000000000000E+000	2,5691609E-003	42	-1,1353531E-005
2	0	0	1	0	1,968970930075537E+005	2,4825461E+000	2,4834239E+000	-4,931473030122438E-003	2,000000000000000E+000	2,3727166E-003	42	-1,2246938E-005
2	0	0	1	0	1,969370858138110E+005	2,4585500E+000	2,4594188E+000	-5,323006272497936E-003	2,000000000000000E+000	2,1608381E-003	42	-1,3091501E-005
2	0	0	1	0	1,969770790200681E+005	2,4345543E+000	2,4353979E+000	-5,681388535690736E-003	2,000000000000000E+000	1,9333541E-003	42	-1,3836441E-005
2	0	0	1	0	1,970170720263263E+005	2,4105585E+000	2,4114139E+000	-5,915912688333205E-003	2,000000000000000E+000	1,6937711E-003	42	-1,4265715E-005
2	0	0	1	0	1,970570650325825E+005	2,3865628E+000	2,3874264E+000	-6,077547233571443E-003	2,000000000000000E+000	1,4462468E-003	42	-1,4509696E-005
2	0	0	1	0	1,970970579388421E+005	2,3625669E+000	2,3634160E+000	-6,268645338420406E-003	2,000000000000000E+000	1,1919629E-003	42	-1,4815417E-005
2	0	0	1	0	1,971370510450965E+005	2,3385711E+000	2,3394401E+000	-6,505428792894893E-003	2,000000000000000E+000	9,2868443E-004	42	-1,5219061E-005
2	0	0	1	0	1,971770440513561E+005	2,3145754E+000	2,3154018E+000	-6,812631190329124E-003	2,000000000000000E+000	6,5453589E-004	42	-1,5773978E-005
2	0	0	1	0	1,972170369576118E+005	2,2905798E+000	2,2914436E+000	-7,142579006352082E-003	2,000000000000000E+000	3,6815906E-004	42	-1,6366817E-005
2	0	0	1	0	1,972570300638699E+005	2,2665837E+000	2,2674527E+000	-7,515719464533915E-003	2,000000000000000E+000	6,7851106E-005	42	-1,7041539E-005
2	0	0	0	0	1,972851672682734E+005	2,2496376E+000	2,2505140E+000	-8,253315708412451E-003	2,000000000000000E+000	-1,5278613E-004	42	-1,8574203E-005