File: Dati/210416_2/CV_LTO-CB_grafite nuova_15 layers__08_CV_C01.mpt
EC-Lab ASCII FILE
Nb header lines : 57

Cyclic Voltammetry

Run on channel : 1 (SN 6806)
User : Seelab
Electrode connection : standard
Ewe ctrl range : min = 0,00 V, max = 5,00 V
Ewe,I filtering : 50 kHz
Safety Limits :
	Do not start on E overload
Channel : Grounded
Acquisition started on : 04/16/2021 18:47:00
Saved on :
	File : CV_LTO-CB_grafite nuova_15 layers__08_CV_C01.mpr
	Directory : C:\Users\labsuperfici\Desktop\Biologic\Users\Prisca Viviani\210416_2\
	Host : 10.78.33.0
Device : VSP-300 (SN 0638)
Address : USB
EC-Lab for windows v11.31 (software)
Internet server v11.30 (firmware)
Command interpretor v11.31 (firmware)
Electrode material :
Initial state :
Electrolyte :
Comments :
Cable : standard
Reference electrode : SCE Saturated Calomel Electrode (0,241 V)
Electrode surface area : 0,001 cm²
Characteristic mass : 0,001 g
Equivalent Weight : 0,000 g/eq.
Density : 0,000 g/cm3
Cycle Definition : Charge/Discharge alternance
Ei (V)              0,000
vs.                 Eoc
dE/dt               0,700
dE/dt unit          mV/s
E1 (V)              1,000
vs.                 Ref
Step percent        50
N                   10
E range min (V)     0,000
E range max (V)     5,000
I Range             Auto
I Range min         Unset
I Range max         Unset
I Range init        Unset
Bandwidth           8
E2 (V)              3,000
vs.                 Ref
nc cycles           1
Reverse Scan        1
Ef (V)              0,000
vs.                 Eoc

mode	ox/red	error	control changes	counter inc.	time/s	control/V	Ewe/V	<I>/mA	cycle number	(Q-Qo)/C	I Range	P/W
2	0	0	0	0	1,972854100683085E+005	2,2496376E+000	2,2504148E+000	-9,011362679302692E-003	1,000000000000000E+000	0,0000000E+000	41	-2,0279303E-005
2	0	0	1	0	1,973190470735730E+005	2,2260909E+000	2,2268803E+000	-8,994390391510954E-003	1,000000000000000E+000	-2,9623450E-004	41	-2,0029431E-005
2	0	0	1	0	1,973533267789374E+005	2,2020953E+000	2,2029071E+000	-9,704953899467239E-003	1,000000000000000E+000	-6,2373077E-004	41	-2,1379112E-005
2	0	0	1	0	1,973876065843010E+005	2,1780994E+000	2,1789031E+000	-1,043173308649639E-002	1,000000000000000E+000	-9,7596954E-004	41	-2,2729735E-005
2	0	0	1	0	1,974218863896639E+005	2,1541035E+000	2,1549082E+000	-1,118020282681692E-002	1,000000000000000E+000	-1,3533244E-003	41	-2,4092311E-005
2	0	0	1	0	1,974561658950280E+005	2,1301076E+000	2,1309006E+000	-1,194009853485664E-002	1,000000000000000E+000	-1,7570916E-003	41	-2,5443163E-005
2	0	0	1	0	1,974904454003908E+005	2,1061122E+000	2,1069031E+000	-1,281114973867795E-002	1,000000000000000E+000	-2,1885394E-003	41	-2,6991851E-005
2	0	0	1	0	1,975247252057539E+005	2,0821164E+000	2,0828848E+000	-1,373958508684930E-002	1,000000000000000E+000	-2,6504216E-003	41	-2,8617973E-005
2	0	0	1	0	1,975590049111173E+005	2,0581203E+000	2,0589225E+000	-1,471516151806851E-002	1,000000000000000E+000	-3,1449550E-003	41	-3,0297377E-005
2	0	0	1	0	1,975932846164803E+005	2,0341246E+000	2,0349133E+000	-1,583635501719266E-002	1,000000000000000E+000	-3,6758340E-003	41	-3,2225609E-005
2	0	0	1	0	1,976275644218434E+005	2,0101287E+000	2,0108943E+000	-1,705669989852553E-002	1,000000000000000E+000	-4,2465115E-003	41	-3,4299221E-005
2	0	0	1	0	1,976618441272076E+005	1,9861331E+000	1,9869287E+000	-1,831534828118075E-002	1,000000000000000E+000	-4,8597450E-003	41	-3,6391291E-005
2	0	0	1	0	1,976961238325718E+005	1,9621373E+000	1,9629370E+000	-1,958161821835788E-002	1,000000000000000E+000	-5,5164448E-003	41	-3,8437483E-005
2	0	0	1	0	1,977304035379356E+005	1,9381413E+000	1,9389464E+000	-2,086283032185393E-002	1,000000000000000E+000	-6,2161954E-003	41	-4,0451909E-005
2	0	0	1	0	1,977646832432984E+005	1,9141456E+000	1,9149359E+000	-2,231231891218997E-002	1,000000000000000E+000	-6,9624577E-003	41	-4,2726660E-005
2	0	0	1	0	1,977989628486624E+005	1,8901500E+000	1,8909140E+000	-2,402821710656561E-002	1,000000000000000E+000	-7,7629960E-003	41	-4,5435292E-005
2	0	0	1	0	1,978332427540259E+005	1,8661540E+000	1,8669556E+000	-2,592347360430751E-002	1,000000000000000E+000	-8,6250836E-003	41	-4,8397975E-005
2	0	0	1	0	1,978675224593887E+005	1,8421583E+000	1,8429697E+000	-2,819740725172226E-002	1,000000000000000E+000	-9,5575964E-003	41	-5,1966967E-005
2	0	0	1	0	1,979018019647514E+005	1,8181624E+000	1,8189651E+000	-3,077631326707625E-002	1,000000000000000E+000	-1,0573194E-002	41	-5,5981040E-005
2	0	0	1	0	1,979360817701151E+005	1,7941667E+000	1,7949998E+000	-3,391217461000549E-002	1,000000000000000E+000	-1,1687545E-002	41	-6,0872349E-005
2	0	0	1	0	1,979703614754782E+005	1,7701709E+000	1,7709743E+000	-3,765357943700198E-002	1,000000000000000E+000	-1,2920109E-002	41	-6,6683519E-005
2	0	0	1	0	1,980046411808423E+005	1,7461751E+000	1,7469767E+000	-4,211970415856500E-002	1,000000000000000E+000	-1,4293411E-002	41	-7,3582145E-005
2	0	0	1	0	1,980389208862064E+005	1,7221795E+000	1,7230058E+000	-4,730747339434066E-002	1,000000000000000E+000	-1,5831793E-002	41	-8,1511047E-005
2	0	0	1	0	1,980732005915700E+005	1,6981835E+000	1,6990272E+000	-5,340157543104407E-002	1,000000000000000E+000	-1,7563289E-002	41	-9,0730726E-005
2	0	0	1	0	1,981074802969331E+005	1,6741877E+000	1,6750040E+000	-6,053376138081773E-002	1,000000000000000E+000	-1,9520473E-002	41	-1,0139429E-004
2	0	0	1	0	1,981417600022969E+005	1,6501919E+000	1,6510125E+000	-6,867642027574117E-002	1,000000000000000E+000	-2,1740049E-002	41	-1,1338563E-004
2	0	0	1	0	1,981760397076607E+005	1,6261960E+000	1,6270487E+000	-7,834000982020739E-002	1,000000000000000E+000	-2,4262462E-002	41	-1,2746302E-004
2	0	0	1	0	1,982103195130229E+005	1,6022003E+000	1,6030848E+000	-8,980591088996315E-002	1,000000000000000E+000	-2,7144674E-002	41	-1,4396649E-004
2	0	0	1	0	1,982445992183862E+005	1,5782044E+000	1,5789812E+000	-1,042064405854046E-001	1,000000000000000E+000	-3,0469190E-002	40	-1,6454000E-004
2	0	0	1	0	1,982788789237496E+005	1,5542089E+000	1,5549846E+000	-1,231723731573212E-001	1,000000000000000E+000	-3,4358356E-002	40	-1,9153114E-004
2	0	0	1	0	1,983131586291129E+005	1,5302129E+000	1,5310090E+000	-1,508584179983231E-001	1,000000000000000E+000	-3,9026093E-002	40	-2,3096558E-004
2	0	0	1	0	1,983474383344768E+005	1,5062171E+000	1,5069981E+000	-1,901186829836843E-001	1,000000000000000E+000	-4,4874344E-002	40	-2,8650850E-004
2	0	0	1	0	1,983817179398409E+005	1,4822214E+000	1,4829892E+000	-2,179599761037911E-001	1,000000000000000E+000	-5,1929489E-002	40	-3,2323229E-004
2	0	0	1	0	1,984159976452047E+005	1,4582254E+000	1,4590051E+000	-2,310183655476473E-001	1,000000000000000E+000	-5,9665285E-002	40	-3,3705699E-004
2	0	0	1	0	1,984502773505680E+005	1,4342299E+000	1,4349940E+000	-2,352392586371819E-001	1,000000000000000E+000	-6,7683421E-002	40	-3,3756692E-004
2	0	0	1	0	1,984845572559317E+005	1,4102337E+000	1,4110023E+000	-2,348316226797471E-001	1,000000000000000E+000	-7,5757608E-002	40	-3,3134795E-004
2	0	0	1	0	1,985188367612949E+005	1,3862381E+000	1,3870507E+000	-2,323257298497940E-001	1,000000000000000E+000	-8,3776437E-002	40	-3,2224756E-004
2	0	0	1	0	1,985531163666574E+005	1,3622426E+000	1,3630397E+000	-2,297134140094865E-001	1,000000000000000E+000	-9,1701195E-002	40	-3,1310850E-004
2	0	0	1	0	1,985873962720204E+005	1,3382465E+000	1,3390489E+000	-2,261685031812490E-001	1,000000000000000E+000	-9,9532768E-002	40	-3,0285068E-004
2	0	0	1	0	1,986216759773842E+005	1,3142507E+000	1,3150632E+000	-2,197818423143196E-001	1,000000000000000E+000	-1,0718920E-001	40	-2,8902703E-004
2	0	0	1	0	1,986559556827478E+005	1,2902548E+000	1,2910633E+000	-2,124006987308844E-001	1,000000000000000E+000	-1,1460489E-001	40	-2,7422275E-004
2	0	0	1	0	1,986902352881114E+005	1,2662591E+000	1,2670387E+000	-2,053870267107153E-001	1,000000000000000E+000	-1,2177119E-001	40	-2,6023333E-004
2	0	0	1	0	1,987245149934754E+005	1,2422633E+000	1,2430123E+000	-1,988249746442388E-001	1,000000000000000E+000	-1,2870477E-001	40	-2,4714190E-004
2	0	0	1	0	1,987587946988391E+005	1,2182673E+000	1,2190589E+000	-1,929580892316798E-001	1,000000000000000E+000	-1,3542621E-001	40	-2,3522727E-004
2	0	0	1	0	1,987930744042026E+005	1,1942718E+000	1,1950152E+000	-1,875519752819388E-001	1,000000000000000E+000	-1,4195263E-001	40	-2,2412746E-004
2	0	0	1	0	1,988273541095662E+005	1,1702759E+000	1,1710397E+000	-1,827468732855244E-001	1,000000000000000E+000	-1,4830481E-001	40	-2,1400384E-004
2	0	0	1	0	1,988616339149298E+005	1,1462802E+000	1,1470538E+000	-1,785452611922107E-001	1,000000000000000E+000	-1,5450203E-001	40	-2,0480102E-004
2	0	0	1	0	1,988959134202925E+005	1,1222845E+000	1,1230778E+000	-1,749421648330607E-001	1,000000000000000E+000	-1,6056573E-001	40	-1,9647366E-004
2	0	0	1	0	1,989301932256552E+005	1,0982884E+000	1,0990452E+000	-1,720263564135442E-001	1,000000000000000E+000	-1,6651785E-001	40	-1,8906474E-004
2	0	0	1	0	1,989644730310189E+005	1,0742928E+000	1,0750811E+000	-1,696295751234816E-001	1,000000000000000E+000	-1,7237754E-001	40	-1,8236555E-004
2	0	0	1	0	1,989987526363824E+005	1,0502970E+000	1,0510520E+000	-1,680180863545548E-001	1,000000000000000E+000	-1,7816864E-001	40	-1,7659574E-004
2	0	0	1	0	1,990330323417459E+005	1,0263011E+000	1,0270818E+000	-1,670407257816713E-001	1,000000000000000E+000	-1,8391609E-001	40	-1,7156449E-004
2	0	0	1	0	1,990673120471099E+005	1,0023053E+000	1,0030688E+000	-1,668447973943898E-001	1,000000000000000E+000	-1,8964332E-001	40	-1,6735682E-004
2	0	0	1	0	1,991000212522270E+005	1,0205022E+000	1,0212628E+000	-1,301567058645245E-001	1,000000000000000E+000	-1,9440110E-001	40	-1,3292419E-004
2	0	0	1	0	1,991343010575906E+005	1,0444980E+000	1,0452452E+000	-1,119690057252449E-001	1,000000000000000E+000	-1,9852309E-001	40	-1,1703507E-004
2	0	0	1	0	1,991685807629537E+005	1,0684938E+000	1,0692635E+000	-9,928956237901176E-002	1,000000000000000E+000	-2,0212673E-001	40	-1,0616670E-004
2	0	0	1	0	1,992028604683174E+005	1,0924895E+000	1,0932547E+000	-8,952054333374332E-002	1,000000000000000E+000	-2,0535052E-001	40	-9,7868753E-005
2	0	0	1	0	1,992371401736817E+005	1,1164852E+000	1,1172389E+000	-8,155054577648489E-002	1,000000000000000E+000	-2,0827234E-001	40	-9,1111440E-005
2	0	0	1	0	1,992714198790458E+005	1,1404811E+000	1,1412239E+000	-7,479569315980210E-002	1,000000000000000E+000	-2,1094324E-001	40	-8,5358632E-005
2	0	0	1	0	1,993056996844087E+005	1,1644770E+000	1,1652305E+000	-6,889846902310555E-002	1,000000000000000E+000	-2,1339859E-001	40	-8,0282596E-005
2	0	0	1	0	1,993399793897723E+005	1,1884727E+000	1,1892271E+000	-6,369674388447488E-002	1,000000000000000E+000	-2,1566394E-001	40	-7,5749893E-005
2	0	0	1	0	1,993742590951361E+005	1,2124685E+000	1,2132319E+000	-5,889908762625617E-002	1,000000000000000E+000	-2,1775837E-001	40	-7,1458257E-005
2	0	0	1	0	1,994085387004986E+005	1,2364644E+000	1,2372195E+000	-5,453598122191267E-002	1,000000000000000E+000	-2,1969648E-001	40	-6,7472974E-005
2	0	0	1	0	1,994428186058616E+005	1,2604601E+000	1,2611912E+000	-5,045353754306081E-002	1,000000000000000E+000	-2,2149011E-001	40	-6,3631560E-005
2	0	0	1	0	1,994770983112254E+005	1,2844560E+000	1,2852633E+000	-4,686779189335019E-002	1,000000000000000E+000	-2,2315274E-001	41	-6,0237453E-005
2	0	0	1	0	1,995113780165883E+005	1,3084518E+000	1,3092470E+000	-4,310385071734346E-002	1,000000000000000E+000	-2,2468944E-001	41	-5,6433590E-005
2	0	0	1	0	1,995456577219520E+005	1,3324475E+000	1,3332402E+000	-3,939404640295235E-002	1,000000000000000E+000	-2,2609857E-001	41	-5,2521726E-005
2	0	0	1	0	1,995799375273160E+005	1,3564434E+000	1,3572147E+000	-3,567526615060357E-002	1,000000000000000E+000	-2,2738072E-001	41	-4,8418995E-005
2	0	0	1	0	1,996142172326802E+005	1,3804392E+000	1,3812103E+000	-3,183890807963163E-002	1,000000000000000E+000	-2,2853321E-001	41	-4,3976230E-005
2	0	0	1	0	1,996484969380435E+005	1,4044348E+000	1,4052207E+000	-2,775392230763629E-002	1,000000000000000E+000	-2,2955051E-001	41	-3,9000388E-005
2	0	0	1	0	1,996827766434071E+005	1,4284307E+000	1,4291911E+000	-2,328417960613793E-002	1,000000000000000E+000	-2,3042175E-001	41	-3,3277542E-005
2	0	0	1	0	1,997170564487707E+005	1,4524266E+000	1,4531870E+000	-1,821606675567428E-002	1,000000000000000E+000	-2,3113021E-001	41	-2,6471351E-005
2	0	0	1	0	1,997513361541340E+005	1,4764223E+000	1,4771912E+000	-1,227900921489306E-002	1,000000000000000E+000	-2,3165075E-001	41	-1,8138444E-005
2	0	0	1	0	1,997856158594964E+005	1,5004182E+000	1,5011737E+000	-5,158334168987921E-003	1,000000000000000E+000	-2,3194844E-001	41	-7,7435561E-006
2	1	0	1	0	1,998198955648597E+005	1,5244139E+000	1,5251254E+000	3,593385699153308E-003	1,000000000000000E+000	-2,3197620E-001	42	5,4803636E-006
2	1	0	1	0	1,998541753702234E+005	1,5484097E+000	1,5491456E+000	1,505914270278763E-002	1,000000000000000E+000	-2,3166017E-001	41	2,3328805E-005
2	1	0	1	0	1,998884550755866E+005	1,5724055E+000	1,5731053E+000	2,959389484232594E-002	1,000000000000000E+000	-2,3090208E-001	41	4,6554313E-005
2	1	0	1	0	1,999227347809506E+005	1,5964013E+000	1,5971030E+000	5,824944202478766E-002	1,000000000000000E+000	-2,2947280E-001	41	9,3030358E-005
2	1	0	1	0	1,999570144863146E+005	1,6203969E+000	1,6211346E+000	1,148027284127426E-001	1,000000000000000E+000	-2,2655874E-001	40	1,8611069E-004
2	1	0	1	0	1,999912943916782E+005	1,6443930E+000	1,6451095E+000	1,832090157332565E-001	1,000000000000000E+000	-2,2146492E-001	40	3,0139889E-004
2	1	0	1	0	2,000255739970417E+005	1,6683887E+000	1,6690856E+000	2,567588394648546E-001	1,000000000000000E+000	-2,1392491E-001	40	4,2855248E-004
2	1	0	1	0	2,000598538024053E+005	1,6923846E+000	1,6930783E+000	3,310135068126026E-001	1,000000000000000E+000	-2,0383953E-001	40	5,6043180E-004
2	1	0	1	0	2,000941335077686E+005	1,7163804E+000	1,7170681E+000	4,000815398045692E-001	1,000000000000000E+000	-1,9127619E-001	40	6,8696722E-004
2	1	0	1	0	2,001284134131316E+005	1,7403764E+000	1,7410396E+000	4,571326410851400E-001	1,000000000000000E+000	-1,7653064E-001	40	7,9588604E-004
2	1	0	1	0	2,001626930184942E+005	1,7643719E+000	1,7650383E+000	4,944387892415687E-001	1,000000000000000E+000	-1,6014558E-001	40	8,7270339E-004
2	1	0	1	0	2,001969727238580E+005	1,7883675E+000	1,7890619E+000	5,061539940169517E-001	1,000000000000000E+000	-1,4290871E-001	40	9,0554083E-004
2	1	0	1	0	2,002312524292213E+005	1,8123634E+000	1,8130488E+000	4,902077819811481E-001	1,000000000000000E+000	-1,2574464E-001	40	8,8877068E-004
2	1	0	1	0	2,002655322345850E+005	1,8363594E+000	1,8370516E+000	4,491537347956802E-001	1,000000000000000E+000	-1,0956954E-001	40	8,2511862E-004
2	1	0	1	0	2,002998119399490E+005	1,8603550E+000	1,8610512E+000	3,914679794609803E-001	1,000000000000000E+000	-9,5122911E-002	40	7,2854193E-004
2	1	0	1	0	2,003340916453130E+005	1,8843509E+000	1,8850710E+000	3,280448357459931E-001	1,000000000000000E+000	-8,2786299E-002	40	6,1838783E-004
2	1	0	1	0	2,003683713506763E+005	1,9083467E+000	1,9090762E+000	2,668988094098006E-001	1,000000000000000E+000	-7,2596073E-002	40	5,0953019E-004
2	1	0	1	0	2,004026511560399E+005	1,9323424E+000	1,9330794E+000	2,122828235345788E-001	1,000000000000000E+000	-6,4401716E-002	40	4,1035956E-004
2	1	0	1	0	2,004369308614032E+005	1,9563384E+000	1,9570676E+000	1,678877766365278E-001	1,000000000000000E+000	-5,7911817E-002	40	3,2856772E-004
2	1	0	1	0	2,004712105667656E+005	1,9803342E+000	1,9811002E+000	1,346179450682490E-001	1,000000000000000E+000	-5,2749153E-002	40	2,6669164E-004
2	1	0	1	0	2,005054904721286E+005	2,0043299E+000	2,0051060E+000	1,100569664430395E-001	1,000000000000000E+000	-4,8569094E-002	40	2,2067588E-004
2	1	0	1	0	2,005397701774929E+005	2,0283256E+000	2,0291111E+000	9,211324415496480E-002	1,000000000000000E+000	-4,5111455E-002	40	1,8690802E-004
2	1	0	1	0	2,005740498828560E+005	2,0523217E+000	2,0530734E+000	7,866632399413032E-002	1,000000000000000E+000	-4,2188041E-002	40	1,6150773E-004
2	1	0	1	0	2,006083296882194E+005	2,0763173E+000	2,0770960E+000	6,846069414293343E-002	1,000000000000000E+000	-3,9666034E-002	40	1,4219944E-004
2	1	0	1	0	2,006426094935832E+005	2,1003132E+000	2,1011028E+000	6,070050771274627E-002	1,000000000000000E+000	-3,7449576E-002	40	1,2753801E-004
2	1	0	1	0	2,006768891989476E+005	2,1243088E+000	2,1250989E+000	5,474486030144732E-002	1,000000000000000E+000	-3,5466865E-002	40	1,1633825E-004
2	1	0	1	0	2,007111691043112E+005	2,1483047E+000	2,1490793E+000	5,003872699035705E-002	1,000000000000000E+000	-3,3665922E-002	40	1,0753719E-004
2	1	0	1	0	2,007455915096970E+005	2,1724005E+000	2,1731291E+000	4,604133501257768E-002	1,000000000000000E+000	-3,2006461E-002	41	1,0005377E-004
2	1	0	1	0	2,007798713150602E+005	2,1963961E+000	2,1971107E+000	4,301412008874456E-002	1,000000000000000E+000	-3,0473698E-002	41	9,4506780E-005
2	1	0	1	0	2,008141511204238E+005	2,2203920E+000	2,2211056E+000	4,043264187287554E-002	1,000000000000000E+000	-2,9037008E-002	41	8,9805166E-005
2	1	0	1	0	2,008484307257878E+005	2,2443879E+000	2,2451258E+000	3,831049560069733E-002	1,000000000000000E+000	-2,7680650E-002	41	8,6011882E-005
2	1	0	1	0	2,008827105311500E+005	2,2683835E+000	2,2691054E+000	3,646090997890488E-002	1,000000000000000E+000	-2,6391730E-002	41	8,2733648E-005
2	1	0	1	0	2,009169902365133E+005	2,2923794E+000	2,2931478E+000	3,494944191458615E-002	1,000000000000000E+000	-2,5160315E-002	41	8,0144237E-005
2	1	0	1	0	2,009512699418766E+005	2,3163753E+000	2,3171196E+000	3,363988786482275E-002	1,000000000000000E+000	-2,3977354E-002	41	7,7947647E-005
2	1	0	1	0	2,009855497472398E+005	2,3403711E+000	2,3411164E+000	3,252318990145586E-002	1,000000000000000E+000	-2,2835962E-002	41	7,6140575E-005
2	1	0	1	0	2,010198295526035E+005	2,3643670E+000	2,3651373E+000	3,159106475337603E-002	1,000000000000000E+000	-2,1729304E-002	41	7,4717209E-005
2	1	0	1	0	2,010541090579676E+005	2,3883624E+000	2,3891203E+000	3,080663402691830E-002	1,000000000000000E+000	-2,0652128E-002	41	7,3600757E-005
2	1	0	1	0	2,010883889633316E+005	2,4123585E+000	2,4130943E+000	3,026854935964590E-002	1,000000000000000E+000	-1,9597387E-002	41	7,3040865E-005
2	1	0	1	0	2,011226687686951E+005	2,4363544E+000	2,4370863E+000	2,968902358226488E-002	1,000000000000000E+000	-1,8561577E-002	41	7,2354713E-005
2	1	0	1	0	2,011569483740586E+005	2,4603498E+000	2,4611244E+000	2,898043898485148E-002	1,000000000000000E+000	-1,7547918E-002	41	7,1324466E-005
2	1	0	1	0	2,011912280794224E+005	2,4843457E+000	2,4851143E+000	2,824330509132452E-002	1,000000000000000E+000	-1,6559357E-002	41	7,0187845E-005
2	1	0	1	0	2,012255079847854E+005	2,5083418E+000	2,5091367E+000	2,764797923249612E-002	1,000000000000000E+000	-1,5594224E-002	41	6,9372560E-005
2	1	0	1	0	2,012597875901479E+005	2,5323372E+000	2,5331030E+000	2,708475227270779E-002	1,000000000000000E+000	-1,4648856E-002	41	6,8608468E-005
2	1	0	1	0	2,012940671955114E+005	2,5563331E+000	2,5571053E+000	2,645637326008787E-002	1,000000000000000E+000	-1,3722916E-002	41	6,7651730E-005
2	1	0	1	0	2,013283471008749E+005	2,5803289E+000	2,5811284E+000	2,599813257708750E-002	1,000000000000000E+000	-1,2816180E-002	41	6,7104520E-005
2	1	0	1	0	2,013626270062379E+005	2,6043248E+000	2,6051347E+000	2,579295668433659E-002	1,000000000000000E+000	-1,1921897E-002	41	6,7194131E-005
2	1	0	1	0	2,013969064116020E+005	2,6283205E+000	2,6291203E+000	2,578563734594108E-002	1,000000000000000E+000	-1,1029948E-002	41	6,7793546E-005
2	1	0	1	0	2,014311862169660E+005	2,6523163E+000	2,6531062E+000	2,538726001121472E-002	1,000000000000000E+000	-1,0144199E-002	41	6,7355097E-005
2	1	0	1	0	2,014654661223297E+005	2,6763122E+000	2,6771045E+000	2,471245409052392E-002	1,000000000000000E+000	-9,2786616E-003	41	6,6157823E-005
2	1	0	1	0	2,014997456276929E+005	2,7003081E+000	2,7011082E+000	2,416949896321119E-002	1,000000000000000E+000	-8,4341327E-003	41	6,5284432E-005
2	1	0	1	0	2,015340254330570E+005	2,7243037E+000	2,7250872E+000	2,382880850764002E-002	1,000000000000000E+000	-7,6047848E-003	41	6,4935579E-005
2	1	0	1	0	2,015683052384201E+005	2,7482998E+000	2,7490871E+000	2,362688470329960E-002	1,000000000000000E+000	-6,7845415E-003	41	6,4952364E-005
2	1	0	1	0	2,016025849437825E+005	2,7722952E+000	2,7730978E+000	2,361121652399439E-002	1,000000000000000E+000	-5,9678480E-003	41	6,5476212E-005
2	1	0	1	0	2,016368646491459E+005	2,7962914E+000	2,7971132E+000	2,377241859596000E-002	1,000000000000000E+000	-5,1488294E-003	41	6,6494147E-005
2	1	0	1	0	2,016711444545095E+005	2,8202870E+000	2,8210909E+000	2,407058520647020E-002	1,000000000000000E+000	-4,3213335E-003	41	6,7905312E-005
2	1	0	1	0	2,017054240598725E+005	2,8442824E+000	2,8451180E+000	2,427777643130717E-002	1,000000000000000E+000	-3,4836642E-003	41	6,9073139E-005
2	1	0	1	0	2,017397038652364E+005	2,8682785E+000	2,8690839E+000	2,412213596466820E-002	1,000000000000000E+000	-2,6457654E-003	41	6,9208429E-005
2	1	0	1	0	2,017739836706006E+005	2,8922746E+000	2,8930550E+000	2,391702463254619E-002	1,000000000000000E+000	-1,8146512E-003	41	6,9193266E-005
2	1	0	1	0	2,018082634759645E+005	2,9162703E+000	2,9170766E+000	2,375349539625476E-002	1,000000000000000E+000	-9,9015341E-004	41	6,9290763E-005
2	1	0	1	0	2,018425428813277E+005	2,9402659E+000	2,9410770E+000	2,370795574982026E-002	1,000000000000000E+000	-1,6990774E-004	41	6,9726921E-005
2	1	0	1	0	2,018768228866914E+005	2,9642620E+000	2,9650626E+000	2,371768317342138E-002	1,000000000000000E+000	6,4959179E-004	41	7,0324415E-005
2	1	0	1	0	2,019111026920546E+005	2,9882579E+000	2,9890573E+000	2,392580235238301E-002	1,000000000000000E+000	1,4730499E-003	41	7,1515591E-005
2	1	0	1	1	2,019429538970373E+005	2,9894576E+000	2,9902637E+000	1,495083450192741E-002	1,000000000000000E+000	2,1367082E-003	41	4,4706936E-005
2	1	0	1	1	2,019772338024013E+005	2,9654617E+000	2,9662609E+000	9,981372257687623E-003	1,000000000000000E+000	2,5461372E-003	41	2,9607354E-005
2	1	0	1	1	2,020115137077654E+005	2,9414659E+000	2,9422917E+000	7,146128879516316E-003	1,000000000000000E+000	2,8287945E-003	41	2,1025997E-005
2	1	0	1	1	2,020457933131286E+005	2,9174697E+000	2,9182398E+000	5,205408193967632E-003	1,000000000000000E+000	3,0322487E-003	42	1,5190630E-005
2	1	0	1	1	2,020800729184924E+005	2,8934743E+000	2,8942747E+000	3,801563205592023E-003	1,000000000000000E+000	3,1788494E-003	42	1,1002769E-005
2	1	0	1	1	2,021143527238555E+005	2,8694785E+000	2,8702636E+000	2,704628576463398E-003	1,000000000000000E+000	3,2828110E-003	42	7,7629966E-006
2	1	0	1	1	2,021486324292189E+005	2,8454823E+000	2,8462791E+000	1,777831665009229E-003	1,000000000000000E+000	3,3523575E-003	42	5,0602052E-006
2	1	0	1	1	2,021829121345812E+005	2,8214867E+000	2,8223290E+000	1,026787085755027E-003	1,000000000000000E+000	3,3930992E-003	42	2,8979309E-006
2	1	0	1	1	2,022171915399451E+005	2,7974908E+000	2,7983272E+000	4,245308683534840E-004	1,000000000000000E+000	3,4106718E-003	42	1,1879763E-006
2	0	0	1	1	2,022516141453306E+005	2,7733953E+000	2,7742314E+000	-1,758013234380003E-004	1,000000000000000E+000	3,4094881E-003	43	-4,8771358E-007
2	0	0	1	1	2,022858939506940E+005	2,7493994E+000	2,7502501E+000	-6,174615489598061E-004	1,000000000000000E+000	3,3919611E-003	43	-1,6981737E-006
2	0	0	1	1	2,023201735560573E+005	2,7254038E+000	2,7262170E+000	-9,910982106766629E-004	1,000000000000000E+000	3,3588291E-003	42	-2,7019489E-006
2	0	0	1	1	2,023544533614215E+005	2,7014077E+000	2,7022474E+000	-1,409362094978840E-003	1,000000000000000E+000	3,3110988E-003	42	-3,8084449E-006
2	0	0	1	1	2,023887331667856E+005	2,6774118E+000	2,6782303E+000	-1,880993813999619E-003	1,000000000000000E+000	3,2479465E-003	42	-5,0377348E-006
2	0	0	1	1	2,024230125721490E+005	2,6534159E+000	2,6542428E+000	-2,468790234285548E-003	1,000000000000000E+000	3,1670025E-003	42	-6,5527688E-006
2	0	0	1	1	2,024572921775123E+005	2,6294203E+000	2,6302598E+000	-3,270329789562848E-003	1,000000000000000E+000	3,0624056E-003	42	-8,6018172E-006
2	0	0	1	1	2,024915719828764E+005	2,6054242E+000	2,6062856E+000	-3,970716238086362E-003	1,000000000000000E+000	2,9305187E-003	42	-1,0348820E-005
2	0	0	1	1	2,025258515882394E+005	2,5814285E+000	2,5822735E+000	-4,147792393297350E-003	1,000000000000000E+000	2,7836475E-003	42	-1,0710734E-005
2	0	0	1	1	2,025601313936021E+005	2,5574329E+000	2,5583136E+000	-4,302465931431167E-003	1,000000000000000E+000	2,6326897E-003	42	-1,1007057E-005
2	0	0	1	1	2,025944111989653E+005	2,5334373E+000	2,5342948E+000	-4,681501593320644E-003	1,000000000000000E+000	2,4728074E-003	42	-1,1864306E-005
2	0	0	1	1	2,026286905043286E+005	2,5094416E+000	2,5103130E+000	-5,090977828787160E-003	1,000000000000000E+000	2,2989060E-003	42	-1,2779948E-005
2	0	0	1	1	2,026629702096923E+005	2,4854457E+000	2,4863179E+000	-5,526067869667362E-003	1,000000000000000E+000	2,1099728E-003	42	-1,3739561E-005
2	0	0	1	1	2,026972500150562E+005	2,4614501E+000	2,4623280E+000	-5,980567439914632E-003	1,000000000000000E+000	1,9058866E-003	42	-1,4726118E-005
2	0	0	1	1	2,027315298204201E+005	2,4374540E+000	2,4383111E+000	-6,397106076454051E-003	1,000000000000000E+000	1,6866958E-003	42	-1,5598134E-005
2	0	0	1	1	2,027658093257835E+005	2,4134581E+000	2,4143262E+000	-6,690363612250422E-003	1,000000000000000E+000	1,4546607E-003	42	-1,6152720E-005
2	0	0	1	1	2,028000890311473E+005	2,3894620E+000	2,3903048E+000	-6,939847396053682E-003	1,000000000000000E+000	1,2144311E-003	42	-1,6588350E-005
2	0	0	1	1	2,028343686365113E+005	2,3654666E+000	2,3663349E+000	-7,135484198176723E-003	1,000000000000000E+000	9,6728961E-004	42	-1,6884946E-005
2	0	0	1	1	2,028686483418737E+005	2,3414705E+000	2,3423457E+000	-7,409761288779938E-003	1,000000000000000E+000	7,1173022E-004	42	-1,7356222E-005
2	0	0	1	1	2,029029280472361E+005	2,3174748E+000	2,3183477E+000	-7,726418726217647E-003	1,000000000000000E+000	4,4595703E-004	42	-1,7912525E-005
2	0	0	1	1	2,029372078525997E+005	2,2934792E+000	2,2943611E+000	-8,091711090062959E-003	1,000000000000000E+000	1,6840316E-004	42	-1,8565308E-005
2	0	0	1	1	2,029714876579633E+005	2,2694833E+000	2,2703404E+000	-8,513395019159098E-003	1,000000000000000E+000	-1,2253445E-004	42	-1,9328305E-005
2	0	0	1	1	2,030036244629921E+005	2,2469873E+000	2,2478726E+000	-8,936788693992032E-003	2,000000000000000E+000	-4,0860774E-004	42	-2,0088763E-005
2	0	0	1	1	2,030379042683565E+005	2,2229915E+000	2,2237620E+000	-9,433650388293451E-003	2,000000000000000E+000	-7,3030329E-004	41	-2,0978194E-005
2	0	0	1	1	2,030721838737195E+005	2,1989958E+000	2,1997573E+000	-9,988188595870570E-003	2,000000000000000E+000	-1,0696893E-003	41	-2,1971591E-005
2	0	0	1	1	2,031064636790827E+005	2,1749997E+000	2,1757960E+000	-1,059710487961976E-002	2,000000000000000E+000	-1,4295044E-003	41	-2,3057139E-005
2	0	0	1	1	2,031407434844468E+005	2,1510041E+000	2,1517844E+000	-1,129016827751718E-002	2,000000000000000E+000	-1,8117633E-003	41	-2,4294008E-005
2	0	0	1	1	2,031750230898093E+005	2,1270084E+000	2,1277990E+000	-1,204599780767995E-002	2,000000000000000E+000	-2,2186805E-003	41	-2,5631463E-005
2	0	0	1	1	2,032093024951722E+005	2,1030126E+000	2,1037991E+000	-1,285889620160977E-002	2,000000000000000E+000	-2,6522903E-003	41	-2,7052534E-005
2	0	0	1	1	2,032435823005359E+005	2,0790169E+000	2,0797892E+000	-1,376272290106421E-002	2,000000000000000E+000	-3,1156037E-003	41	-2,8623563E-005
2	0	0	1	1	2,032778619058989E+005	2,0550208E+000	2,0558107E+000	-1,470853120158666E-002	2,000000000000000E+000	-3,6108054E-003	41	-3,0237956E-005
2	0	0	1	1	2,033121417112626E+005	2,0310252E+000	2,0318015E+000	-1,583799905239667E-002	2,000000000000000E+000	-4,1417726E-003	41	-3,2179669E-005
2	0	0	1	1	2,033464215166268E+005	2,0070293E+000	2,0078003E+000	-1,702258055428468E-002	2,000000000000000E+000	-4,7117458E-003	41	-3,4177941E-005
2	0	0	1	1	2,033807013219909E+005	1,9830338E+000	1,9838195E+000	-1,823337555778595E-002	2,000000000000000E+000	-5,3229872E-003	41	-3,6171725E-005
2	0	0	1	1	2,034149808273539E+005	1,9590377E+000	1,9598266E+000	-1,946955384206855E-002	2,000000000000000E+000	-5,9768762E-003	41	-3,8156948E-005
2	0	0	1	1	2,034492606327175E+005	1,9350418E+000	1,9358402E+000	-2,075088806957401E-002	2,000000000000000E+000	-6,6729854E-003	41	-4,0170406E-005
2	0	0	1	1	2,034835403380813E+005	1,9110461E+000	1,9118158E+000	-2,224013358448074E-002	2,000000000000000E+000	-7,4161431E-003	41	-4,2519037E-005
2	0	0	1	1	2,035178200434437E+005	1,8870503E+000	1,8878556E+000	-2,395481435048368E-002	2,000000000000000E+000	-8,2141077E-003	41	-4,5223231E-005
2	0	0	1	1	2,035520997488070E+005	1,8630548E+000	1,8638242E+000	-2,590216543518134E-002	2,000000000000000E+000	-9,0753073E-003	41	-4,8277085E-005
2	0	0	1	1	2,035863795541707E+005	1,8390588E+000	1,8398452E+000	-2,816533938283083E-002	2,000000000000000E+000	-1,0008734E-002	41	-5,1819865E-005
2	0	0	1	1	2,036206590595338E+005	1,8150629E+000	1,8158671E+000	-3,084999652540249E-002	2,000000000000000E+000	-1,1026472E-002	41	-5,6019493E-005
2	0	0	1	1	2,036549387648972E+005	1,7910674E+000	1,7918702E+000	-3,408318486165640E-002	2,000000000000000E+000	-1,2145006E-002	41	-6,1072642E-005
2	0	0	1	1	2,036892186702613E+005	1,7670714E+000	1,7678879E+000	-3,786090387013197E-002	2,000000000000000E+000	-1,3384182E-002	41	-6,6933833E-005
2	0	0	1	1	2,037234982756254E+005	1,7430756E+000	1,7439127E+000	-4,236609963440463E-002	2,000000000000000E+000	-1,4765120E-002	41	-7,3882780E-005
2	0	0	1	1	2,037577779809886E+005	1,7190799E+000	1,7199202E+000	-4,764650150620009E-002	2,000000000000000E+000	-1,6313525E-002	41	-8,1948179E-005
2	0	0	1	1	2,037920576863522E+005	1,6950840E+000	1,6959156E+000	-5,381791436257255E-002	2,000000000000000E+000	-1,8058382E-002	41	-9,1270638E-005
2	0	0	1	1	2,038263373917160E+005	1,6710881E+000	1,6719038E+000	-6,108809184197295E-002	2,000000000000000E+000	-2,0032346E-002	41	-1,0213342E-004
2	0	0	1	1	2,038606170970788E+005	1,6470925E+000	1,6479229E+000	-6,938528464530025E-002	2,000000000000000E+000	-2,2272658E-002	41	-1,1434160E-004
2	0	0	1	1	2,038948968024412E+005	1,6230967E+000	1,6239575E+000	-7,909938106025627E-002	2,000000000000000E+000	-2,4820972E-002	41	-1,2845403E-004
2	0	0	1	1	2,039291765078050E+005	1,5991009E+000	1,5999857E+000	-9,100525147036537E-002	2,000000000000000E+000	-2,7737606E-002	41	-1,4560710E-004
2	0	0	1	1	2,039634564131685E+005	1,5751051E+000	1,5758984E+000	-1,059573630404662E-001	2,000000000000000E+000	-3,1112729E-002	40	-1,6697805E-004
2	0	0	1	1	2,039977360185318E+005	1,5511092E+000	1,5518951E+000	-1,258207854332800E-001	2,000000000000000E+000	-3,5077844E-002	40	-1,9526067E-004
2	0	0	1	1	2,040320155238960E+005	1,5271136E+000	1,5278947E+000	-1,557078182288680E-001	2,000000000000000E+000	-3,9870419E-002	40	-2,3790516E-004
2	0	0	1	1	2,040662954292599E+005	1,5031177E+000	1,5038948E+000	-1,948013259029899E-001	2,000000000000000E+000	-4,5899007E-002	40	-2,9296070E-004
2	0	0	1	1	2,041005751346236E+005	1,4791218E+000	1,4799000E+000	-2,196972630197704E-001	2,000000000000000E+000	-5,3059854E-002	40	-3,2512998E-004
2	0	0	1	1	2,041348548399867E+005	1,4551260E+000	1,4558980E+000	-2,307821361051646E-001	2,000000000000000E+000	-6,0820073E-002	40	-3,3599525E-004
2	0	0	1	1	2,041691344453506E+005	1,4311304E+000	1,4319175E+000	-2,337258057419929E-001	2,000000000000000E+000	-6,8804182E-002	40	-3,3467609E-004
2	0	0	1	1	2,042034141507135E+005	1,4071344E+000	1,4079465E+000	-2,327162381049499E-001	2,000000000000000E+000	-7,6814502E-002	40	-3,2765200E-004
2	0	0	1	1	2,042376938560763E+005	1,3831387E+000	1,3839391E+000	-2,300741433651101E-001	2,000000000000000E+000	-8,4757127E-002	40	-3,1840862E-004
2	0	0	1	1	2,042719735614397E+005	1,3591429E+000	1,3599237E+000	-2,275206408225383E-001	2,000000000000000E+000	-9,2606157E-002	40	-3,0941071E-004
2	0	0	1	1	2,043062532668030E+005	1,3351471E+000	1,3359410E+000	-2,234313265934889E-001	2,000000000000000E+000	-1,0035285E-001	40	-2,9849107E-004
2	0	0	1	1	2,043405330721664E+005	1,3111513E+000	1,3119754E+000	-2,166973536102423E-001	2,000000000000000E+000	-1,0790838E-001	40	-2,8430158E-004
2	0	0	1	1	2,043748127775303E+005	1,2871555E+000	1,2879436E+000	-2,094586879719573E-001	2,000000000000000E+000	-1,1522022E-001	40	-2,6977097E-004
2	0	0	1	1	2,044090922828944E+005	1,2631596E+000	1,2639583E+000	-2,025290948256790E-001	2,000000000000000E+000	-1,2228702E-001	40	-2,5598833E-004
2	0	0	1	1	2,044433720882582E+005	1,2391639E+000	1,2399517E+000	-1,961493441324231E-001	2,000000000000000E+000	-1,2912478E-001	40	-2,4321572E-004
2	0	0	1	1	2,044776517936215E+005	1,2151679E+000	1,2159706E+000	-1,903081674834585E-001	2,000000000000000E+000	-1,3575409E-001	40	-2,3140914E-004
2	0	0	1	1	2,045119314989857E+005	1,1911722E+000	1,1919577E+000	-1,850689811716962E-001	2,000000000000000E+000	-1,4219362E-001	40	-2,2059440E-004
2	0	0	1	1	2,045462112043481E+005	1,1671765E+000	1,1679809E+000	-1,803760282203681E-001	2,000000000000000E+000	-1,4846295E-001	40	-2,1067576E-004
2	0	0	1	1	2,045804910097113E+005	1,1431807E+000	1,1439505E+000	-1,763020273197147E-001	2,000000000000000E+000	-1,5458120E-001	40	-2,0168078E-004
2	0	0	1	1	2,046147705150740E+005	1,1191850E+000	1,1199770E+000	-1,728412223342027E-001	2,000000000000000E+000	-1,6057119E-001	40	-1,9357819E-004
2	0	0	1	1	2,046490502204378E+005	1,0951891E+000	1,0959741E+000	-1,700333502333968E-001	2,000000000000000E+000	-1,6645442E-001	40	-1,8635215E-004
2	0	0	1	1	2,046833300258010E+005	1,0711931E+000	1,0719683E+000	-1,679202817527465E-001	2,000000000000000E+000	-1,7225121E-001	40	-1,8000523E-004
2	0	0	1	1	2,047176098311648E+005	1,0471973E+000	1,0479943E+000	-1,664145122734468E-001	2,000000000000000E+000	-1,7798559E-001	40	-1,7440146E-004
2	0	0	1	1	2,047518894365291E+005	1,0232016E+000	1,0239899E+000	-1,655361073421781E-001	2,000000000000000E+000	-1,8367998E-001	40	-1,6950730E-004
2	0	0	1	1	2,047850986417234E+005	9,9995601E-001	1,0006946E+000	-1,654083104183277E-001	2,000000000000000E+000	-1,8918034E-001	40	-1,6552320E-004
2	0	0	1	1	2,048187355469869E+005	1,0235016E+000	1,0242931E+000	-1,263149974371589E-001	2,000000000000000E+000	-1,9388479E-001	40	-1,2938358E-004
2	0	0	1	1	2,048530152523509E+005	1,0474974E+000	1,0482515E+000	-1,091349369019747E-001	2,000000000000000E+000	-1,9789429E-001	40	-1,1440086E-004
2	0	0	1	1	2,048872949577151E+005	1,0714933E+000	1,0722511E+000	-9,714489684678052E-002	2,000000000000000E+000	-2,0141360E-001	40	-1,0416372E-004
2	0	0	1	1	2,049215746630784E+005	1,0954889E+000	1,0962703E+000	-8,768995126158703E-002	2,000000000000000E+000	-2,0456895E-001	40	-9,6131895E-005
2	0	0	1	1	2,049558544684420E+005	1,1194848E+000	1,1202303E+000	-8,000501327876641E-002	2,000000000000000E+000	-2,0743342E-001	40	-8,9624038E-005
2	0	0	1	1	2,049901341738058E+005	1,1434807E+000	1,1442678E+000	-7,339022927495831E-002	2,000000000000000E+000	-2,1005414E-001	40	-8,3978077E-005
2	0	0	1	1	2,050244138791682E+005	1,1674764E+000	1,1682628E+000	-6,765161326100555E-002	2,000000000000000E+000	-2,1246462E-001	40	-7,9034864E-005
2	0	0	1	1	2,050586935845306E+005	1,1914723E+000	1,1922256E+000	-6,259056752916570E-002	2,000000000000000E+000	-2,1468985E-001	40	-7,4622076E-005
2	0	0	1	1	2,050929733898947E+005	1,2154680E+000	1,2162352E+000	-5,793541971194038E-002	2,000000000000000E+000	-2,1674871E-001	40	-7,0463095E-005
2	0	0	1	1	2,051272530952580E+005	1,2394639E+000	1,2402164E+000	-5,364438683313066E-002	2,000000000000000E+000	-2,1865430E-001	40	-6,6530643E-005
2	0	0	1	1	2,051615328006214E+005	1,2634596E+000	1,2642156E+000	-4,964080628178569E-002	2,000000000000000E+000	-2,2041836E-001	40	-6,2756684E-005
2	0	0	1	1	2,051958125059855E+005	1,2874553E+000	1,2882622E+000	-4,609908589902678E-002	2,000000000000000E+000	-2,2205628E-001	41	-5,9387712E-005
2	0	0	1	1	2,052300924113498E+005	1,3114513E+000	1,3122699E+000	-4,237896243962552E-002	2,000000000000000E+000	-2,2356763E-001	41	-5,5612640E-005
2	0	0	1	1	2,052643720167133E+005	1,3354471E+000	1,3362527E+000	-3,872282750230133E-002	2,000000000000000E+000	-2,2495218E-001	41	-5,1743482E-005
2	0	0	1	1	2,052986517220763E+005	1,3594427E+000	1,3602124E+000	-3,500666585910017E-002	2,000000000000000E+000	-2,2621058E-001	41	-4,7616504E-005
2	0	0	1	1	2,053329314274406E+005	1,3834386E+000	1,3842348E+000	-3,113910502759565E-002	2,000000000000000E+000	-2,2734003E-001	41	-4,3103832E-005
2	0	0	1	1	2,053672111328035E+005	1,4074343E+000	1,4082067E+000	-2,708441579608795E-002	2,000000000000000E+000	-2,2833386E-001	41	-3,8140457E-005
2	0	0	1	1	2,054014910381660E+005	1,4314302E+000	1,4322008E+000	-2,256119561474434E-002	2,000000000000000E+000	-2,2918072E-001	41	-3,2312164E-005
2	0	0	1	1	2,054357706435295E+005	1,4554261E+000	1,4561477E+000	-1,744306083395761E-002	2,000000000000000E+000	-2,2986317E-001	41	-2,5399673E-005
2	0	0	1	1	2,054700503488928E+005	1,4794217E+000	1,4801606E+000	-1,138926945447562E-002	2,000000000000000E+000	-2,3035496E-001	41	-1,6857948E-005
2	0	0	1	1	2,055043301542560E+005	1,5034176E+000	1,5042082E+000	-4,115922332714756E-003	2,000000000000000E+000	-2,3061976E-001	42	-6,1912042E-006
2	1	0	1	1	2,055387526596421E+005	1,5275134E+000	1,5281829E+000	4,907123145214867E-003	2,000000000000000E+000	-2,3060794E-001	42	7,4989816E-006
2	1	0	1	1	2,055730325650056E+005	1,5515091E+000	1,5522151E+000	1,675114260172711E-002	2,000000000000000E+000	-2,3023936E-001	41	2,6001377E-005
2	1	0	1	1	2,056073122703695E+005	1,5755050E+000	1,5762185E+000	3,201688336827402E-002	2,000000000000000E+000	-2,2941405E-001	41	5,0465602E-005
2	1	0	1	1	2,056415918757336E+005	1,5995008E+000	1,6001927E+000	6,451646225359699E-002	2,000000000000000E+000	-2,2784433E-001	41	1,0323877E-004
2	1	0	1	1	2,056758715810969E+005	1,6234965E+000	1,6242427E+000	1,238974537935866E-001	2,000000000000000E+000	-2,2465850E-001	40	2,0123953E-004
2	1	0	1	1	2,057101512864605E+005	1,6474924E+000	1,6482102E+000	1,938199141469079E-001	2,000000000000000E+000	-2,1922582E-001	40	3,1945595E-004
2	1	0	1	1	2,057444311918244E+005	1,6714883E+000	1,6721842E+000	2,679787367141540E-001	2,000000000000000E+000	-2,1130866E-001	40	4,4810981E-004
2	1	0	1	1	2,057787108971868E+005	1,6954840E+000	1,6961612E+000	3,418752885829803E-001	2,000000000000000E+000	-2,0083490E-001	40	5,7987560E-004
2	1	0	1	1	2,058129906025501E+005	1,7194797E+000	1,7201496E+000	4,098886077728352E-001	2,000000000000000E+000	-1,8791461E-001	40	7,0506975E-004
2	1	0	1	1	2,058472704079133E+005	1,7434758E+000	1,7441552E+000	4,645790624256598E-001	2,000000000000000E+000	-1,7286919E-001	40	8,1029796E-004
2	1	0	1	1	2,058815501132768E+005	1,7674714E+000	1,7681285E+000	4,980041000238851E-001	2,000000000000000E+000	-1,5629448E-001	40	8,8053523E-004
2	1	0	1	1	2,059158298186400E+005	1,7914672E+000	1,7921594E+000	5,051656795585657E-001	2,000000000000000E+000	-1,3901031E-001	40	9,0533745E-004
2	1	0	1	1	2,059501095240040E+005	1,8154631E+000	1,8161649E+000	4,843816703835828E-001	2,000000000000000E+000	-1,2196353E-001	40	8,7971694E-004
2	1	0	1	1	2,059843894293682E+005	1,8394587E+000	1,8401511E+000	4,390860274849464E-001	2,000000000000000E+000	-1,0606776E-001	40	8,0798462E-004
2	1	0	1	1	2,060186691347319E+005	1,8634546E+000	1,8641137E+000	3,787517210364628E-001	2,000000000000000E+000	-9,2017531E-002	40	7,0603628E-004
2	1	0	1	1	2,060529487400954E+005	1,8874502E+000	1,8881558E+000	3,151677055808086E-001	2,000000000000000E+000	-8,0122918E-002	40	5,9508573E-004
2	1	0	1	1	2,060872284454592E+005	1,9114462E+000	1,9121913E+000	2,547671102266857E-001	2,000000000000000E+000	-7,0362322E-002	40	4,8716343E-004
2	1	0	1	1	2,061215081508216E+005	1,9354419E+000	1,9361985E+000	2,020618547593998E-001	2,000000000000000E+000	-6,2554166E-002	40	3,9123185E-004
2	1	0	1	1	2,061557880561845E+005	1,9594378E+000	1,9601860E+000	1,600528897549740E-001	2,000000000000000E+000	-5,6371633E-002	40	3,1373344E-004
2	1	0	1	1	2,061900677615479E+005	1,9834336E+000	1,9841821E+000	1,288091407240602E-001	2,000000000000000E+000	-5,1440861E-002	40	2,5558079E-004
2	1	0	1	1	2,062243475669115E+005	2,0074291E+000	2,0081859E+000	1,058369586100391E-001	2,000000000000000E+000	-4,7432445E-002	40	2,1254028E-004
2	1	0	1	1	2,062586272722746E+005	2,0314250E+000	2,0321634E+000	8,898625042655239E-002	2,000000000000000E+000	-4,4099830E-002	40	1,8083460E-004
2	1	0	1	1	2,062929069776384E+005	2,0554206E+000	2,0561695E+000	7,631913323778505E-002	2,000000000000000E+000	-4,1268677E-002	40	1,5692507E-004
2	1	0	1	1	2,063271867830026E+005	2,0794165E+000	2,0801795E+000	6,674276370870325E-002	2,000000000000000E+000	-3,8816027E-002	40	1,3883693E-004
2	1	0	1	1	2,063614665883665E+005	2,1034124E+000	2,1042104E+000	5,939912517747770E-002	2,000000000000000E+000	-3,6651470E-002	40	1,2498826E-004
2	1	0	1	1	2,063957461937298E+005	2,1274083E+000	2,1281931E+000	5,367910873791075E-002	2,000000000000000E+000	-3,4710079E-002	40	1,1423951E-004
2	1	0	1	1	2,064300260990933E+005	2,1514039E+000	2,1521978E+000	4,924734223898386E-002	2,000000000000000E+000	-3,2941345E-002	40	1,0599002E-004
2	1	0	1	1	2,064644486044790E+005	2,1754999E+000	2,1762094E+000	4,535255468931176E-002	2,000000000000000E+000	-3,1311214E-002	41	9,8696655E-005
2	1	0	1	1	2,064987284098431E+005	2,1994960E+000	2,2002261E+000	4,241066313210673E-002	2,000000000000000E+000	-2,9800517E-002	41	9,3313043E-005
2	1	0	1	1	2,065330081152059E+005	2,2234914E+000	2,2242267E+000	3,988570278962994E-002	2,000000000000000E+000	-2,8382456E-002	41	8,8714849E-005
2	1	0	1	1	2,065672878205683E+005	2,2474873E+000	2,2482185E+000	3,780318461816051E-002	2,000000000000000E+000	-2,7043182E-002	41	8,4989821E-005
2	1	0	1	1	2,066015676259319E+005	2,2714829E+000	2,2721949E+000	3,605094659608232E-002	2,000000000000000E+000	-2,5769753E-002	41	8,1914775E-005
2	1	0	1	1	2,066358474312953E+005	2,2954788E+000	2,2962151E+000	3,456580293536302E-002	2,000000000000000E+000	-2,4552185E-002	41	7,9370519E-005
2	1	0	1	1	2,066701270366586E+005	2,3194745E+000	2,3202045E+000	3,329824241058854E-002	2,000000000000000E+000	-2,3382183E-002	41	7,7258730E-005
2	1	0	1	1	2,067044068420226E+005	2,3434703E+000	2,3442159E+000	3,216158610862283E-002	2,000000000000000E+000	-2,2252634E-002	41	7,5393698E-005
2	1	0	1	1	2,067386866473866E+005	2,3674662E+000	2,3682187E+000	3,124555244217386E-002	2,000000000000000E+000	-2,1157812E-002	41	7,3996300E-005
2	1	0	1	1	2,067729663527505E+005	2,3914618E+000	2,3922019E+000	3,053335901735765E-002	2,000000000000000E+000	-2,0091273E-002	41	7,3041956E-005
2	1	0	1	1	2,068072460581139E+005	2,4154577E+000	2,4162054E+000	2,998487848764712E-002	2,000000000000000E+000	-1,9045930E-002	41	7,2449628E-005
2	1	0	1	1	2,068415258634775E+005	2,4394538E+000	2,4402065E+000	2,941963167463468E-002	2,000000000000000E+000	-1,8019648E-002	41	7,1789975E-005
2	1	0	1	1	2,068758054688410E+005	2,4634492E+000	2,4642045E+000	2,869256801564934E-002	2,000000000000000E+000	-1,7016130E-002	41	7,0704358E-005
2	1	0	1	1	2,069100850742031E+005	2,4874456E+000	2,4882457E+000	2,796169484810940E-002	2,000000000000000E+000	-1,6037917E-002	41	6,9575566E-005
2	1	0	1	1	2,069443649795665E+005	2,5114410E+000	2,5122504E+000	2,736968083495234E-002	2,000000000000000E+000	-1,5082555E-002	41	6,8759495E-005
2	1	0	1	1	2,069786448849305E+005	2,5354369E+000	2,5362127E+000	2,679270078266760E-002	2,000000000000000E+000	-1,4146755E-002	41	6,7951987E-005
2	1	0	1	1	2,070129242902934E+005	2,5594327E+000	2,5601957E+000	2,622534764775158E-002	2,000000000000000E+000	-1,3231071E-002	41	6,7142020E-005
2	1	0	1	1	2,070472040956569E+005	2,5834284E+000	2,5842144E+000	2,572835532711126E-002	2,000000000000000E+000	-1,2333948E-002	41	6,6487584E-005
2	1	0	1	1	2,070814840010210E+005	2,6074243E+000	2,6082268E+000	2,556090227579921E-002	2,000000000000000E+000	-1,1447982E-002	41	6,6668632E-005
2	1	0	1	1	2,071157635063850E+005	2,6314201E+000	2,6321990E+000	2,552326379715891E-002	2,000000000000000E+000	-1,0563660E-002	41	6,7182307E-005
2	1	0	1	1	2,071500433117484E+005	2,6554158E+000	2,6561913E+000	2,504856912123332E-002	2,000000000000000E+000	-9,6876351E-003	41	6,6533794E-005
2	1	0	1	1	2,071843231171118E+005	2,6794116E+000	2,6802015E+000	2,441039037792481E-002	2,000000000000000E+000	-8,8328859E-003	41	6,5424763E-005
2	1	0	1	1	2,072186029224754E+005	2,7034075E+000	2,7041943E+000	2,389299986827270E-002	2,000000000000000E+000	-7,9981117E-003	41	6,4611311E-005
2	1	0	1	1	2,072528825278385E+005	2,7274032E+000	2,7282038E+000	2,356879055046532E-002	2,000000000000000E+000	-7,1776574E-003	41	6,4300461E-005
2	1	0	1	1	2,072871623332007E+005	2,7513990E+000	2,7521911E+000	2,340767872731184E-002	2,000000000000000E+000	-6,3655823E-003	41	6,4422406E-005
2	1	0	1	1	2,073214419385651E+005	2,7753947E+000	2,7762394E+000	2,342300641619785E-002	2,000000000000000E+000	-5,5556819E-003	41	6,5027874E-005
2	1	0	1	1	2,073557217439280E+005	2,7993908E+000	2,8002229E+000	2,358640683157470E-002	2,000000000000000E+000	-4,7432599E-003	41	6,6047192E-005
2	1	0	1	1	2,073900015492914E+005	2,8233864E+000	2,8241944E+000	2,387233116788615E-002	2,000000000000000E+000	-3,9221682E-003	41	6,7420107E-005
2	1	0	1	1	2,074242813546555E+005	2,8473825E+000	2,8482220E+000	2,401599078561580E-002	2,000000000000000E+000	-3,0927891E-003	41	6,8402871E-005
2	1	0	1	1	2,074585608600199E+005	2,8713779E+000	2,8721812E+000	2,384043901822142E-002	2,000000000000000E+000	-2,2641895E-003	41	6,8474059E-005
2	1	0	1	1	2,074928407653833E+005	2,8953738E+000	2,8961723E+000	2,365867813026666E-002	2,000000000000000E+000	-1,4424858E-003	41	6,8519606E-005
2	1	0	1	1	2,075271205707467E+005	2,9193697E+000	2,9202151E+000	2,353657787629549E-002	2,000000000000000E+000	-6,2658032E-004	41	6,8731868E-005
2	1	0	1	1	2,075613999761101E+005	2,9433653E+000	2,9441698E+000	2,347195404292290E-002	2,000000000000000E+000	1,8584257E-004	41	6,9105416E-005
2	1	0	1	1	2,075956798814735E+005	2,9673612E+000	2,9681439E+000	2,354069857211843E-002	2,000000000000000E+000	9,9790969E-004	41	6,9872185E-005
2	1	0	1	1	2,076299597868361E+005	2,9913573E+000	2,9921567E+000	2,368117096927469E-002	2,000000000000000E+000	1,8143869E-003	41	7,0857772E-005
2	1	0	1	0	2,076616683917979E+005	2,9864578E+000	2,9872510E+000	1,390286392458195E-002	2,000000000000000E+000	2,4250688E-003	41	4,1531344E-005
2	1	0	1	0	2,076959481971618E+005	2,9624622E+000	2,9632905E+000	9,388891285560308E-003	2,000000000000000E+000	2,8078903E-003	41	2,7822012E-005
2	1	0	1	0	2,077302278025257E+005	2,9384663E+000	2,9393075E+000	6,741713482183442E-003	2,000000000000000E+000	3,0741193E-003	41	1,9815969E-005
2	1	0	1	0	2,077645074078878E+005	2,9144707E+000	2,9152586E+000	4,904714585737047E-003	2,000000000000000E+000	3,2652847E-003	42	1,4298512E-005
2	1	0	1	0	2,077987872132510E+005	2,8904748E+000	2,8912551E+000	3,561876521536240E-003	2,000000000000000E+000	3,4026920E-003	42	1,0298294E-005
2	1	0	1	0	2,078330670186146E+005	2,8664789E+000	2,8672857E+000	2,499456199106097E-003	2,000000000000000E+000	3,4992553E-003	42	7,1666550E-006
2	1	0	1	0	2,078673466239776E+005	2,8424830E+000	2,8432915E+000	1,591831128551251E-003	2,000000000000000E+000	3,5621030E-003	42	4,5260399E-006
2	1	0	1	0	2,079016264293414E+005	2,8184874E+000	2,8193121E+000	8,758099269344662E-004	2,000000000000000E+000	3,5974162E-003	42	2,4691815E-006
2	1	0	1	0	2,079359060347054E+005	2,7944918E+000	2,7953150E+000	3,127080037966159E-004	2,000000000000000E+000	3,6102594E-003	42	8,7411740E-007
2	0	0	1	0	2,079703284400907E+005	2,7703958E+000	2,7712333E+000	-2,596289310980463E-004	2,000000000000000E+000	3,6051294E-003	43	-7,1949233E-007
2	0	0	1	0	2,080046080454551E+005	2,7464004E+000	2,7472332E+000	-6,585381463372272E-004	2,000000000000000E+000	3,5837784E-003	42	-1,8091579E-006
2	0	0	1	0	2,080388878508187E+005	2,7224042E+000	2,7232752E+000	-1,070937701010240E-003	2,000000000000000E+000	3,5474922E-003	42	-2,9164580E-006
2	0	0	1	0	2,080731676561818E+005	2,6984084E+000	2,6992271E+000	-1,509911378722663E-003	2,000000000000000E+000	3,4963645E-003	42	-4,0755936E-006
2	0	0	1	0	2,081074472615458E+005	2,6744125E+000	2,6752303E+000	-1,974642909600907E-003	2,000000000000000E+000	3,4299863E-003	42	-5,2826244E-006
2	0	0	1	0	2,081417266669087E+005	2,6504171E+000	2,6512434E+000	-2,597799981228000E-003	2,000000000000000E+000	3,3455919E-003	42	-6,8874001E-006
2	0	0	1	0	2,081760064722709E+005	2,6264210E+000	2,6272645E+000	-3,383147056046074E-003	2,000000000000000E+000	3,2369499E-003	42	-8,8884226E-006
2	0	0	1	0	2,082102861776352E+005	2,6024249E+000	2,6032913E+000	-4,007291395228013E-003	2,000000000000000E+000	3,1022150E-003	42	-1,0432147E-005
2	0	0	1	0	2,082445658829983E+005	2,5784292E+000	2,5792696E+000	-4,149199970844224E-003	2,000000000000000E+000	2,9548288E-003	42	-1,0701906E-005
2	0	0	1	0	2,082788456883614E+005	2,5544333E+000	2,5552731E+000	-4,344151348812043E-003	2,000000000000000E+000	2,8031920E-003	42	-1,1100493E-005
2	0	0	1	0	2,083131252937254E+005	2,5304377E+000	2,5312929E+000	-4,733681163545837E-003	2,000000000000000E+000	2,6415817E-003	42	-1,1982333E-005
2	0	0	1	0	2,083474046990898E+005	2,5064421E+000	2,5073521E+000	-5,141974843230999E-003	2,000000000000000E+000	2,4658202E-003	42	-1,2892741E-005
2	0	0	1	0	2,083816845044533E+005	2,4824462E+000	2,4833286E+000	-5,600567426623305E-003	2,000000000000000E+000	2,2750280E-003	42	-1,3908049E-005
2	0	0	1	0	2,084159643098167E+005	2,4584503E+000	2,4593363E+000	-6,024345251096252E-003	2,000000000000000E+000	2,0692269E-003	42	-1,4815891E-005
2	0	0	1	0	2,084502440151805E+005	2,4344542E+000	2,4353304E+000	-6,426484079173400E-003	2,000000000000000E+000	1,8487575E-003	42	-1,5650612E-005
2	0	0	1	0	2,084845237205434E+005	2,4104586E+000	2,4113362E+000	-6,721988795624432E-003	2,000000000000000E+000	1,6160822E-003	42	-1,6208975E-005
2	0	0	1	0	2,085188031259058E+005	2,3864627E+000	2,3873184E+000	-6,929390478646769E-003	2,000000000000000E+000	1,3751567E-003	42	-1,6542661E-005
2	0	0	1	0	2,085530829312694E+005	2,3624671E+000	2,3633418E+000	-7,132813427107594E-003	2,000000000000000E+000	1,1275192E-003	42	-1,6857277E-005
2	0	0	1	0	2,085873625366327E+005	2,3384712E+000	2,3393304E+000	-7,420917920477162E-003	2,000000000000000E+000	8,7100855E-004	42	-1,7359978E-005
2	0	0	1	0	2,086216423419958E+005	2,3144755E+000	2,3153565E+000	-7,745669812874029E-003	2,000000000000000E+000	6,0392520E-004	42	-1,7933988E-005
2	0	0	1	0	2,086559221473601E+005	2,2904797E+000	2,2913692E+000	-8,136936322529556E-003	2,000000000000000E+000	3,2517532E-004	42	-1,8644725E-005
2	0	0	1	0	2,086902017527244E+005	2,2664838E+000	2,2673779E+000	-8,528915119539120E-003	2,000000000000000E+000	3,2923374E-005	42	-1,9338273E-005
2	0	0	1	0	2,087141762564736E+005	2,2496376E+000	2,2505522E+000	-9,333027046173836E-003	2,000000000000000E+000	-1,8029088E-004	42	-2,1004464E-005