File: Dati/210416_2/CV_LTO-CB_grafite nuova_15 layers__05_CV_C01.mpt
EC-Lab ASCII FILE
Nb header lines : 57

Cyclic Voltammetry

Run on channel : 1 (SN 6806)
User : Seelab
Electrode connection : standard
Ewe ctrl range : min = 0,00 V, max = 5,00 V
Ewe,I filtering : 50 kHz
Safety Limits :
	Do not start on E overload
Channel : Grounded
Acquisition started on : 04/16/2021 18:47:00
Saved on :
	File : CV_LTO-CB_grafite nuova_15 layers__05_CV_C01.mpr
	Directory : C:\Users\labsuperfici\Desktop\Biologic\Users\Prisca Viviani\210416_2\
	Host : 10.78.33.0
Device : VSP-300 (SN 0638)
Address : USB
EC-Lab for windows v11.31 (software)
Internet server v11.30 (firmware)
Command interpretor v11.31 (firmware)
Electrode material :
Initial state :
Electrolyte :
Comments :
Cable : standard
Reference electrode : SCE Saturated Calomel Electrode (0,241 V)
Electrode surface area : 0,001 cm²
Characteristic mass : 0,001 g
Equivalent Weight : 0,000 g/eq.
Density : 0,000 g/cm3
Cycle Definition : Charge/Discharge alternance
Ei (V)              0,000
vs.                 Eoc
dE/dt               0,400
dE/dt unit          mV/s
E1 (V)              1,000
vs.                 Ref
Step percent        50
N                   10
E range min (V)     0,000
E range max (V)     5,000
I Range             Auto
I Range min         Unset
I Range max         Unset
I Range init        Unset
Bandwidth           8
E2 (V)              3,000
vs.                 Ref
nc cycles           1
Reverse Scan        1
Ef (V)              0,000
vs.                 Eoc

mode	ox/red	error	control changes	counter inc.	time/s	control/V	Ewe/V	<I>/mA	cycle number	(Q-Qo)/C	I Range	P/W
2	0	0	1	0	1,479503961492679E+005	2,2496376E+000	2,2504454E+000	-4,634588025510311E-003	1,000000000000000E+000	0,0000000E+000	42	-1,0429887E-005
2	0	0	1	0	1,480092608584804E+005	2,2260911E+000	2,2269230E+000	-5,425076779050242E-003	1,000000000000000E+000	-3,0579712E-004	42	-1,2081228E-005
2	0	0	1	0	1,480692502678649E+005	2,2020950E+000	2,2029493E+000	-5,945446899290423E-003	1,000000000000000E+000	-6,5331970E-004	42	-1,3097518E-005
2	0	0	1	0	1,481292399772499E+005	2,1780992E+000	2,1789601E+000	-6,459887797463107E-003	1,000000000000000E+000	-1,0320018E-003	42	-1,4075837E-005
2	0	0	1	0	1,481892294866382E+005	2,1541033E+000	2,1549981E+000	-6,964199775137764E-003	1,000000000000000E+000	-1,4411879E-003	42	-1,5007837E-005
2	0	0	1	0	1,482492185960229E+005	2,1301079E+000	2,1309659E+000	-7,508913389282723E-003	1,000000000000000E+000	-1,8819782E-003	42	-1,6001239E-005
2	0	0	1	0	1,483092083054082E+005	2,1061118E+000	2,1070139E+000	-8,061251031210970E-003	1,000000000000000E+000	-2,3553739E-003	42	-1,6985168E-005
2	0	0	1	0	1,483691977147963E+005	2,0821164E+000	2,0829773E+000	-8,673752643314063E-003	1,000000000000000E+000	-2,8637524E-003	42	-1,8067230E-005
2	0	0	1	0	1,484291871241812E+005	2,0581203E+000	2,0590007E+000	-9,328811713599755E-003	1,000000000000000E+000	-3,4100881E-003	42	-1,9208030E-005
2	0	0	1	0	1,484891765335663E+005	2,0341244E+000	2,0349019E+000	-1,007186795815719E-002	1,000000000000000E+000	-3,9992593E-003	41	-2,0495263E-005
2	0	0	1	0	1,485491661429545E+005	2,0101287E+000	2,0108981E+000	-1,087771225955039E-002	1,000000000000000E+000	-4,6352092E-003	41	-2,1873971E-005
2	0	0	1	0	1,486091555523392E+005	1,9861330E+000	1,9869159E+000	-1,171016119647368E-002	1,000000000000000E+000	-5,3199544E-003	41	-2,3267106E-005
2	0	0	1	0	1,486691451617242E+005	1,9621372E+000	1,9629149E+000	-1,254654016956609E-002	1,000000000000000E+000	-6,0541639E-003	41	-2,4627790E-005
2	0	0	1	0	1,487291347711124E+005	1,9381413E+000	1,9389429E+000	-1,341227555688890E-002	1,000000000000000E+000	-6,8390565E-003	41	-2,6005637E-005
2	0	0	1	0	1,487891240804978E+005	1,9141457E+000	1,9149436E+000	-1,448348595631654E-002	1,000000000000000E+000	-7,6827947E-003	41	-2,7735059E-005
2	0	0	1	0	1,488491134898821E+005	1,8901496E+000	1,8909410E+000	-1,568649771884661E-002	1,000000000000000E+000	-8,5959639E-003	41	-2,9662242E-005
2	0	0	1	0	1,489091029992704E+005	1,8661541E+000	1,8669338E+000	-1,692587648514365E-002	1,000000000000000E+000	-9,5814047E-003	41	-3,1599491E-005
2	0	0	1	0	1,489690924086560E+005	1,8421580E+000	1,8429538E+000	-1,843090480410603E-002	1,000000000000000E+000	-1,0647794E-002	41	-3,3967306E-005
2	0	0	1	0	1,490290818180400E+005	1,8181624E+000	1,8189323E+000	-2,021341139257138E-002	1,000000000000000E+000	-1,1812390E-002	41	-3,6766825E-005
2	0	0	1	0	1,490890714274282E+005	1,7941666E+000	1,7949421E+000	-2,230830487626840E-002	1,000000000000000E+000	-1,3092441E-002	41	-4,0042116E-005
2	0	0	1	0	1,491490607368140E+005	1,7701709E+000	1,7709295E+000	-2,482530089964728E-002	1,000000000000000E+000	-1,4512090E-002	41	-4,3963857E-005
2	0	0	1	0	1,492090502461989E+005	1,7461751E+000	1,7469840E+000	-2,777395720576253E-002	1,000000000000000E+000	-1,6094474E-002	41	-4,8520658E-005
2	0	0	1	0	1,492690397555861E+005	1,7221792E+000	1,7230005E+000	-3,115613258705008E-002	1,000000000000000E+000	-1,7867006E-002	41	-5,3682033E-005
2	0	0	1	0	1,493290292649723E+005	1,6981834E+000	1,6989897E+000	-3,510437759307805E-002	1,000000000000000E+000	-1,9860245E-002	41	-5,9641978E-005
2	0	0	1	0	1,493890186743573E+005	1,6741875E+000	1,6750003E+000	-3,964229989947649E-002	1,000000000000000E+000	-2,2107642E-002	41	-6,6400862E-005
2	0	0	1	0	1,494490082837446E+005	1,6501918E+000	1,6509916E+000	-4,473438532953353E-002	1,000000000000000E+000	-2,4645332E-002	41	-7,3856092E-005
2	0	0	1	0	1,495089977931303E+005	1,6261960E+000	1,6269983E+000	-5,063227041277263E-002	1,000000000000000E+000	-2,7507812E-002	41	-8,2378618E-005
2	0	0	1	0	1,495689871025153E+005	1,6022002E+000	1,6030157E+000	-5,761525543636248E-002	1,000000000000000E+000	-3,0753443E-002	41	-9,2358154E-005
2	0	0	1	0	1,496289765119022E+005	1,5782044E+000	1,5790447E+000	-6,669163818496615E-002	1,000000000000000E+000	-3,4475856E-002	41	-1,0530907E-004
2	0	0	1	0	1,496889660212891E+005	1,5542086E+000	1,5550464E+000	-7,891821615834793E-002	1,000000000000000E+000	-3,8831599E-002	41	-1,2272150E-004
2	0	0	1	0	1,497489555306740E+005	1,5302128E+000	1,5310692E+000	-9,739296588497792E-002	1,000000000000000E+000	-4,4079736E-002	41	-1,4911537E-004
2	0	0	1	0	1,498089449400608E+005	1,5062170E+000	1,5069768E+000	-1,249183928621438E-001	1,000000000000000E+000	-5,0735798E-002	40	-1,8824912E-004
2	0	0	1	0	1,498689343494477E+005	1,4822211E+000	1,4829986E+000	-1,477689265501334E-001	1,000000000000000E+000	-5,8973279E-002	40	-2,1914112E-004
2	0	0	1	0	1,499289239588324E+005	1,4582255E+000	1,4589807E+000	-1,608029755839059E-001	1,000000000000000E+000	-6,8283908E-002	40	-2,3460844E-004
2	0	0	1	0	1,499889132682183E+005	1,4342296E+000	1,4350055E+000	-1,663409206825506E-001	1,000000000000000E+000	-7,8134038E-002	40	-2,3870014E-004
2	0	0	1	0	1,500489027776059E+005	1,4102339E+000	1,4110053E+000	-1,675814506775817E-001	1,000000000000000E+000	-8,8174656E-002	40	-2,3645831E-004
2	0	0	1	0	1,501088923869906E+005	1,3862380E+000	1,3870085E+000	-1,666584578352985E-001	1,000000000000000E+000	-9,8216482E-002	40	-2,3115671E-004
2	0	0	1	0	1,501688815963767E+005	1,3622422E+000	1,3630165E+000	-1,654028457848209E-001	1,000000000000000E+000	-1,0818129E-001	40	-2,2544681E-004
2	0	0	1	0	1,502288711057643E+005	1,3382465E+000	1,3390310E+000	-1,628356886073818E-001	1,000000000000000E+000	-1,1804935E-001	40	-2,1804203E-004
2	0	0	1	0	1,502888606151488E+005	1,3142506E+000	1,3150750E+000	-1,574102470376517E-001	1,000000000000000E+000	-1,2767477E-001	40	-2,0700629E-004
2	0	0	1	0	1,503488502245350E+005	1,2902548E+000	1,2910364E+000	-1,517135893218242E-001	1,000000000000000E+000	-1,3695632E-001	40	-1,9586776E-004
2	0	0	1	0	1,504088394339229E+005	1,2662591E+000	1,2670152E+000	-1,461312338052589E-001	1,000000000000000E+000	-1,4589325E-001	40	-1,8515049E-004
2	0	0	1	0	1,504688289433068E+005	1,2422632E+000	1,2430341E+000	-1,410058443257432E-001	1,000000000000000E+000	-1,5451171E-001	40	-1,7527508E-004
2	0	0	1	0	1,505288184526926E+005	1,2182676E+000	1,2190223E+000	-1,363732937636564E-001	1,000000000000000E+000	-1,6284102E-001	40	-1,6624208E-004
2	0	0	1	0	1,505888078620806E+005	1,1942716E+000	1,1950462E+000	-1,320876423382251E-001	1,000000000000000E+000	-1,7089951E-001	40	-1,5785084E-004
2	0	0	1	0	1,506487972714651E+005	1,1702759E+000	1,1710356E+000	-1,282700277900219E-001	1,000000000000000E+000	-1,7871365E-001	40	-1,5020877E-004
2	0	0	1	0	1,507087868808508E+005	1,1462799E+000	1,1470428E+000	-1,247111236984388E-001	1,000000000000000E+000	-1,8630502E-001	40	-1,4304899E-004
2	0	0	1	0	1,507687760902387E+005	1,1222842E+000	1,1230543E+000	-1,215246743651539E-001	1,000000000000000E+000	-1,9369355E-001	40	-1,3647880E-004
2	0	0	1	0	1,508287656996235E+005	1,0982885E+000	1,0990450E+000	-1,188400131320413E-001	1,000000000000000E+000	-2,0090862E-001	40	-1,3061053E-004
2	0	0	1	0	1,508887553090085E+005	1,0742927E+000	1,0750542E+000	-1,166638332878338E-001	1,000000000000000E+000	-2,0797604E-001	40	-1,2541995E-004
2	0	0	1	0	1,509487446183963E+005	1,0502969E+000	1,0510587E+000	-1,151518729144944E-001	1,000000000000000E+000	-2,1493146E-001	40	-1,2103137E-004
2	0	0	1	0	1,510087339277816E+005	1,0263011E+000	1,0270612E+000	-1,141946940331331E-001	1,000000000000000E+000	-2,2181314E-001	40	-1,1728494E-004
2	0	0	1	0	1,510687235371666E+005	1,0023053E+000	1,0030994E+000	-1,135794092507374E-001	1,000000000000000E+000	-2,2864960E-001	40	-1,1393144E-004
2	0	0	1	0	1,511259644461251E+005	1,0205022E+000	1,0212791E+000	-8,955321478940306E-002	1,000000000000000E+000	-2,3436853E-001	40	-9,1458824E-005
2	0	0	1	0	1,511859538555096E+005	1,0444980E+000	1,0452470E+000	-7,669955782737392E-002	1,000000000000000E+000	-2,3932038E-001	40	-8,0169979E-005
2	0	0	1	0	1,512459433648954E+005	1,0684937E+000	1,0692388E+000	-6,772836441698360E-002	1,000000000000000E+000	-2,4363242E-001	40	-7,2417795E-005
2	0	0	1	0	1,513059329742836E+005	1,0924896E+000	1,0932294E+000	-6,100474379854598E-002	1,000000000000000E+000	-2,4747859E-001	40	-6,6692177E-005
2	0	0	1	0	1,513659224836676E+005	1,1164852E+000	1,1172100E+000	-5,551420985568256E-002	1,000000000000000E+000	-2,5096256E-001	40	-6,2021034E-005
2	0	0	1	0	1,514259119930533E+005	1,1404811E+000	1,1411951E+000	-5,080199752250947E-002	1,000000000000000E+000	-2,5414237E-001	40	-5,7974990E-005
2	0	0	1	0	1,514859015024411E+005	1,1644769E+000	1,1652671E+000	-4,684528683709158E-002	1,000000000000000E+000	-2,5706375E-001	41	-5,4587272E-005
2	0	0	1	0	1,515458910118261E+005	1,1884726E+000	1,1892411E+000	-4,307688828932477E-002	1,000000000000000E+000	-2,5975466E-001	41	-5,1228802E-005
2	0	0	1	0	1,516058807212114E+005	1,2124685E+000	1,2132859E+000	-3,970390894192849E-002	1,000000000000000E+000	-2,6223174E-001	41	-4,8172195E-005
2	0	0	1	0	1,516658701305995E+005	1,2364643E+000	1,2372663E+000	-3,657949993844078E-002	1,000000000000000E+000	-2,6451308E-001	41	-4,5258581E-005
2	0	0	1	0	1,517258596399843E+005	1,2604601E+000	1,2612461E+000	-3,363622700757063E-002	1,000000000000000E+000	-2,6661319E-001	41	-4,2423559E-005
2	0	0	1	0	1,517858492493695E+005	1,2844559E+000	1,2852446E+000	-3,089351107932226E-002	1,000000000000000E+000	-2,6854336E-001	41	-3,9705719E-005
2	0	0	1	0	1,518458388587576E+005	1,3084518E+000	1,3092376E+000	-2,830289731180757E-002	1,000000000000000E+000	-2,7031302E-001	41	-3,7055219E-005
2	0	0	1	0	1,519058284681423E+005	1,3324475E+000	1,3332428E+000	-2,576177630415005E-002	1,000000000000000E+000	-2,7192903E-001	41	-3,4346704E-005
2	0	0	1	0	1,519658178775278E+005	1,3564432E+000	1,3572208E+000	-2,322217302015586E-002	1,000000000000000E+000	-2,7339342E-001	41	-3,1517615E-005
2	0	0	1	0	1,520258074869160E+005	1,3804392E+000	1,3812037E+000	-2,060830827860111E-002	1,000000000000000E+000	-2,7470401E-001	41	-2,8464270E-005
2	0	0	1	0	1,520857969963007E+005	1,4044348E+000	1,4052296E+000	-1,783363881742298E-002	1,000000000000000E+000	-2,7585340E-001	41	-2,5060357E-005
2	0	0	1	0	1,521457865056861E+005	1,4284307E+000	1,4292002E+000	-1,482716352474650E-002	1,000000000000000E+000	-2,7682975E-001	41	-2,1190985E-005
2	0	0	1	0	1,522057761150743E+005	1,4524264E+000	1,4531687E+000	-1,144235777096167E-002	1,000000000000000E+000	-2,7761453E-001	41	-1,6627677E-005
2	0	0	1	0	1,522657656244586E+005	1,4764224E+000	1,4771782E+000	-7,450506671698671E-003	1,000000000000000E+000	-2,7817911E-001	41	-1,1005726E-005
2	0	0	1	0	1,523257551338440E+005	1,5004179E+000	1,5011814E+000	-2,736694008827881E-003	1,000000000000000E+000	-2,7848324E-001	42	-4,1082740E-006
2	1	0	1	0	1,523857447432322E+005	1,5244137E+000	1,5251462E+000	3,214168540521156E-003	1,000000000000000E+000	-2,7847028E-001	42	4,9020773E-006
2	1	0	1	0	1,524457342526172E+005	1,5484097E+000	1,5491579E+000	1,116611600866926E-002	1,000000000000000E+000	-2,7804685E-001	41	1,7298076E-005
2	1	0	1	0	1,525057237620023E+005	1,5724053E+000	1,5731143E+000	2,130929161187678E-002	1,000000000000000E+000	-2,7708346E-001	41	3,3521952E-005
2	1	0	1	0	1,525657133713905E+005	1,5964013E+000	1,5971121E+000	4,297355521727406E-002	1,000000000000000E+000	-2,7525371E-001	41	6,8633584E-005
2	1	0	1	0	1,526257029807754E+005	1,6203971E+000	1,6210701E+000	8,003935204808407E-002	1,000000000000000E+000	-2,7159706E-001	41	1,2974940E-004
2	1	0	1	0	1,526856924901600E+005	1,6443928E+000	1,6451391E+000	1,235436771306020E-001	1,000000000000000E+000	-2,6551029E-001	40	2,0324653E-004
2	1	0	1	0	1,527456818995480E+005	1,6683886E+000	1,6690974E+000	1,725258584804013E-001	1,000000000000000E+000	-2,5665048E-001	40	2,8796247E-004
2	1	0	1	0	1,528056717089334E+005	1,6923844E+000	1,6931043E+000	2,266369127170198E-001	1,000000000000000E+000	-2,4468638E-001	40	3,8371992E-004
2	1	0	1	0	1,528656612183186E+005	1,7163802E+000	1,7170863E+000	2,809589631075902E-001	1,000000000000000E+000	-2,2943723E-001	40	4,8243080E-004
2	1	0	1	0	1,529256508277068E+005	1,7403761E+000	1,7410685E+000	3,271130604399562E-001	1,000000000000000E+000	-2,1112192E-001	40	5,6952622E-004
2	1	0	1	0	1,529856402370917E+005	1,7643719E+000	1,7650607E+000	3,559091899810323E-001	1,000000000000000E+000	-1,9051582E-001	40	6,2820129E-004
2	1	0	1	0	1,530456298464770E+005	1,7883674E+000	1,7890842E+000	3,623264711989256E-001	1,000000000000000E+000	-1,6884317E-001	40	6,4823258E-004
2	1	0	1	0	1,531056194558651E+005	1,8123634E+000	1,8130679E+000	3,454887765046095E-001	1,000000000000000E+000	-1,4748912E-001	40	6,2639464E-004
2	1	0	1	0	1,531656088652497E+005	1,8363591E+000	1,8370541E+000	3,102632940172150E-001	1,000000000000000E+000	-1,2773129E-001	40	5,6997046E-004
2	1	0	1	0	1,532255984746348E+005	1,8603549E+000	1,8610742E+000	2,647581201561335E-001	1,000000000000000E+000	-1,1045789E-001	40	4,9273449E-004
2	1	0	1	0	1,532855879840227E+005	1,8843509E+000	1,8850900E+000	2,201711373973029E-001	1,000000000000000E+000	-9,5926084E-002	40	4,1504242E-004
2	1	0	1	0	1,533455774934083E+005	1,9083465E+000	1,9090778E+000	1,789364625364791E-001	1,000000000000000E+000	-8,3966210E-002	40	3,4160362E-004
2	1	0	1	0	1,534055672027930E+005	1,9323423E+000	1,9331077E+000	1,427870077945294E-001	1,000000000000000E+000	-7,4346736E-002	40	2,7602268E-004
2	1	0	1	0	1,534655566121810E+005	1,9563380E+000	1,9570730E+000	1,138967488818681E-001	1,000000000000000E+000	-6,6677421E-002	40	2,2290424E-004
2	1	0	1	0	1,535255461215665E+005	1,9803339E+000	1,9810565E+000	9,181023638476238E-002	1,000000000000000E+000	-6,0519408E-002	40	1,8188126E-004
2	1	0	1	0	1,535855360309514E+005	2,0043297E+000	2,0050695E+000	7,477950988732746E-002	1,000000000000000E+000	-5,5533335E-002	40	1,4993812E-004
2	1	0	1	0	1,536455254403390E+005	2,0283256E+000	2,0290625E+000	6,185527459754658E-002	1,000000000000000E+000	-5,1444445E-002	40	1,2550822E-004
2	1	0	1	0	1,537055149497245E+005	2,0523214E+000	2,0530767E+000	5,200191078747496E-002	1,000000000000000E+000	-4,8035242E-002	40	1,0676392E-004
2	1	0	1	0	1,537655045591095E+005	2,0763171E+000	2,0770466E+000	4,439607940368168E-002	1,000000000000000E+000	-4,5147453E-002	41	9,2212729E-005
2	1	0	1	0	1,538254946684977E+005	2,1003132E+000	2,1010296E+000	3,891300369452078E-002	1,000000000000000E+000	-4,2649504E-002	41	8,1757375E-005
2	1	0	1	0	1,538854837778828E+005	2,1243086E+000	2,1250427E+000	3,480153044962297E-002	1,000000000000000E+000	-4,0435903E-002	41	7,3954739E-005
2	1	0	1	0	1,539454734872677E+005	2,1483047E+000	2,1490471E+000	3,166454221735049E-002	1,000000000000000E+000	-3,8438518E-002	41	6,8048597E-005
2	1	0	1	0	1,540054635966565E+005	2,1723003E+000	2,1730466E+000	2,914339689073622E-002	1,000000000000000E+000	-3,6609385E-002	41	6,3329957E-005
2	1	0	1	0	1,540654527060413E+005	2,1962960E+000	2,1970508E+000	2,714460975818961E-002	1,000000000000000E+000	-3,4913227E-002	41	5,9638085E-005
2	1	0	1	0	1,541254424154260E+005	2,2202921E+000	2,2210186E+000	2,554312352332889E-002	1,000000000000000E+000	-3,3325937E-002	41	5,6731751E-005
2	1	0	1	0	1,541854321248140E+005	2,2442877E+000	2,2450473E+000	2,412438092834868E-002	1,000000000000000E+000	-3,1827502E-002	41	5,4160377E-005
2	1	0	1	0	1,542454219341994E+005	2,2682836E+000	2,2690260E+000	2,300027882668676E-002	1,000000000000000E+000	-3,0404584E-002	41	5,2188232E-005
2	1	0	1	0	1,543054112435845E+005	2,2922790E+000	2,2930512E+000	2,205895926154794E-002	1,000000000000000E+000	-2,9044708E-002	41	5,0582323E-005
2	1	0	1	0	1,543654009529725E+005	2,3162749E+000	2,3170118E+000	2,122069219269174E-002	1,000000000000000E+000	-2,7738802E-002	41	4,9168593E-005
2	1	0	1	0	1,544253907623576E+005	2,3402710E+000	2,3410606E+000	2,046101732320135E-002	1,000000000000000E+000	-2,6480366E-002	41	4,7900481E-005
2	1	0	1	0	1,544853801717428E+005	2,3642666E+000	2,3650317E+000	1,981399379534644E-002	1,000000000000000E+000	-2,5263568E-002	41	4,6860725E-005
2	1	0	1	0	1,545453698811312E+005	2,3882625E+000	2,3890030E+000	1,932152742248165E-002	1,000000000000000E+000	-2,4080725E-002	41	4,6159188E-005
2	1	0	1	0	1,546053599905156E+005	2,4122581E+000	2,4129989E+000	1,897470672739045E-002	1,000000000000000E+000	-2,2922799E-002	41	4,5785946E-005
2	1	0	1	0	1,546653490999010E+005	2,4362540E+000	2,4370065E+000	1,862996870902961E-002	1,000000000000000E+000	-2,1786319E-002	41	4,5401353E-005
2	1	0	1	0	1,547253388092890E+005	2,4602499E+000	2,4610426E+000	1,818083434119019E-002	1,000000000000000E+000	-2,0673469E-002	41	4,4743807E-005
2	1	0	1	0	1,547853285186740E+005	2,4842458E+000	2,4850340E+000	1,784554176051528E-002	1,000000000000000E+000	-1,9585200E-002	41	4,4346776E-005
2	1	0	1	0	1,548453182280594E+005	2,5082414E+000	2,5090027E+000	1,751353828412927E-002	1,000000000000000E+000	-1,8515153E-002	41	4,3941516E-005
2	1	0	1	0	1,549053076374475E+005	2,5322373E+000	2,5330305E+000	1,712235584393926E-002	1,000000000000000E+000	-1,7466640E-002	41	4,3371449E-005
2	1	0	1	0	1,549652973468323E+005	2,5562329E+000	2,5570300E+000	1,671826706626145E-002	1,000000000000000E+000	-1,6443329E-002	41	4,2749110E-005
2	1	0	1	0	1,550252871562177E+005	2,5802290E+000	2,5810299E+000	1,635745612120537E-002	1,000000000000000E+000	-1,5444132E-002	41	4,2219082E-005
2	1	0	1	0	1,550852765656058E+005	2,6042244E+000	2,6050413E+000	1,623291764501161E-002	1,000000000000000E+000	-1,4459251E-002	41	4,2287422E-005
2	1	0	1	0	1,551452662749905E+005	2,6282206E+000	2,6290205E+000	1,636066623987845E-002	1,000000000000000E+000	-1,3472296E-002	41	4,3012526E-005
2	1	0	1	0	1,552052563843764E+005	2,6522162E+000	2,6530070E+000	1,610980416269292E-002	1,000000000000000E+000	-1,2488049E-002	41	4,2739422E-005
2	1	0	1	0	1,552652454937641E+005	2,6762118E+000	2,6770127E+000	1,568521740361594E-002	1,000000000000000E+000	-1,1526613E-002	41	4,1989526E-005
2	1	0	1	0	1,553252352031487E+005	2,7002079E+000	2,7010007E+000	1,530523139347680E-002	1,000000000000000E+000	-1,0589843E-002	41	4,1339441E-005
2	1	0	1	0	1,553852248125346E+005	2,7242036E+000	2,7249832E+000	1,506349774712432E-002	1,000000000000000E+000	-9,6712429E-003	41	4,1047777E-005
2	1	0	1	0	1,554452146219229E+005	2,7481995E+000	2,7489638E+000	1,502726703438567E-002	1,000000000000000E+000	-8,7612690E-003	41	4,1309413E-005
2	1	0	1	0	1,555052040313067E+005	2,7721951E+000	2,7729721E+000	1,517495466566604E-002	1,000000000000000E+000	-7,8482619E-003	41	4,2079726E-005
2	1	0	1	0	1,555651937406925E+005	2,7961912E+000	2,7970066E+000	1,549537364044651E-002	1,000000000000000E+000	-6,9220886E-003	41	4,3340664E-005
2	1	0	1	0	1,556251835500808E+005	2,8201871E+000	2,8210371E+000	1,593193404499873E-002	1,000000000000000E+000	-5,9718541E-003	41	4,4944576E-005
2	1	0	1	0	1,556851729594652E+005	2,8441825E+000	2,8449914E+000	1,608977249400401E-002	1,000000000000000E+000	-5,0015175E-003	41	4,5775265E-005
2	1	0	1	0	1,557451626688512E+005	2,8681781E+000	2,8689899E+000	1,592399998908645E-002	1,000000000000000E+000	-4,0321047E-003	41	4,5685796E-005
2	1	0	1	0	1,558051524782390E+005	2,8921745E+000	2,8929784E+000	1,572882693683059E-002	1,000000000000000E+000	-3,0746812E-003	41	4,5503159E-005
2	1	0	1	0	1,558651418876235E+005	2,9161696E+000	2,9170017E+000	1,561898496195940E-002	1,000000000000000E+000	-2,1280462E-003	41	4,5560606E-005
2	1	0	1	0	1,559251314970092E+005	2,9401660E+000	2,9409711E+000	1,551864544187195E-002	1,000000000000000E+000	-1,1868879E-003	41	4,5639888E-005
2	1	0	1	0	1,559851213063970E+005	2,9641616E+000	2,9649546E+000	1,557252351070186E-002	1,000000000000000E+000	-2,4671014E-004	41	4,6171826E-005
2	1	0	1	0	1,560451107157815E+005	2,9881573E+000	2,9889452E+000	1,579534076651991E-002	1,000000000000000E+000	7,0166145E-004	41	4,7211408E-005
2	1	0	1	1	1,561011006245418E+005	2,9894571E+000	2,9902763E+000	1,032380463041264E-002	1,000000000000000E+000	1,4844928E-003	41	3,0871030E-005
2	1	0	1	1	1,561610903339295E+005	2,9654613E+000	2,9662738E+000	6,829941376428728E-003	1,000000000000000E+000	1,9789506E-003	41	2,0259477E-005
2	1	0	1	1	1,562210799433140E+005	2,9414654E+000	2,9422216E+000	4,852202757467838E-003	1,000000000000000E+000	2,3174784E-003	42	1,4276256E-005
2	1	0	1	1	1,562810694527002E+005	2,9174697E+000	2,9182782E+000	3,554865657936834E-003	1,000000000000000E+000	2,5597324E-003	42	1,0374087E-005
2	1	0	1	1	1,563410587620880E+005	2,8934739E+000	2,8942885E+000	2,600666667266140E-003	1,000000000000000E+000	2,7360907E-003	42	7,5270796E-006
2	1	0	1	1	1,564010482714719E+005	2,8694780E+000	2,8703053E+000	1,869675535857755E-003	1,000000000000000E+000	2,8622213E-003	42	5,3665394E-006
2	1	0	1	1	1,564610376808578E+005	2,8454823E+000	2,8462815E+000	1,230337967237677E-003	1,000000000000000E+000	2,9475102E-003	42	3,5018882E-006
2	1	0	1	1	1,565210270902459E+005	2,8214865E+000	2,8223069E+000	7,378475395797106E-004	1,000000000000000E+000	2,9988503E-003	42	2,0824323E-006
2	1	0	1	1	1,565810165996305E+005	2,7974908E+000	2,7982583E+000	2,879792516189677E-004	1,000000000000000E+000	3,0226402E-003	43	8,0584033E-007
2	1	0	1	1	1,566410060090162E+005	2,7734952E+000	2,7743266E+000	-3,886625234024175E-005	1,000000000000000E+000	3,0248391E-003	43	-1,0782767E-007
2	0	0	1	1	1,567009954184042E+005	2,7494991E+000	2,7503457E+000	-3,336933392191991E-004	1,000000000000000E+000	3,0089354E-003	43	-9,1777207E-007
2	0	0	1	1	1,567609849277887E+005	2,7255034E+000	2,7263770E+000	-6,009320880503068E-004	1,000000000000000E+000	2,9759961E-003	43	-1,6383674E-006
2	0	0	1	1	1,568209746371745E+005	2,7015073E+000	2,7023501E+000	-8,261111073332968E-004	1,000000000000000E+000	2,9265818E-003	42	-2,2324414E-006
2	0	0	1	1	1,568809636465618E+005	2,6775117E+000	2,6783195E+000	-1,137855234919376E-003	1,000000000000000E+000	2,8598979E-003	42	-3,0475398E-006
2	0	0	1	1	1,569409534559467E+005	2,6535158E+000	2,6543360E+000	-1,566590246950179E-003	1,000000000000000E+000	2,7719757E-003	42	-4,1582571E-006
2	0	0	1	1	1,570009428653321E+005	2,6295202E+000	2,6303699E+000	-2,139775022375646E-003	1,000000000000000E+000	2,6541401E-003	42	-5,6283998E-006
2	0	0	1	1	1,570609322747202E+005	2,6055245E+000	2,6063697E+000	-2,569271331191142E-003	1,000000000000000E+000	2,5032780E-003	42	-6,6964712E-006
2	0	0	1	1	1,571209216841050E+005	2,5815287E+000	2,5823708E+000	-2,633608897911158E-003	1,000000000000000E+000	2,3381079E-003	42	-6,8009545E-006
2	0	0	1	1	1,571809111934900E+005	2,5575330E+000	2,5584137E+000	-2,708221030172469E-003	1,000000000000000E+000	2,1720293E-003	42	-6,9287498E-006
2	0	0	1	1	1,572409006028781E+005	2,5335371E+000	2,5343742E+000	-2,942746776367716E-003	1,000000000000000E+000	1,9959123E-003	42	-7,4580216E-006
2	0	0	1	1	1,573008900122634E+005	2,5095413E+000	2,5103848E+000	-3,225057673738988E-003	1,000000000000000E+000	1,8040141E-003	42	-8,0961354E-006
2	0	0	1	1	1,573608795216479E+005	2,4855454E+000	2,4863770E+000	-3,507601820136683E-003	1,000000000000000E+000	1,5949924E-003	42	-8,7212202E-006
2	0	0	1	1	1,574208691310361E+005	2,4615495E+000	2,4623928E+000	-3,796403486183472E-003	1,000000000000000E+000	1,3687011E-003	42	-9,3482367E-006
2	0	0	1	1	1,574808583404216E+005	2,4375539E+000	2,4383745E+000	-4,054782791503952E-003	1,000000000000000E+000	1,1257854E-003	42	-9,8870787E-006
2	0	0	1	1	1,575408479498061E+005	2,4135582E+000	2,4143870E+000	-4,224847852768693E-003	1,000000000000000E+000	8,6993765E-004	42	-1,0200418E-005
2	0	0	1	1	1,576008374591940E+005	2,3895621E+000	2,3903790E+000	-4,333318224197954E-003	1,000000000000000E+000	6,0597580E-004	42	-1,0358272E-005
2	0	0	1	1	1,576608268685797E+005	2,3655667E+000	2,3663669E+000	-4,452582911421329E-003	1,000000000000000E+000	3,3503416E-004	42	-1,0536444E-005
2	0	0	1	1	1,577208162779643E+005	2,3415706E+000	2,3423829E+000	-4,625930570403614E-003	1,000000000000000E+000	5,4574408E-005	42	-1,0835701E-005
2	0	0	1	1	1,577808057873519E+005	2,3175747E+000	2,3183870E+000	-4,835088449869754E-003	1,000000000000000E+000	-2,3728832E-004	42	-1,1209607E-005
2	0	0	1	1	1,578407951967377E+005	2,2935793E+000	2,2944162E+000	-5,074414615918052E-003	1,000000000000000E+000	-5,4253428E-004	42	-1,1642819E-005
2	0	0	1	1	1,579007846061226E+005	2,2695832E+000	2,2704091E+000	-5,349354626455471E-003	1,000000000000000E+000	-8,6277700E-004	42	-1,2145223E-005
2	0	0	1	1	1,579572747149626E+005	2,2469871E+000	2,2478135E+000	-5,617150406479365E-003	2,000000000000000E+000	-1,1793828E-003	42	-1,2626307E-005
2	0	0	1	1	1,580172644243485E+005	2,2229912E+000	2,2238259E+000	-5,947927565938628E-003	2,000000000000000E+000	-1,5333673E-003	42	-1,3227155E-005
2	0	0	1	1	1,580772535337331E+005	2,1989958E+000	2,1998599E+000	-6,313118187500775E-003	2,000000000000000E+000	-1,9085981E-003	42	-1,3887975E-005
2	0	0	1	1	1,581372432431211E+005	2,1750000E+000	2,1758478E+000	-6,735647416209800E-003	2,000000000000000E+000	-2,3072520E-003	42	-1,4655743E-005
2	0	0	1	1	1,581972326525069E+005	2,1510041E+000	2,1518660E+000	-7,173608666082743E-003	2,000000000000000E+000	-2,7315877E-003	42	-1,5436644E-005
2	0	0	1	1	1,582572221618909E+005	2,1270082E+000	2,1278424E+000	-7,681812738211051E-003	2,000000000000000E+000	-3,1841462E-003	42	-1,6345686E-005
2	0	0	1	1	1,583172114712787E+005	2,1030126E+000	2,1038616E+000	-8,188498516727760E-003	2,000000000000000E+000	-3,6676680E-003	42	-1,7227467E-005
2	0	0	1	1	1,583772009806649E+005	2,0790167E+000	2,0798531E+000	-8,769321598085578E-003	2,000000000000000E+000	-4,1849040E-003	42	-1,8238901E-005
2	0	0	1	1	1,584371903900499E+005	2,0550208E+000	2,0559003E+000	-9,464469626187355E-003	2,000000000000000E+000	-4,7395551E-003	42	-1,9458006E-005
2	0	0	1	1	1,584971797994366E+005	2,0310249E+000	2,0318325E+000	-1,017700794556280E-002	2,000000000000000E+000	-5,3363726E-003	41	-2,0677975E-005
2	0	0	1	1	1,585571693088235E+005	2,0070293E+000	2,0078003E+000	-1,096943825888141E-002	2,000000000000000E+000	-5,9791883E-003	41	-2,2024442E-005
2	0	0	1	1	1,586171590182080E+005	1,9830337E+000	1,9838444E+000	-1,177318781219638E-002	2,000000000000000E+000	-6,6700219E-003	41	-2,3356173E-005
2	0	0	1	1	1,586771484275954E+005	1,9590379E+000	1,9598116E+000	-1,261831101251013E-002	2,000000000000000E+000	-7,4107554E-003	41	-2,4729512E-005
2	0	0	1	1	1,587371379369816E+005	1,9350418E+000	1,9358355E+000	-1,354131807339984E-002	2,000000000000000E+000	-8,2036294E-003	41	-2,6213764E-005
2	0	0	1	1	1,587971273463664E+005	1,9110460E+000	1,9118414E+000	-1,464398824346541E-002	2,000000000000000E+000	-9,0568382E-003	41	-2,7996983E-005
2	0	0	1	1	1,588571168557531E+005	1,8870503E+000	1,8878621E+000	-1,580861522640781E-002	2,000000000000000E+000	-9,9779060E-003	41	-2,9844485E-005
2	0	0	1	1	1,589171063651403E+005	1,8630544E+000	1,8638430E+000	-1,709304407054485E-002	2,000000000000000E+000	-1,0972097E-002	41	-3,1858748E-005
2	0	0	1	1	1,589770955745250E+005	1,8390586E+000	1,8398656E+000	-1,866511583077077E-002	2,000000000000000E+000	-1,2050929E-002	41	-3,4341305E-005
2	0	0	1	1	1,590370851839115E+005	1,8150630E+000	1,8158633E+000	-2,049341318229225E-002	2,000000000000000E+000	-1,3232609E-002	41	-3,7213234E-005
2	0	0	1	1	1,590970746932987E+005	1,7910670E+000	1,7918588E+000	-2,267341667163673E-002	2,000000000000000E+000	-1,4534426E-002	41	-4,0627561E-005
2	0	0	1	1	1,591570640026829E+005	1,7670712E+000	1,7678531E+000	-2,530119367056428E-002	2,000000000000000E+000	-1,5981803E-002	41	-4,4728793E-005
2	0	0	1	1	1,592170534120691E+005	1,7430756E+000	1,7438667E+000	-2,833177831492173E-002	2,000000000000000E+000	-1,7598512E-002	41	-4,9406844E-005
2	0	0	1	1	1,592770430214568E+005	1,7190796E+000	1,7198658E+000	-3,191394783745533E-002	2,000000000000000E+000	-1,9412512E-002	41	-5,4887707E-005
2	0	0	1	1	1,593370326308415E+005	1,6950839E+000	1,6958988E+000	-3,599797471957283E-002	2,000000000000000E+000	-2,1455809E-002	41	-6,1048922E-005
2	0	0	1	1	1,593970218402273E+005	1,6710882E+000	1,6718965E+000	-4,070979091041027E-002	2,000000000000000E+000	-2,3763660E-002	41	-6,8062553E-005
2	0	0	1	1	1,594570114496155E+005	1,6470923E+000	1,6478873E+000	-4,594900992209960E-002	2,000000000000000E+000	-2,6370499E-002	41	-7,5718795E-005
2	0	0	1	1	1,595170009589997E+005	1,6230967E+000	1,6239201E+000	-5,203224101082471E-002	2,000000000000000E+000	-2,9314838E-002	41	-8,4496198E-005
2	0	0	1	1	1,595769902683850E+005	1,5991007E+000	1,5999303E+000	-5,969022863598972E-002	2,000000000000000E+000	-3,2664999E-002	41	-9,5500203E-005
2	0	0	1	1	1,596369798777732E+005	1,5751050E+000	1,5759122E+000	-6,991704546341126E-002	2,000000000000000E+000	-3,6544677E-002	41	-1,1018313E-004
2	0	0	1	1	1,596969692871576E+005	1,5511091E+000	1,5519414E+000	-8,405910114870574E-002	2,000000000000000E+000	-4,1148946E-002	41	-1,3045481E-004
2	0	0	1	1	1,597569586965432E+005	1,5271134E+000	1,5278754E+000	-1,070530211580647E-001	2,000000000000000E+000	-4,6821140E-002	40	-1,6356369E-004
2	0	0	1	1	1,598169482059311E+005	1,5031174E+000	1,5038840E+000	-1,381323763198254E-001	2,000000000000000E+000	-5,4207161E-002	40	-2,0773507E-004
2	0	0	1	1	1,598769377153160E+005	1,4791217E+000	1,4798974E+000	-1,584267860635511E-001	2,000000000000000E+000	-6,3172936E-002	40	-2,3445538E-004
2	0	0	1	1	1,599369273247016E+005	1,4551259E+000	1,4558750E+000	-1,681681172314216E-001	2,000000000000000E+000	-7,3020957E-002	40	-2,4483175E-004
2	0	0	1	1	1,599969165340895E+005	1,4311301E+000	1,4318696E+000	-1,711410435645600E-001	2,000000000000000E+000	-8,3228558E-002	40	-2,4505166E-004
2	0	0	1	1	1,600569060434740E+005	1,4071344E+000	1,4078989E+000	-1,706112302653624E-001	2,000000000000000E+000	-9,3496032E-002	40	-2,4020336E-004
2	0	0	1	1	1,601168955528592E+005	1,3831385E+000	1,3839306E+000	-1,684232354186914E-001	2,000000000000000E+000	-1,0367508E-001	40	-2,3308606E-004
2	0	0	1	1	1,601768849622472E+005	1,3591427E+000	1,3598951E+000	-1,666027186650687E-001	2,000000000000000E+000	-1,1373634E-001	40	-2,2656222E-004
2	0	0	1	1	1,602368743716325E+005	1,3351469E+000	1,3359356E+000	-1,620091489652845E-001	2,000000000000000E+000	-1,2361431E-001	40	-2,1643379E-004
2	0	0	1	1	1,602968638810171E+005	1,3111513E+000	1,3119258E+000	-1,560927815003292E-001	2,000000000000000E+000	-1,3316594E-001	40	-2,0478215E-004
2	0	0	1	1	1,603568531904053E+005	1,2871555E+000	1,2879162E+000	-1,499126422460896E-001	2,000000000000000E+000	-1,4234953E-001	40	-1,9307491E-004
2	0	0	1	1	1,604168427997907E+005	1,2631596E+000	1,2639254E+000	-1,443647161364846E-001	2,000000000000000E+000	-1,5118673E-001	40	-1,8246623E-004
2	0	0	1	1	1,604768322091755E+005	1,2391638E+000	1,2399545E+000	-1,393063659390675E-001	2,000000000000000E+000	-1,5970504E-001	40	-1,7273355E-004
2	0	0	1	1	1,605368218185632E+005	1,2151681E+000	1,2159553E+000	-1,347063739881187E-001	2,000000000000000E+000	-1,6793123E-001	40	-1,6379693E-004
2	0	0	1	1	1,605968110279487E+005	1,1911721E+000	1,1919237E+000	-1,306064516353711E-001	2,000000000000000E+000	-1,7589031E-001	40	-1,5567293E-004
2	0	0	1	1	1,606568006373334E+005	1,1671764E+000	1,1679429E+000	-1,266971358746336E-001	2,000000000000000E+000	-1,8360910E-001	40	-1,4797502E-004
2	0	0	1	1	1,607167902467214E+005	1,1431806E+000	1,1439608E+000	-1,232587095311793E-001	2,000000000000000E+000	-1,9111337E-001	40	-1,4100314E-004
2	0	0	1	1	1,607767793561070E+005	1,1191847E+000	1,1199338E+000	-1,203190371242888E-001	2,000000000000000E+000	-1,9842257E-001	40	-1,3474937E-004
2	0	0	1	1	1,608367688654920E+005	1,0951890E+000	1,0959526E+000	-1,177524502219731E-001	2,000000000000000E+000	-2,0556860E-001	40	-1,2905111E-004
2	0	0	1	1	1,608967584748794E+005	1,0711932E+000	1,0719490E+000	-1,157036166331109E-001	2,000000000000000E+000	-2,1257673E-001	40	-1,2402837E-004
2	0	0	1	1	1,609567478842656E+005	1,0471973E+000	1,0479317E+000	-1,142996448575682E-001	2,000000000000000E+000	-2,1948098E-001	40	-1,1977822E-004
2	0	0	1	1	1,610167372936499E+005	1,0232016E+000	1,0239463E+000	-1,135731526711961E-001	2,000000000000000E+000	-2,2631991E-001	40	-1,1629281E-004
2	0	0	1	1	1,610748530027443E+005	9,9995601E-001	1,0007290E+000	-1,132388125606784E-001	2,000000000000000E+000	-2,3291548E-001	40	-1,1332136E-004
2	0	0	1	1	1,611337177119543E+005	1,0235015E+000	1,0242380E+000	-8,686905350968305E-002	2,000000000000000E+000	-2,3859069E-001	40	-8,8974586E-005
2	0	0	1	1	1,611937073213388E+005	1,0474974E+000	1,0482316E+000	-7,459359851242708E-002	2,000000000000000E+000	-2,4339995E-001	40	-7,8191370E-005
2	0	0	1	1	1,612536967307269E+005	1,0714930E+000	1,0722505E+000	-6,599764057140978E-002	2,000000000000000E+000	-2,4759831E-001	40	-7,0766000E-005
2	0	0	1	1	1,613136863401125E+005	1,0954890E+000	1,0962356E+000	-5,926692031302055E-002	2,000000000000000E+000	-2,5134218E-001	40	-6,4970511E-005
2	0	0	1	1	1,613736757494968E+005	1,1194847E+000	1,1202267E+000	-5,378105876755895E-002	2,000000000000000E+000	-2,5472078E-001	40	-6,0246981E-005
2	0	0	1	1	1,614336653588852E+005	1,1434805E+000	1,1442292E+000	-4,922414906766659E-002	2,000000000000000E+000	-2,5779933E-001	40	-5,6323708E-005
2	0	0	1	1	1,614936549682705E+005	1,1674763E+000	1,1682817E+000	-4,548338169096522E-002	2,000000000000000E+000	-2,6063722E-001	41	-5,3137403E-005
2	0	0	1	1	1,615536444776549E+005	1,1914722E+000	1,1922586E+000	-4,188699929687340E-002	2,000000000000000E+000	-2,6325056E-001	41	-4,9940136E-005
2	0	0	1	1	1,616136339870431E+005	1,2154679E+000	1,2162554E+000	-3,868016008691078E-002	2,000000000000000E+000	-2,6565993E-001	41	-4,7044956E-005
2	0	0	1	1	1,616736235964288E+005	1,2394638E+000	1,2402769E+000	-3,565483696447169E-002	2,000000000000000E+000	-2,6788181E-001	41	-4,4221873E-005
2	0	0	1	1	1,617336131058133E+005	1,2634597E+000	1,2642472E+000	-3,288329138986368E-002	2,000000000000000E+000	-2,6993120E-001	41	-4,1572610E-005
2	0	0	1	1	1,617936026152014E+005	1,2874553E+000	1,2882552E+000	-3,029752556448803E-002	2,000000000000000E+000	-2,7182028E-001	41	-3,9030947E-005
2	0	0	1	1	1,618535922245872E+005	1,3114512E+000	1,3122616E+000	-2,770004458597877E-002	2,000000000000000E+000	-2,7355364E-001	41	-3,6349706E-005
2	0	0	1	1	1,619135816339713E+005	1,3354467E+000	1,3362143E+000	-2,529312853313358E-002	2,000000000000000E+000	-2,7513722E-001	41	-3,3797041E-005
2	0	0	1	1	1,619735712433592E+005	1,3594427E+000	1,3601849E+000	-2,284935925944831E-002	2,000000000000000E+000	-2,7657589E-001	41	-3,1079355E-005
2	0	0	1	1	1,620335608527453E+005	1,3834385E+000	1,3841792E+000	-2,025019154135652E-002	2,000000000000000E+000	-2,7786303E-001	41	-2,8029895E-005
2	0	0	1	1	1,620935504621300E+005	1,4074343E+000	1,4081839E+000	-1,750161360308095E-002	2,000000000000000E+000	-2,7899045E-001	41	-2,4645491E-005
2	0	0	1	1	1,621535399715174E+005	1,4314301E+000	1,4321500E+000	-1,445221796810497E-002	2,000000000000000E+000	-2,7994561E-001	41	-2,0697744E-005
2	0	0	1	1	1,622135294809035E+005	1,4554259E+000	1,4561462E+000	-1,099602668399932E-002	2,000000000000000E+000	-2,8070596E-001	41	-1,6011823E-005
2	0	0	1	1	1,622735190902881E+005	1,4794219E+000	1,4801525E+000	-6,904858424985505E-003	2,000000000000000E+000	-2,8124094E-001	41	-1,0220243E-005
2	0	0	1	1	1,623335085996757E+005	1,5034176E+000	1,5041788E+000	-1,965513257411487E-003	2,000000000000000E+000	-2,8150642E-001	42	-2,9564833E-006
2	1	0	1	1	1,623934980090614E+005	1,5274134E+000	1,5281167E+000	4,298729160013004E-003	2,000000000000000E+000	-2,8143883E-001	42	6,5689596E-006
2	1	0	1	1	1,624534876184461E+005	1,5514091E+000	1,5521497E+000	1,285089377213905E-002	2,000000000000000E+000	-2,8093100E-001	41	1,9946510E-005
2	1	0	1	1	1,625134771278338E+005	1,5754049E+000	1,5761230E+000	2,416525970152929E-002	2,000000000000000E+000	-2,7984080E-001	41	3,8087423E-005
2	1	0	1	1	1,625734667372201E+005	1,5994008E+000	1,6000752E+000	5,085447712748647E-002	2,000000000000000E+000	-2,7770257E-001	41	8,1370992E-005
2	1	0	1	1	1,626334563466047E+005	1,6233964E+000	1,6240567E+000	9,277808536953291E-002	2,000000000000000E+000	-2,7342567E-001	41	1,5067687E-004
2	1	0	1	1	1,626934457559921E+005	1,6473922E+000	1,6481119E+000	1,419302246712217E-001	2,000000000000000E+000	-2,6640201E-001	40	2,3391690E-004
2	1	0	1	1	1,627534353653784E+005	1,6713881E+000	1,6720775E+000	1,966448549096560E-001	2,000000000000000E+000	-2,5626311E-001	40	3,2880544E-004
2	1	0	1	1	1,628134251747625E+005	1,6953840E+000	1,6960829E+000	2,558208650671134E-001	2,000000000000000E+000	-2,4268447E-001	40	4,3389341E-004
2	1	0	1	1	1,628734146841499E+005	1,7193798E+000	1,7200978E+000	3,122528403303244E-001	2,000000000000000E+000	-2,2559784E-001	40	5,3710543E-004
2	1	0	1	1	1,629334040935363E+005	1,7433754E+000	1,7440933E+000	3,548908636517591E-001	2,000000000000000E+000	-2,0548111E-001	40	6,1896280E-004
2	1	0	1	1	1,629933936029214E+005	1,7673712E+000	1,7680681E+000	3,743603705039869E-001	2,000000000000000E+000	-1,8347435E-001	40	6,6189462E-004
2	1	0	1	1	1,630533832123084E+005	1,7913671E+000	1,7920933E+000	3,677603622906225E-001	2,000000000000000E+000	-1,6108997E-001	40	6,5906090E-004
2	1	0	1	1	1,631133728216947E+005	1,8153628E+000	1,8160444E+000	3,390317681233217E-001	2,000000000000000E+000	-1,3979085E-001	40	6,1569677E-004
2	1	0	1	1	1,631733622310795E+005	1,8393586E+000	1,8400674E+000	2,955757948516371E-001	2,000000000000000E+000	-1,2070015E-001	40	5,4387940E-004
2	1	0	1	1	1,632333518404667E+005	1,8633546E+000	1,8640562E+000	2,487983383171777E-001	2,000000000000000E+000	-1,0437465E-001	40	4,6377408E-004
2	1	0	1	1	1,632933414498528E+005	1,8873502E+000	1,8880662E+000	2,046972685263060E-001	2,000000000000000E+000	-9,0785526E-002	40	3,8648199E-004
2	1	0	1	1	1,633533309592374E+005	1,9113461E+000	1,9120996E+000	1,648211338185817E-001	2,000000000000000E+000	-7,9722993E-002	40	3,1515444E-004
2	1	0	1	1	1,634133204686251E+005	1,9353418E+000	1,9361089E+000	1,311533001515015E-001	2,000000000000000E+000	-7,0873700E-002	40	2,5392708E-004
2	1	0	1	1	1,634733100780114E+005	1,9593376E+000	1,9600742E+000	1,049144481020782E-001	2,000000000000000E+000	-6,3820302E-002	40	2,0564010E-004
2	1	0	1	1	1,635332995873960E+005	1,9833336E+000	1,9840943E+000	8,455795861133875E-002	2,000000000000000E+000	-5,8152914E-002	40	1,6777097E-004
2	1	0	1	1	1,635932892967830E+005	2,0073292E+000	2,0080643E+000	6,934784260017068E-002	2,000000000000000E+000	-5,3543165E-002	40	1,3925493E-004
2	1	0	1	1	1,636532787061697E+005	2,0313249E+000	2,0320876E+000	5,787368037373475E-002	2,000000000000000E+000	-4,9732801E-002	40	1,1760439E-004
2	1	0	1	1	1,637132685155538E+005	2,0553207E+000	2,0561035E+000	4,920759354254578E-002	2,000000000000000E+000	-4,6527147E-002	40	1,0117590E-004
2	1	0	1	1	1,637732578249406E+005	2,0793166E+000	2,0800114E+000	4,225496574817636E-002	2,000000000000000E+000	-4,3790124E-002	41	8,7890810E-005
2	1	0	1	1	1,638332476343275E+005	2,1033125E+000	2,1040559E+000	3,731600567571208E-002	2,000000000000000E+000	-4,1399274E-002	41	7,8514960E-005
2	1	0	1	1	1,638932373437125E+005	2,1273081E+000	2,1280541E+000	3,362319884916154E-002	2,000000000000000E+000	-3,9266028E-002	41	7,1551985E-005
2	1	0	1	1	1,639532270530993E+005	2,1513042E+000	2,1520619E+000	3,064286239877384E-002	2,000000000000000E+000	-3,7330329E-002	41	6,5945336E-005
2	1	0	1	1	1,640132168624856E+005	2,1752999E+000	2,1760569E+000	2,833422226115462E-002	2,000000000000000E+000	-3,5551708E-002	41	6,1656880E-005
2	1	0	1	1	1,640732062718705E+005	2,1992955E+000	2,2000659E+000	2,648544291689653E-002	2,000000000000000E+000	-3,3900369E-002	41	5,8269718E-005
2	1	0	1	1	1,641331959812581E+005	2,2232914E+000	2,2240236E+000	2,489998897785708E-002	2,000000000000000E+000	-3,2351352E-002	41	5,5378161E-005
2	1	0	1	1	1,641931852906437E+005	2,2472870E+000	2,2480621E+000	2,357895306364802E-002	2,000000000000000E+000	-3,0887352E-002	41	5,3006952E-005
2	1	0	1	1	1,642531752000283E+005	2,2712829E+000	2,2720311E+000	2,247269300427682E-002	2,000000000000000E+000	-2,9495874E-002	41	5,1058658E-005
2	1	0	1	1	1,643131648094160E+005	2,2952785E+000	2,2960427E+000	2,155720322506777E-002	2,000000000000000E+000	-2,8165517E-002	41	4,9496259E-005
2	1	0	1	1	1,643731542188022E+005	2,3192744E+000	2,3200541E+000	2,076440420350884E-002	2,000000000000000E+000	-2,6887264E-002	41	4,8174541E-005
2	1	0	1	1	1,644331440281868E+005	2,3432701E+000	2,3440266E+000	2,006609598700532E-002	2,000000000000000E+000	-2,5653340E-002	41	4,7035461E-005
2	1	0	1	1	1,644931337375743E+005	2,3672664E+000	2,3679991E+000	1,947180028472412E-002	2,000000000000000E+000	-2,4457423E-002	41	4,6109206E-005
2	1	0	1	1	1,645531234469605E+005	2,3912618E+000	2,3919926E+000	1,903680492280757E-002	2,000000000000000E+000	-2,3292376E-002	41	4,5535897E-005
2	1	0	1	1	1,646131132563448E+005	2,4152582E+000	2,4160252E+000	1,874486705908274E-002	2,000000000000000E+000	-2,2149697E-002	41	4,5288070E-005
2	1	0	1	1	1,646731026657326E+005	2,4392536E+000	2,4400153E+000	1,832900455814834E-002	2,000000000000000E+000	-2,1028103E-002	41	4,4723052E-005
2	1	0	1	1	1,647330922751185E+005	2,4632492E+000	2,4640419E+000	1,789510065244149E-002	2,000000000000000E+000	-1,9930996E-002	41	4,4094279E-005
2	1	0	1	1	1,647930817845031E+005	2,4872451E+000	2,4880419E+000	1,753832631917404E-002	2,000000000000000E+000	-1,8858645E-002	41	4,3636090E-005
2	1	0	1	1	1,648530714938911E+005	2,5112407E+000	2,5120652E+000	1,723084775899040E-002	2,000000000000000E+000	-1,7806418E-002	41	4,3285014E-005
2	1	0	1	1	1,649130612032767E+005	2,5352368E+000	2,5360644E+000	1,684238431443574E-002	2,000000000000000E+000	-1,6775617E-002	41	4,2713371E-005
2	1	0	1	1	1,649730506126613E+005	2,5592327E+000	2,5600600E+000	1,641217920072074E-002	2,000000000000000E+000	-1,5769506E-002	41	4,2016163E-005
2	1	0	1	1	1,650330404220494E+005	2,5832283E+000	2,5840242E+000	1,616464911298929E-002	2,000000000000000E+000	-1,4785059E-002	41	4,1769843E-005
2	1	0	1	1	1,650930301314353E+005	2,6072240E+000	2,6080258E+000	1,605691492001599E-002	2,000000000000000E+000	-1,3810735E-002	41	4,1876847E-005
2	1	0	1	1	1,651530198408193E+005	2,6312201E+000	2,6320064E+000	1,614467905983047E-002	2,000000000000000E+000	-1,2833869E-002	41	4,2492899E-005
2	1	0	1	1	1,652130093502076E+005	2,6552155E+000	2,6560271E+000	1,577582850702297E-002	2,000000000000000E+000	-1,1866061E-002	41	4,1901028E-005
2	1	0	1	1	1,652729989595934E+005	2,6792116E+000	2,6800075E+000	1,537485711094333E-002	2,000000000000000E+000	-1,0922941E-002	41	4,1204730E-005
2	1	0	1	1	1,653329887689780E+005	2,7032073E+000	2,7039986E+000	1,502401796104239E-002	2,000000000000000E+000	-1,0003221E-002	41	4,0624924E-005
2	1	0	1	1	1,653929780783658E+005	2,7272034E+000	2,7280216E+000	1,482344961858573E-002	2,000000000000000E+000	-9,0995682E-003	41	4,0438692E-005
2	1	0	1	1	1,654529678877515E+005	2,7511990E+000	2,7520132E+000	1,476560883051187E-002	2,000000000000000E+000	-8,2037915E-003	41	4,0635150E-005
2	1	0	1	1	1,655129575971365E+005	2,7751946E+000	2,7760305E+000	1,487055567495255E-002	2,000000000000000E+000	-7,3064109E-003	41	4,1281117E-005
2	1	0	1	1	1,655729470065245E+005	2,7991908E+000	2,7999887E+000	1,517340524395994E-002	2,000000000000000E+000	-6,3973549E-003	41	4,2485364E-005
2	1	0	1	1	1,656329368159095E+005	2,8231864E+000	2,8240020E+000	1,556676558354048E-002	2,000000000000000E+000	-5,4657646E-003	41	4,3960579E-005
2	1	0	1	1	1,656929265252943E+005	2,8471820E+000	2,8479812E+000	1,571885235052162E-002	2,000000000000000E+000	-4,5170113E-003	41	4,4766995E-005
2	1	0	1	1	1,657529159346824E+005	2,8711782E+000	2,8720055E+000	1,555282430512825E-002	2,000000000000000E+000	-3,5698917E-003	41	4,4667795E-005
2	1	0	1	1	1,658129056440679E+005	2,8951738E+000	2,8959854E+000	1,538975766846018E-002	2,000000000000000E+000	-2,6330650E-003	41	4,4568515E-005
2	1	0	1	1	1,658728954534531E+005	2,9191694E+000	2,9200206E+000	1,528973020177027E-002	2,000000000000000E+000	-1,7052488E-003	41	4,4646327E-005
2	1	0	1	1	1,659328850628412E+005	2,9431655E+000	2,9439855E+000	1,525039985960569E-002	2,000000000000000E+000	-7,8119320E-004	41	4,4896955E-005
2	1	0	1	1	1,659928741722263E+005	2,9671612E+000	2,9679627E+000	1,530473033915438E-002	2,000000000000000E+000	1,4373491E-004	41	4,5423869E-005
2	1	0	1	1	1,660528642816111E+005	2,9911571E+000	2,9919701E+000	1,551408962707151E-002	2,000000000000000E+000	1,0764932E-003	41	4,6417692E-005
2	1	0	1	0	1,661088542903736E+005	2,9864578E+000	2,9872808E+000	9,415715332022651E-003	2,000000000000000E+000	1,7938025E-003	41	2,8127386E-005
2	1	0	1	0	1,661688439997586E+005	2,9624617E+000	2,9633033E+000	6,282192979816095E-003	2,000000000000000E+000	2,2448262E-003	41	1,8616043E-005
2	1	0	1	0	1,662288334091436E+005	2,9384663E+000	2,9392357E+000	4,461593636178221E-003	2,000000000000000E+000	2,5535887E-003	42	1,3113675E-005
2	1	0	1	0	1,662888228185317E+005	2,9144702E+000	2,9152570E+000	3,246217188159019E-003	2,000000000000000E+000	2,7740754E-003	42	9,4635570E-006
2	1	0	1	0	1,663488125279168E+005	2,8904743E+000	2,8912716E+000	2,360691936525300E-003	2,000000000000000E+000	2,9332771E-003	42	6,8254017E-006
2	1	0	1	0	1,664088016373017E+005	2,8664787E+000	2,8672757E+000	1,671816545193062E-003	2,000000000000000E+000	3,0457454E-003	42	4,7935591E-006
2	1	0	1	0	1,664687911466900E+005	2,8424828E+000	2,8433175E+000	1,083693981483821E-003	2,000000000000000E+000	3,1199872E-003	42	3,0812860E-006
2	1	0	1	0	1,665287807560748E+005	2,8184869E+000	2,8192382E+000	5,599039953679778E-004	2,000000000000000E+000	3,1623440E-003	43	1,5785027E-006
2	1	0	1	0	1,665887702654595E+005	2,7944915E+000	2,7953050E+000	1,849543291923372E-004	2,000000000000000E+000	3,1792494E-003	43	5,1700374E-007
2	0	0	1	0	1,666487593748476E+005	2,7704957E+000	2,7713399E+000	-9,548034272221064E-005	2,000000000000000E+000	3,1761159E-003	43	-2,6460847E-007
2	0	0	1	0	1,667087490842333E+005	2,7464993E+000	2,7473617E+000	-3,986662399599388E-004	2,000000000000000E+000	3,1553325E-003	43	-1,0952804E-006
2	0	0	1	0	1,667687385936179E+005	2,7225041E+000	2,7234070E+000	-6,675049745268353E-004	2,000000000000000E+000	3,1181150E-003	43	-1,8178878E-006
2	0	0	1	0	1,668287280030060E+005	2,6985083E+000	2,6993153E+000	-8,872919921358025E-004	2,000000000000000E+000	3,0642874E-003	42	-2,3950809E-006
2	0	0	1	0	1,668887174123916E+005	2,6745124E+000	2,6753762E+000	-1,179559687795737E-003	2,000000000000000E+000	2,9937369E-003	42	-3,1557659E-006
2	0	0	1	0	1,669487071217755E+005	2,6505165E+000	2,6513648E+000	-1,612011117887475E-003	2,000000000000000E+000	2,9018214E-003	42	-4,2740294E-006
2	0	0	1	0	1,670086963311634E+005	2,6265209E+000	2,6273534E+000	-2,161301420972166E-003	2,000000000000000E+000	2,7797688E-003	42	-5,6785025E-006
2	0	0	1	0	1,670686856405495E+005	2,6025250E+000	2,6033859E+000	-2,576915869121454E-003	2,000000000000000E+000	2,6262235E-003	42	-6,7087067E-006
2	0	0	1	0	1,671286754499343E+005	2,5785291E+000	2,5793550E+000	-2,613117445533954E-003	2,000000000000000E+000	2,4608942E-003	42	-6,7401575E-006
2	0	0	1	0	1,671886645593215E+005	2,5545337E+000	2,5553813E+000	-2,725164122227734E-003	2,000000000000000E+000	2,2937804E-003	42	-6,9638336E-006
2	0	0	1	0	1,672486539687079E+005	2,5305376E+000	2,5313914E+000	-2,972382879747021E-003	2,000000000000000E+000	2,1156995E-003	42	-7,5242642E-006
2	0	0	1	0	1,673086436780926E+005	2,5065417E+000	2,5074077E+000	-3,243357683511576E-003	2,000000000000000E+000	1,9213163E-003	42	-8,1324197E-006
2	0	0	1	0	1,673686331874798E+005	2,4825461E+000	2,4833953E+000	-3,525675095293904E-003	2,000000000000000E+000	1,7096653E-003	42	-8,7556455E-006
2	0	0	1	0	1,674286222968663E+005	2,4585502E+000	2,4593894E+000	-3,831215869034277E-003	2,000000000000000E+000	1,4809699E-003	42	-9,4224515E-006
2	0	0	1	0	1,674886120062508E+005	2,4345541E+000	2,4353964E+000	-4,043979898628119E-003	2,000000000000000E+000	1,2356555E-003	42	-9,8486944E-006
2	0	0	1	0	1,675486017156378E+005	2,4105585E+000	2,4114161E+000	-4,207451046139662E-003	2,000000000000000E+000	9,7863388E-004	42	-1,0145915E-005
2	0	0	1	0	1,676085909250248E+005	2,3865628E+000	2,3874104E+000	-4,309817315985134E-003	2,000000000000000E+000	7,1417307E-004	42	-1,0289303E-005
2	0	0	1	0	1,676685803344094E+005	2,3625672E+000	2,3634028E+000	-4,471981852093170E-003	2,000000000000000E+000	4,4257956E-004	42	-1,0569094E-005
2	0	0	1	0	1,677285699437964E+005	2,3385711E+000	2,3394060E+000	-4,657614035465390E-003	2,000000000000000E+000	1,6128313E-004	42	-1,0896050E-005
2	0	0	1	0	1,677885591531834E+005	2,3145754E+000	2,3153951E+000	-4,859276761603040E-003	2,000000000000000E+000	-1,3162132E-004	42	-1,1251146E-005
2	0	0	1	0	1,678485485625677E+005	2,2905796E+000	2,2914290E+000	-5,092330468337125E-003	2,000000000000000E+000	-4,3793060E-004	42	-1,1668714E-005
2	0	0	1	0	1,679085382719538E+005	2,2665837E+000	2,2674494E+000	-5,359626241421958E-003	2,000000000000000E+000	-7,5949664E-004	42	-1,2152681E-005
2	0	0	1	0	1,679507436785582E+005	2,2496376E+000	2,2505102E+000	-5,940040337457653E-003	2,000000000000000E+000	-9,9611434E-004	42	-1,3368121E-005