File: Dati/210416_2/CV_LTO-CB_grafite nuova_15 layers__06_CV_C01.mpt
EC-Lab ASCII FILE
Nb header lines : 57

Cyclic Voltammetry

Run on channel : 1 (SN 6806)
User : Seelab
Electrode connection : standard
Ewe ctrl range : min = 0,00 V, max = 5,00 V
Ewe,I filtering : 50 kHz
Safety Limits :
	Do not start on E overload
Channel : Grounded
Acquisition started on : 04/16/2021 18:47:00
Saved on :
	File : CV_LTO-CB_grafite nuova_15 layers__06_CV_C01.mpr
	Directory : C:\Users\labsuperfici\Desktop\Biologic\Users\Prisca Viviani\210416_2\
	Host : 10.78.33.0
Device : VSP-300 (SN 0638)
Address : USB
EC-Lab for windows v11.31 (software)
Internet server v11.30 (firmware)
Command interpretor v11.31 (firmware)
Electrode material :
Initial state :
Electrolyte :
Comments :
Cable : standard
Reference electrode : SCE Saturated Calomel Electrode (0,241 V)
Electrode surface area : 0,001 cm²
Characteristic mass : 0,001 g
Equivalent Weight : 0,000 g/eq.
Density : 0,000 g/cm3
Cycle Definition : Charge/Discharge alternance
Ei (V)              0,000
vs.                 Eoc
dE/dt               0,500
dE/dt unit          mV/s
E1 (V)              1,000
vs.                 Ref
Step percent        50
N                   10
E range min (V)     0,000
E range max (V)     5,000
I Range             Auto
I Range min         Unset
I Range max         Unset
I Range init        Unset
Bandwidth           8
E2 (V)              3,000
vs.                 Ref
nc cycles           1
Reverse Scan        1
Ef (V)              0,000
vs.                 Eoc

mode	ox/red	error	control changes	counter inc.	time/s	control/V	Ewe/V	<I>/mA	cycle number	(Q-Qo)/C	I Range	P/W
2	0	0	1	0	1,679510434786056E+005	2,2496376E+000	2,2504835E+000	-6,033443380147219E-003	1,000000000000000E+000	0,0000000E+000	42	-1,3578165E-005
2	0	0	1	0	1,679981352859717E+005	2,2260909E+000	2,2269692E+000	-6,689433906941589E-003	1,000000000000000E+000	-3,0580189E-004	42	-1,4897164E-005
2	0	0	1	0	1,680461266934825E+005	2,2020953E+000	2,2029707E+000	-7,303214714891045E-003	1,000000000000000E+000	-6,4939429E-004	42	-1,6088768E-005
2	0	0	1	0	1,680941185009903E+005	2,1780996E+000	2,1789637E+000	-7,907025486845111E-003	1,000000000000000E+000	-1,0218541E-003	42	-1,7229122E-005
2	0	0	1	0	1,681421103084998E+005	2,1541035E+000	2,1549809E+000	-8,524511167198531E-003	1,000000000000000E+000	-1,4228033E-003	42	-1,8370160E-005
2	0	0	1	0	1,681901015160084E+005	2,1301079E+000	2,1310008E+000	-9,140734500393558E-003	1,000000000000000E+000	-1,8529500E-003	42	-1,9478912E-005
2	0	0	1	0	1,682380932235166E+005	2,1061120E+000	2,1068816E+000	-9,787950154060282E-003	1,000000000000000E+000	-2,3142530E-003	41	-2,0622052E-005
2	0	0	1	0	1,682860849310253E+005	2,0821161E+000	2,0828936E+000	-1,050624552267253E-002	1,000000000000000E+000	-2,8076686E-003	41	-2,1883392E-005
2	0	0	1	0	1,683340765385341E+005	2,0581205E+000	2,0589197E+000	-1,127838431513221E-002	1,000000000000000E+000	-3,3373723E-003	41	-2,3221288E-005
2	0	0	1	0	1,683820679460438E+005	2,0341246E+000	2,0349281E+000	-1,217193026186278E-002	1,000000000000000E+000	-3,9078989E-003	41	-2,4769002E-005
2	0	0	1	0	1,684300597535511E+005	2,0101287E+000	2,0109003E+000	-1,316890538138313E-002	1,000000000000000E+000	-4,5238673E-003	41	-2,6481355E-005
2	0	0	1	0	1,684780512610618E+005	1,9861332E+000	1,9869467E+000	-1,413403610895395E-002	1,000000000000000E+000	-5,1878798E-003	41	-2,8083576E-005
2	0	0	1	0	1,685260429685693E+005	1,9621371E+000	1,9629185E+000	-1,517441699441084E-002	1,000000000000000E+000	-5,8999029E-003	41	-2,9786144E-005
2	0	0	1	0	1,685740344760800E+005	1,9381413E+000	1,9389350E+000	-1,621792504635239E-002	1,000000000000000E+000	-6,6606035E-003	41	-3,1445503E-005
2	0	0	1	0	1,686220261835870E+005	1,9141457E+000	1,9149503E+000	-1,742962288269789E-002	1,000000000000000E+000	-7,4756090E-003	41	-3,3376862E-005
2	0	0	1	0	1,686700177910971E+005	1,8901497E+000	1,8909708E+000	-1,887192146968519E-002	1,000000000000000E+000	-8,3544105E-003	41	-3,5686255E-005
2	0	0	1	0	1,687180092986049E+005	1,8661542E+000	1,8669140E+000	-2,038253998546694E-002	1,000000000000000E+000	-9,3015246E-003	41	-3,8052451E-005
2	0	0	1	0	1,687660009061147E+005	1,8421583E+000	1,8429698E+000	-2,207998275188866E-002	1,000000000000000E+000	-1,0325592E-002	41	-4,0692739E-005
2	0	0	1	0	1,688139925136231E+005	1,8181624E+000	1,8189451E+000	-2,417837999318004E-002	1,000000000000000E+000	-1,1442184E-002	41	-4,3979144E-005
2	0	0	1	0	1,688619842211318E+005	1,7941667E+000	1,7949569E+000	-2,667918707652428E-002	1,000000000000000E+000	-1,2669221E-002	41	-4,7887992E-005
2	0	0	1	0	1,689099756286405E+005	1,7701707E+000	1,7709466E+000	-2,975457643897550E-002	1,000000000000000E+000	-1,4030612E-002	41	-5,2693766E-005
2	0	0	1	0	1,689579673361490E+005	1,7461748E+000	1,7469525E+000	-3,335483656730165E-002	1,000000000000000E+000	-1,5551263E-002	41	-5,8269317E-005
2	0	0	1	0	1,690059588436596E+005	1,7221793E+000	1,7229712E+000	-3,749421233000182E-002	1,000000000000000E+000	-1,7258186E-002	41	-6,4601445E-005
2	0	0	1	0	1,690539505511664E+005	1,6981834E+000	1,6990206E+000	-4,233501632964065E-002	1,000000000000000E+000	-1,9179681E-002	41	-7,1928065E-005
2	0	0	1	0	1,691019422586774E+005	1,6741877E+000	1,6750052E+000	-4,793021021573385E-002	1,000000000000000E+000	-2,1351164E-002	41	-8,0283353E-005
2	0	0	1	0	1,691499337661841E+005	1,6501919E+000	1,6510098E+000	-5,422910841253126E-002	1,000000000000000E+000	-2,3809405E-002	41	-8,9532790E-005
2	0	0	1	0	1,691979253736949E+005	1,6261961E+000	1,6270329E+000	-6,154174488099118E-002	1,000000000000000E+000	-2,6592016E-002	41	-1,0013044E-004
2	0	0	1	0	1,692459169812021E+005	1,6022003E+000	1,6030563E+000	-7,042371262523428E-002	1,000000000000000E+000	-2,9759688E-002	41	-1,1289318E-004
2	0	0	1	0	1,692939085887121E+005	1,5782044E+000	1,5790497E+000	-8,186996999215146E-002	1,000000000000000E+000	-3,3411313E-002	41	-1,2927676E-004
2	0	0	1	0	1,693419000962200E+005	1,5542086E+000	1,5550749E+000	-9,739840638890351E-002	1,000000000000000E+000	-3,7704144E-002	41	-1,5146182E-004
2	0	0	1	0	1,693898918037298E+005	1,5302128E+000	1,5309815E+000	-1,210807820649471E-001	1,000000000000000E+000	-4,2902805E-002	40	-1,8537244E-004
2	0	0	1	0	1,694378833112381E+005	1,5062172E+000	1,5069959E+000	-1,558286104719464E-001	1,000000000000000E+000	-4,9551766E-002	40	-2,3483307E-004
2	0	0	1	0	1,694858749187470E+005	1,4822214E+000	1,4829992E+000	-1,808225906932086E-001	1,000000000000000E+000	-5,7700377E-002	40	-2,6815975E-004
2	0	0	1	0	1,695338665262563E+005	1,4582255E+000	1,4589740E+000	-1,924019362013381E-001	1,000000000000000E+000	-6,6708721E-002	40	-2,8070941E-004
2	0	0	1	0	1,695818581337640E+005	1,4342296E+000	1,4350308E+000	-1,958238048933167E-001	1,000000000000000E+000	-7,6058939E-002	40	-2,8101320E-004
2	0	0	1	0	1,696298497412745E+005	1,4102339E+000	1,4109923E+000	-1,955061163436218E-001	1,000000000000000E+000	-8,5466743E-002	40	-2,7585763E-004
2	0	0	1	0	1,696778413487815E+005	1,3862381E+000	1,3870451E+000	-1,933072484301366E-001	1,000000000000000E+000	-9,4813175E-002	40	-2,6812588E-004
2	0	0	1	0	1,697258329562917E+005	1,3622422E+000	1,3630121E+000	-1,913410420977576E-001	1,000000000000000E+000	-1,0404937E-001	40	-2,6080015E-004
2	0	0	1	0	1,697738244637991E+005	1,3382465E+000	1,3390046E+000	-1,874722456213265E-001	1,000000000000000E+000	-1,1316011E-001	40	-2,5102621E-004
2	0	0	1	0	1,698218161713099E+005	1,3142505E+000	1,3150760E+000	-1,812949215138651E-001	1,000000000000000E+000	-1,2202125E-001	40	-2,3841660E-004
2	0	0	1	0	1,698698076788168E+005	1,2902548E+000	1,2910464E+000	-1,746517107890604E-001	1,000000000000000E+000	-1,3057303E-001	40	-2,2548345E-004
2	0	0	1	0	1,699177992863273E+005	1,2662588E+000	1,2670540E+000	-1,686449459242807E-001	1,000000000000000E+000	-1,3881482E-001	40	-2,1368224E-004
2	0	0	1	0	1,699657907938352E+005	1,2422633E+000	1,2430414E+000	-1,628400787145767E-001	1,000000000000000E+000	-1,4677411E-001	40	-2,0241695E-004
2	0	0	1	0	1,700137825013448E+005	1,2182674E+000	1,2190326E+000	-1,577283926202486E-001	1,000000000000000E+000	-1,5447192E-001	40	-1,9227606E-004
2	0	0	1	0	1,700617740088534E+005	1,1942717E+000	1,1950375E+000	-1,529075353999637E-001	1,000000000000000E+000	-1,6193256E-001	40	-1,8273023E-004
2	0	0	1	0	1,701097656163620E+005	1,1702759E+000	1,1710393E+000	-1,486531875628527E-001	1,000000000000000E+000	-1,6917543E-001	40	-1,7407873E-004
2	0	0	1	0	1,701577571238708E+005	1,1462801E+000	1,1470275E+000	-1,445612184475262E-001	1,000000000000000E+000	-1,7621925E-001	40	-1,6581570E-004
2	0	0	1	0	1,702057488313792E+005	1,1222844E+000	1,1230246E+000	-1,410178911266335E-001	1,000000000000000E+000	-1,8307641E-001	40	-1,5836656E-004
2	0	0	1	0	1,702537404388897E+005	1,0982885E+000	1,0990648E+000	-1,379655606209466E-001	1,000000000000000E+000	-1,8977462E-001	40	-1,5163310E-004
2	0	0	1	0	1,703017320463965E+005	1,0742927E+000	1,0750573E+000	-1,358578464730344E-001	1,000000000000000E+000	-1,9635095E-001	40	-1,4605497E-004
2	0	0	1	0	1,703497236539070E+005	1,0502969E+000	1,0510644E+000	-1,343870180101616E-001	1,000000000000000E+000	-2,0284085E-001	40	-1,4124940E-004
2	0	0	1	0	1,703977151614144E+005	1,0263011E+000	1,0270731E+000	-1,334877037164723E-001	1,000000000000000E+000	-2,0927511E-001	40	-1,3710164E-004
2	0	0	1	0	1,704457068689242E+005	1,0023053E+000	1,0030881E+000	-1,333672741733878E-001	1,000000000000000E+000	-2,1568388E-001	40	-1,3377913E-004
2	0	0	1	0	1,704914996760886E+005	1,0205022E+000	1,0212576E+000	-1,048158218227584E-001	1,000000000000000E+000	-2,2103886E-001	40	-1,0704396E-004
2	0	0	1	0	1,705394910835978E+005	1,0444980E+000	1,0452507E+000	-8,986618029545523E-002	1,000000000000000E+000	-2,2567761E-001	40	-9,3932686E-005
2	0	0	1	0	1,705874827911062E+005	1,0684937E+000	1,0692657E+000	-7,942312067389234E-002	1,000000000000000E+000	-2,2972237E-001	40	-8,4924417E-005
2	0	0	1	0	1,706354744986165E+005	1,0924896E+000	1,0932442E+000	-7,127602197061877E-002	1,000000000000000E+000	-2,3332420E-001	40	-7,7922094E-005
2	0	0	1	0	1,706834660061230E+005	1,1164854E+000	1,1172439E+000	-6,471132416306025E-002	1,000000000000000E+000	-2,3657627E-001	40	-7,2298331E-005
2	0	0	1	0	1,707314576136339E+005	1,1404811E+000	1,1412492E+000	-5,922159864145404E-002	1,000000000000000E+000	-2,3954079E-001	40	-6,7586603E-005
2	0	0	1	0	1,707794493211410E+005	1,1644769E+000	1,1652312E+000	-5,436957351587701E-002	1,000000000000000E+000	-2,4225846E-001	40	-6,3353124E-005
2	0	0	1	0	1,708274410286518E+005	1,1884726E+000	1,1892210E+000	-5,013446988111658E-002	1,000000000000000E+000	-2,4475798E-001	40	-5,9620965E-005
2	0	0	1	0	1,708754327361588E+005	1,2124686E+000	1,2132771E+000	-4,649259837580622E-002	1,000000000000000E+000	-2,4707051E-001	41	-5,6408404E-005
2	0	0	1	0	1,709234241436692E+005	1,2364643E+000	1,2372622E+000	-4,289307439745048E-002	1,000000000000000E+000	-2,4920827E-001	41	-5,3069980E-005
2	0	0	1	0	1,709714160511764E+005	1,2604601E+000	1,2612672E+000	-3,960195713644321E-002	1,000000000000000E+000	-2,5118068E-001	41	-4,9948649E-005
2	0	0	1	0	1,710194075586868E+005	1,2844558E+000	1,2852516E+000	-3,648155983442408E-002	1,000000000000000E+000	-2,5299945E-001	41	-4,6887984E-005
2	0	0	1	0	1,710673992661950E+005	1,3084517E+000	1,3092496E+000	-3,348776236743217E-002	1,000000000000000E+000	-2,5467175E-001	41	-4,3843840E-005
2	0	0	1	0	1,711153909737039E+005	1,3324475E+000	1,3332487E+000	-3,057361676641429E-002	1,000000000000000E+000	-2,5620270E-001	41	-4,0762236E-005
2	0	0	1	0	1,711633825812126E+005	1,3564433E+000	1,3572239E+000	-2,765576961656224E-002	1,000000000000000E+000	-2,5759485E-001	41	-3,7535072E-005
2	0	0	1	0	1,712113742887212E+005	1,3804390E+000	1,3811746E+000	-2,463228728860950E-002	1,000000000000000E+000	-2,5884461E-001	41	-3,4021490E-005
2	0	0	1	0	1,712593657962307E+005	1,4044349E+000	1,4051982E+000	-2,137469978960910E-002	1,000000000000000E+000	-2,5994396E-001	41	-3,0035690E-005
2	0	0	1	0	1,713073575037385E+005	1,4284308E+000	1,4291801E+000	-1,783532684586309E-002	1,000000000000000E+000	-2,6088133E-001	41	-2,5489895E-005
2	0	0	1	0	1,713553491112487E+005	1,4524263E+000	1,4531871E+000	-1,382795767788692E-002	1,000000000000000E+000	-2,6163769E-001	41	-2,0094611E-005
2	0	0	1	0	1,714033408187560E+005	1,4764222E+000	1,4771711E+000	-9,140974250511719E-003	1,000000000000000E+000	-2,6218712E-001	41	-1,3502783E-005
2	0	0	1	0	1,714513325262666E+005	1,5004182E+000	1,5011852E+000	-3,518841947388759E-003	1,000000000000000E+000	-2,6248965E-001	42	-5,2824334E-006
2	1	0	1	0	1,714995239338060E+005	1,5245138E+000	1,5252457E+000	3,531703597241947E-003	1,000000000000000E+000	-2,6249152E-001	42	5,3867157E-006
2	1	0	1	0	1,715475156413149E+005	1,5485097E+000	1,5492343E+000	1,286378474564051E-002	1,000000000000000E+000	-2,6210383E-001	41	1,9929017E-005
2	1	0	1	0	1,715955073488243E+005	1,5725055E+000	1,5731752E+000	2,479877483745357E-002	1,000000000000000E+000	-2,6120931E-001	41	3,9012819E-005
2	1	0	1	0	1,716434990563320E+005	1,5965015E+000	1,5971789E+000	4,989766161760967E-002	1,000000000000000E+000	-2,5950953E-001	41	7,9695492E-005
2	1	0	1	0	1,716914906638414E+005	1,6204971E+000	1,6211367E+000	9,501851907125269E-002	1,000000000000000E+000	-2,5607058E-001	41	1,5403800E-004
2	1	0	1	0	1,717394821713495E+005	1,6444927E+000	1,6452366E+000	1,490141066232260E-001	1,000000000000000E+000	-2,5022697E-001	40	2,4516345E-004
2	1	0	1	0	1,717874740788601E+005	1,6684887E+000	1,6692306E+000	2,089218721953015E-001	1,000000000000000E+000	-2,4165136E-001	40	3,4873877E-004
2	1	0	1	0	1,718354655863671E+005	1,6924841E+000	1,6932205E+000	2,726737841558968E-001	1,000000000000000E+000	-2,3009562E-001	40	4,6169685E-004
2	1	0	1	0	1,718834572938774E+005	1,7164803E+000	1,7171770E+000	3,350712557725579E-001	1,000000000000000E+000	-2,1548171E-001	40	5,7537667E-004
2	1	0	1	0	1,719314490013854E+005	1,7404761E+000	1,7411613E+000	3,864820794606034E-001	1,000000000000000E+000	-1,9809370E-001	40	6,7292765E-004
2	1	0	1	0	1,719794407088952E+005	1,7644719E+000	1,7651849E+000	4,181685758833125E-001	1,000000000000000E+000	-1,7867288E-001	40	7,3814485E-004
2	1	0	1	0	1,720274323164024E+005	1,7884678E+000	1,7891734E+000	4,234776959279509E-001	1,000000000000000E+000	-1,5834899E-001	40	7,5767504E-004
2	1	0	1	0	1,720754238239126E+005	1,8124633E+000	1,8131546E+000	4,039613291036794E-001	1,000000000000000E+000	-1,3838784E-001	40	7,3244434E-004
2	1	0	1	0	1,721234155314206E+005	1,8364592E+000	1,8371437E+000	3,631418731204095E-001	1,000000000000000E+000	-1,1990762E-001	40	6,6714379E-004
2	1	0	1	0	1,721714073389305E+005	1,8604549E+000	1,8611702E+000	3,104375578225396E-001	1,000000000000000E+000	-1,0371832E-001	40	5,7777710E-004
2	1	0	1	0	1,722193989464385E+005	1,8844508E+000	1,8851783E+000	2,586669652211306E-001	1,000000000000000E+000	-9,0072788E-002	40	4,8763337E-004
2	1	0	1	0	1,722673905539478E+005	1,9084466E+000	1,9091789E+000	2,097871676410259E-001	1,000000000000000E+000	-7,8850269E-002	40	4,0052121E-004
2	1	0	1	0	1,723153820614573E+005	1,9324424E+000	1,9332011E+000	1,664397231721080E-001	1,000000000000000E+000	-6,9849521E-002	40	3,2176144E-004
2	1	0	1	0	1,723633739689649E+005	1,9564383E+000	1,9571773E+000	1,314932106483433E-001	1,000000000000000E+000	-6,2718384E-002	40	2,5735551E-004
2	1	0	1	0	1,724113655764749E+005	1,9804341E+000	1,9811667E+000	1,052996969745501E-001	1,000000000000000E+000	-5,7056326E-002	40	2,0861626E-004
2	1	0	1	0	1,724593571839826E+005	2,0044298E+000	2,0051785E+000	8,562502584956699E-002	1,000000000000000E+000	-5,2490674E-002	40	1,7169346E-004
2	1	0	1	0	1,725073489914928E+005	2,0284255E+000	2,0291891E+000	7,128872582528123E-002	1,000000000000000E+000	-4,8732016E-002	40	1,4465830E-004
2	1	0	1	0	1,725553405990002E+005	2,0524216E+000	2,0531576E+000	6,058305658551189E-002	1,000000000000000E+000	-4,5570046E-002	40	1,2438656E-004
2	1	0	1	0	1,726033322065100E+005	2,0764172E+000	2,0771704E+000	5,250441931855243E-002	1,000000000000000E+000	-4,2854350E-002	40	1,0906062E-004
2	1	0	1	0	1,726513240140183E+005	2,1004128E+000	2,1011693E+000	4,618994375413610E-002	1,000000000000000E+000	-4,0481523E-002	41	9,7052893E-005
2	1	0	1	0	1,726993156215288E+005	2,1244087E+000	2,1251326E+000	4,151773901038008E-002	1,000000000000000E+000	-3,8373202E-002	41	8,8230699E-005
2	1	0	1	0	1,727473070290354E+005	2,1484046E+000	2,1491504E+000	3,784469113184638E-002	1,000000000000000E+000	-3,6462970E-002	41	8,1333928E-005
2	1	0	1	0	1,727952991365464E+005	2,1724005E+000	2,1731238E+000	3,497521032636075E-002	1,000000000000000E+000	-3,4708101E-002	41	7,6005461E-005
2	1	0	1	0	1,728432908440535E+005	2,1963961E+000	2,1971357E+000	3,254789811426989E-002	1,000000000000000E+000	-3,3079185E-002	41	7,1512150E-005
2	1	0	1	0	1,728912824515635E+005	2,2203920E+000	2,2211244E+000	3,056765842072723E-002	1,000000000000000E+000	-3,1556033E-002	41	6,7894573E-005
2	1	0	1	0	1,729392738590725E+005	2,2443879E+000	2,2451153E+000	2,895387872961502E-002	1,000000000000000E+000	-3,0120984E-002	41	6,5004795E-005
2	1	0	1	0	1,729872660665808E+005	2,2683835E+000	2,2691128E+000	2,749749262397151E-002	1,000000000000000E+000	-2,8759018E-002	41	6,2394916E-005
2	1	0	1	0	1,730352576740896E+005	2,2923794E+000	2,2931292E+000	2,637443525150675E-002	1,000000000000000E+000	-2,7457843E-002	41	6,0479986E-005
2	1	0	1	0	1,730832490815979E+005	2,3163753E+000	2,3171232E+000	2,539552643026122E-002	1,000000000000000E+000	-2,6206385E-002	41	5,8844562E-005
2	1	0	1	0	1,731312408891078E+005	2,3403709E+000	2,3411229E+000	2,457444515863427E-002	1,000000000000000E+000	-2,4999149E-002	41	5,7531797E-005
2	1	0	1	0	1,731792330966156E+005	2,3643670E+000	2,3651311E+000	2,384453212807264E-002	1,000000000000000E+000	-2,3828628E-002	41	5,6395445E-005
2	1	0	1	0	1,732272243041256E+005	2,3883624E+000	2,3891180E+000	2,334262963098693E-002	1,000000000000000E+000	-2,2689121E-002	41	5,5768294E-005
2	1	0	1	0	1,732752161116330E+005	2,4123583E+000	2,4130940E+000	2,287476280066827E-002	1,000000000000000E+000	-2,1571482E-002	41	5,5198954E-005
2	1	0	1	0	1,733232079191431E+005	2,4363544E+000	2,4370940E+000	2,243644649926568E-002	1,000000000000000E+000	-2,0474596E-002	41	5,4679727E-005
2	1	0	1	0	1,733711997266512E+005	2,4603500E+000	2,4611068E+000	2,189640057402226E-002	1,000000000000000E+000	-1,9401656E-002	41	5,3889380E-005
2	1	0	1	0	1,734191913341619E+005	2,4843462E+000	2,4851220E+000	2,136013523066338E-002	1,000000000000000E+000	-1,8355470E-002	41	5,3082542E-005
2	1	0	1	0	1,734671830416690E+005	2,5083413E+000	2,5091376E+000	2,095881949858247E-002	1,000000000000000E+000	-1,7331606E-002	41	5,2588563E-005
2	1	0	1	0	1,735151745491792E+005	2,5323370E+000	2,5331283E+000	2,047349168689316E-002	1,000000000000000E+000	-1,6328182E-002	41	5,1861982E-005
2	1	0	1	0	1,735631665566862E+005	2,5563331E+000	2,5571318E+000	2,002187000568750E-002	1,000000000000000E+000	-1,5346975E-002	41	5,1198560E-005
2	1	0	1	0	1,736111581641966E+005	2,5803289E+000	2,5811474E+000	1,964356873351708E-002	1,000000000000000E+000	-1,4386700E-002	41	5,0702947E-005
2	1	0	1	0	1,736591499717045E+005	2,6043248E+000	2,6051476E+000	1,955645204454845E-002	1,000000000000000E+000	-1,3438688E-002	41	5,0947445E-005
2	1	0	1	0	1,737071412792138E+005	2,6283207E+000	2,6291127E+000	1,963318777331724E-002	1,000000000000000E+000	-1,2488945E-002	41	5,1617862E-005
2	1	0	1	0	1,737551333867223E+005	2,6523161E+000	2,6531019E+000	1,932312818664339E-002	1,000000000000000E+000	-1,1543788E-002	41	5,1266230E-005
2	1	0	1	0	1,738031251942315E+005	2,6763122E+000	2,6771076E+000	1,883155872824760E-002	1,000000000000000E+000	-1,0619690E-002	41	5,0414110E-005
2	1	0	1	0	1,738511164017404E+005	2,7003081E+000	2,7010925E+000	1,845157102765591E-002	1,000000000000000E+000	-9,7173313E-003	41	4,9839400E-005
2	1	0	1	0	1,738991082092486E+005	2,7243037E+000	2,7250860E+000	1,817383590617172E-002	1,000000000000000E+000	-8,8305511E-003	41	4,9525264E-005
2	1	0	1	0	1,739471000167578E+005	2,7482996E+000	2,7490826E+000	1,807158836152969E-002	1,000000000000000E+000	-7,9525225E-003	41	4,9680290E-005
2	1	0	1	0	1,739950919242664E+005	2,7722957E+000	2,7730744E+000	1,809544445620298E-002	1,000000000000000E+000	-7,0770024E-003	41	5,0180013E-005
2	1	0	1	0	1,740430834317766E+005	2,7962911E+000	2,7970831E+000	1,832506051554691E-002	1,000000000000000E+000	-6,1958195E-003	41	5,1256717E-005
2	1	0	1	0	1,740910752392837E+005	2,8202870E+000	2,8210700E+000	1,868940694446894E-002	1,000000000000000E+000	-5,2997600E-003	41	5,2724125E-005
2	1	0	1	0	1,741390666467939E+005	2,8442824E+000	2,8450897E+000	1,888234364477163E-002	1,000000000000000E+000	-4,3884586E-003	41	5,3721960E-005
2	1	0	1	0	1,741870586543013E+005	2,8682785E+000	2,8690729E+000	1,873773237127507E-002	1,000000000000000E+000	-3,4771964E-003	41	5,3759919E-005
2	1	0	1	0	1,742350504618119E+005	2,8922744E+000	2,8930707E+000	1,855422892513847E-002	1,000000000000000E+000	-2,5745241E-003	41	5,3678697E-005
2	1	0	1	0	1,742830420693196E+005	2,9162700E+000	2,9170659E+000	1,842884493851546E-002	1,000000000000000E+000	-1,6794142E-003	41	5,3758155E-005
2	1	0	1	0	1,743310334768305E+005	2,9402657E+000	2,9410586E+000	1,838894636382588E-002	1,000000000000000E+000	-7,8869855E-004	41	5,4082968E-005
2	1	0	1	0	1,743790254843370E+005	2,9642618E+000	2,9650540E+000	1,840003111143340E-002	1,000000000000000E+000	1,0189417E-004	41	5,4557087E-005
2	1	0	1	0	1,744270172918467E+005	2,9882574E+000	2,9890532E+000	1,857476559703886E-002	1,000000000000000E+000	9,9716091E-004	41	5,5520963E-005
2	1	0	1	1	1,744716090988235E+005	2,9894574E+000	2,9902534E+000	1,184133912641824E-002	1,000000000000000E+000	1,7243152E-003	41	3,5408604E-005
2	1	0	1	1	1,745196007063333E+005	2,9654615E+000	2,9662752E+000	7,887025165119063E-003	1,000000000000000E+000	2,1788371E-003	41	2,3395087E-005
2	1	0	1	1	1,745675925138406E+005	2,9414659E+000	2,9422472E+000	5,643227914393256E-003	1,000000000000000E+000	2,4911684E-003	41	1,6603772E-005
2	1	0	1	1	1,746155840213504E+005	2,9174697E+000	2,9182706E+000	4,089257155658249E-003	1,000000000000000E+000	2,7144426E-003	42	1,1933559E-005
2	1	0	1	1	1,746635755288582E+005	2,8934743E+000	2,8942499E+000	2,995593887081375E-003	1,000000000000000E+000	2,8752345E-003	42	8,6699974E-006
2	1	0	1	1	1,747115673363693E+005	2,8694782E+000	2,8703046E+000	2,150630076793458E-003	1,000000000000000E+000	2,9899450E-003	42	6,1729634E-006
2	1	0	1	1	1,747595587438759E+005	2,8454823E+000	2,8462775E+000	1,430772444373254E-003	1,000000000000000E+000	3,0672762E-003	42	4,0723753E-006
2	1	0	1	1	1,748075503513869E+005	2,8214865E+000	2,8223128E+000	8,086740669908388E-004	1,000000000000000E+000	3,1132565E-003	42	2,2823313E-006
2	1	0	1	1	1,748555419588936E+005	2,7974911E+000	2,7982426E+000	2,830985605694197E-004	1,000000000000000E+000	3,1329016E-003	43	7,9217847E-007
2	0	0	1	1	1,749035335664041E+005	2,7734950E+000	2,7743049E+000	-8,942288933749278E-005	1,000000000000000E+000	3,1325002E-003	43	-2,4808637E-007
2	0	0	1	1	1,749515250739115E+005	2,7494993E+000	2,7503242E+000	-4,466020472799221E-004	1,000000000000000E+000	3,1147636E-003	43	-1,2283004E-006
2	0	0	1	1	1,749995167814214E+005	2,7255037E+000	2,7263358E+000	-7,060143291522623E-004	1,000000000000000E+000	3,0807799E-003	42	-1,9248321E-006
2	0	0	1	1	1,750475085889292E+005	2,7015076E+000	2,7023172E+000	-1,048536388480046E-003	1,000000000000000E+000	3,0311805E-003	42	-2,8334780E-006
2	0	0	1	1	1,750954997964385E+005	2,6775117E+000	2,6783309E+000	-1,393204147284936E-003	1,000000000000000E+000	2,9653304E-003	42	-3,7314617E-006
2	0	0	1	1	1,751434916039482E+005	2,6535161E+000	2,6543314E+000	-1,862651822021305E-003	1,000000000000000E+000	2,8798834E-003	42	-4,9440955E-006
2	0	0	1	1	1,751914832114559E+005	2,6295204E+000	2,6303694E+000	-2,549325846286046E-003	1,000000000000000E+000	2,7674320E-003	42	-6,7056690E-006
2	0	0	1	1	1,752394748189654E+005	2,6055243E+000	2,6063669E+000	-3,083800479301874E-003	1,000000000000000E+000	2,6236530E-003	42	-8,0375157E-006
2	0	0	1	1	1,752874662264732E+005	2,5815287E+000	2,5823574E+000	-3,166788097879701E-003	1,000000000000000E+000	2,4649140E-003	42	-8,1777789E-006
2	0	0	1	1	1,753354580339836E+005	2,5575330E+000	2,5583513E+000	-3,252210561041250E-003	1,000000000000000E+000	2,3041789E-003	42	-8,3202967E-006
2	0	0	1	1	1,753834494414912E+005	2,5335369E+000	2,5343981E+000	-3,536716014663113E-003	1,000000000000000E+000	2,1342193E-003	42	-8,9634459E-006
2	0	0	1	1	1,754314410490021E+005	2,5095413E+000	2,5104122E+000	-3,870259304399094E-003	1,000000000000000E+000	1,9491499E-003	42	-9,7159464E-006
2	0	0	1	1	1,754794327565087E+005	2,4855456E+000	2,4863839E+000	-4,196680676790632E-003	1,000000000000000E+000	1,7476875E-003	42	-1,0434559E-005
2	0	0	1	1	1,755274244640199E+005	2,4615498E+000	2,4624093E+000	-4,550905383117646E-003	1,000000000000000E+000	1,5297382E-003	42	-1,1206192E-005
2	0	0	1	1	1,755754156715265E+005	2,4375541E+000	2,4383929E+000	-4,890370206182373E-003	1,000000000000000E+000	1,2954556E-003	42	-1,1924644E-005
2	0	0	1	1	1,756234074790366E+005	2,4135582E+000	2,4144337E+000	-5,081597487417377E-003	1,000000000000000E+000	1,0485350E-003	42	-1,2269180E-005
2	0	0	1	1	1,756713992865444E+005	2,3895624E+000	2,3904006E+000	-5,216971473209004E-003	1,000000000000000E+000	7,9327542E-004	42	-1,2470652E-005
2	0	0	1	1	1,757193906940536E+005	2,3655667E+000	2,3664260E+000	-5,380366678631052E-003	1,000000000000000E+000	5,3140265E-004	42	-1,2732239E-005
2	0	0	1	1	1,757673822015617E+005	2,3415706E+000	2,3424151E+000	-5,580217100098236E-003	1,000000000000000E+000	2,6049887E-004	42	-1,3071185E-005
2	0	0	1	1	1,758153739090709E+005	2,3175750E+000	2,3184285E+000	-5,848671824302140E-003	1,000000000000000E+000	-2,1117768E-005	42	-1,3559727E-005
2	0	0	1	1	1,758633655165806E+005	2,2935791E+000	2,2944267E+000	-6,109209955777017E-003	1,000000000000000E+000	-3,1542836E-004	42	-1,4017134E-005
2	0	0	1	1	1,759113569240880E+005	2,2695837E+000	2,2704575E+000	-6,397554472163544E-003	1,000000000000000E+000	-6,2397378E-004	42	-1,4525375E-005
2	0	0	1	1	1,759565491311615E+005	2,2469873E+000	2,2478459E+000	-6,784309701398580E-003	2,000000000000000E+000	-9,2923240E-004	42	-1,5250082E-005
2	0	0	1	1	1,760045409386680E+005	2,2229915E+000	2,2238705E+000	-7,171363415679727E-003	2,000000000000000E+000	-1,2707460E-003	42	-1,5948184E-005
2	0	0	1	1	1,760525321461780E+005	2,1989958E+000	2,1998682E+000	-7,616722974890321E-003	2,000000000000000E+000	-1,6326528E-003	42	-1,6755786E-005
2	0	0	1	1	1,761005239536860E+005	2,1749997E+000	2,1758997E+000	-8,075930263000297E-003	2,000000000000000E+000	-2,0165250E-003	42	-1,7572414E-005
2	0	0	1	1	1,761485157611954E+005	2,1510041E+000	2,1518862E+000	-8,641701411930117E-003	2,000000000000000E+000	-2,4250082E-003	42	-1,8595958E-005
2	0	0	1	1	1,761965071687037E+005	2,1270084E+000	2,1279054E+000	-9,211766258464982E-003	2,000000000000000E+000	-2,8600662E-003	42	-1,9601766E-005
2	0	0	1	1	1,762444987762123E+005	2,1030126E+000	2,1038299E+000	-9,798720891254997E-003	2,000000000000000E+000	-3,3244952E-003	41	-2,0614842E-005
2	0	0	1	1	1,762924903837219E+005	2,0790167E+000	2,0797951E+000	-1,050143500231132E-002	2,000000000000000E+000	-3,8200491E-003	41	-2,1840833E-005
2	0	0	1	1	1,763404819912298E+005	2,0550210E+000	2,0558074E+000	-1,129724881278704E-002	2,000000000000000E+000	-4,3509677E-003	41	-2,3224968E-005
2	0	0	1	1	1,763884733987404E+005	2,0310252E+000	2,0317991E+000	-1,215542387507421E-002	2,000000000000000E+000	-4,9218163E-003	41	-2,4697380E-005
2	0	0	1	1	1,764364652062473E+005	2,0070293E+000	2,0078137E+000	-1,311219092278568E-002	2,000000000000000E+000	-5,5365833E-003	41	-2,6326836E-005
2	0	0	1	1	1,764844569137581E+005	1,9830334E+000	1,9838096E+000	-1,407836233992574E-002	2,000000000000000E+000	-6,1976821E-003	41	-2,7928791E-005
2	0	0	1	1	1,765324484212655E+005	1,9590377E+000	1,9598210E+000	-1,503232677820058E-002	2,000000000000000E+000	-6,9048847E-003	41	-2,9460669E-005
2	0	0	1	1	1,765804399287766E+005	1,9350420E+000	1,9358406E+000	-1,607892110790968E-002	2,000000000000000E+000	-7,6598525E-003	41	-3,1126230E-005
2	0	0	1	1	1,766284316362832E+005	1,9110463E+000	1,9118559E+000	-1,732470824196487E-002	2,000000000000000E+000	-8,4693972E-003	41	-3,3122345E-005
2	0	0	1	1	1,766764233437935E+005	1,8870504E+000	1,8878409E+000	-1,871800426135404E-002	2,000000000000000E+000	-9,3430337E-003	41	-3,5336612E-005
2	0	0	1	1	1,767244148513009E+005	1,8630546E+000	1,8638521E+000	-2,027633536167583E-002	2,000000000000000E+000	-1,0286127E-002	41	-3,7792091E-005
2	0	0	1	1	1,767724063588104E+005	1,8390589E+000	1,8398722E+000	-2,208620737036571E-002	2,000000000000000E+000	-1,1310210E-002	41	-4,0635801E-005
2	0	0	1	1	1,768203979663197E+005	1,8150630E+000	1,8158630E+000	-2,429206274634220E-002	2,000000000000000E+000	-1,2430025E-002	41	-4,4111057E-005
2	0	0	1	1	1,768683896738274E+005	1,7910672E+000	1,7918432E+000	-2,689744901084812E-002	2,000000000000000E+000	-1,3664167E-002	41	-4,8196009E-005
2	0	0	1	1	1,769163812813368E+005	1,7670711E+000	1,7678839E+000	-2,998167870908527E-002	2,000000000000000E+000	-1,5034967E-002	41	-5,3004125E-005
2	0	0	1	1	1,769643727888449E+005	1,7430755E+000	1,7438862E+000	-3,358925592002387E-002	2,000000000000000E+000	-1,6567575E-002	41	-5,8575843E-005
2	0	0	1	1	1,770123642963553E+005	1,7190799E+000	1,7198879E+000	-3,784205399276118E-002	2,000000000000000E+000	-1,8289287E-002	41	-6,5084088E-005
2	0	0	1	1	1,770603560038626E+005	1,6950839E+000	1,6958801E+000	-4,276555211244293E-002	2,000000000000000E+000	-2,0229984E-002	41	-7,2525247E-005
2	0	0	1	1	1,771083477113731E+005	1,6710882E+000	1,6719055E+000	-4,845411308763756E-002	2,000000000000000E+000	-2,2424767E-002	41	-8,1010701E-005
2	0	0	1	1	1,771563392188805E+005	1,6470925E+000	1,6479225E+000	-5,490565430927774E-002	2,000000000000000E+000	-2,4910057E-002	41	-9,0480265E-005
2	0	0	1	1	1,772043308263915E+005	1,6230965E+000	1,6239443E+000	-6,240177901126375E-002	2,000000000000000E+000	-2,7731203E-002	41	-1,0133701E-004
2	0	0	1	1	1,772523224338982E+005	1,5991007E+000	1,5999378E+000	-7,179107737788160E-002	2,000000000000000E+000	-3,0953504E-002	41	-1,1486126E-004
2	0	0	1	1	1,773003141414085E+005	1,5751048E+000	1,5759721E+000	-8,407903835654063E-002	2,000000000000000E+000	-3,4691244E-002	41	-1,3250622E-004
2	0	0	1	1	1,773483055489161E+005	1,5511092E+000	1,5519756E+000	-1,010219174173916E-001	2,000000000000000E+000	-3,9118979E-002	41	-1,5678356E-004
2	0	0	1	1	1,773962972564255E+005	1,5271136E+000	1,5278939E+000	-1,280620259993022E-001	2,000000000000000E+000	-4,4562042E-002	40	-1,9566518E-004
2	0	0	1	1	1,774442887639347E+005	1,5031177E+000	1,5038618E+000	-1,637750768102877E-001	2,000000000000000E+000	-5,1598568E-002	40	-2,4629507E-004
2	0	0	1	1	1,774922804714427E+005	1,4791219E+000	1,4798828E+000	-1,855641088183533E-001	2,000000000000000E+000	-6,0053270E-002	40	-2,7461315E-004
2	0	0	1	1	1,775402721789517E+005	1,4551258E+000	1,4558790E+000	-1,942805732238515E-001	2,000000000000000E+000	-6,9215447E-002	40	-2,8284901E-004
2	0	0	1	1	1,775882635864599E+005	1,4311302E+000	1,4319175E+000	-1,958861482133590E-001	2,000000000000000E+000	-7,8607567E-002	40	-2,8049282E-004
2	0	0	1	1	1,776362551939711E+005	1,4071343E+000	1,4078841E+000	-1,945014086083341E-001	2,000000000000000E+000	-8,7990545E-002	40	-2,7383544E-004
2	0	0	1	1	1,776842468014776E+005	1,3831385E+000	1,3839130E+000	-1,918164755385552E-001	2,000000000000000E+000	-9,7268365E-002	40	-2,6545732E-004
2	0	0	1	1	1,777322385089882E+005	1,3591428E+000	1,3599354E+000	-1,894683867656346E-001	2,000000000000000E+000	-1,0642689E-001	40	-2,5766477E-004
2	0	0	1	1	1,777802299164953E+005	1,3351470E+000	1,3359144E+000	-1,844551194009059E-001	2,000000000000000E+000	-1,1542235E-001	40	-2,4641625E-004
2	0	0	1	1	1,778282216240065E+005	1,3111510E+000	1,3119403E+000	-1,779055768357161E-001	2,000000000000000E+000	-1,2412931E-001	40	-2,3340150E-004
2	0	0	1	1	1,778762131315134E+005	1,2871554E+000	1,2879640E+000	-1,711811771836258E-001	2,000000000000000E+000	-1,3251300E-001	40	-2,2047519E-004
2	0	0	1	1	1,779242048390238E+005	1,2631594E+000	1,2639499E+000	-1,650819954779466E-001	2,000000000000000E+000	-1,4058909E-001	40	-2,0865537E-004
2	0	0	1	1	1,779721962465313E+005	1,2391639E+000	1,2399242E+000	-1,593745371775890E-001	2,000000000000000E+000	-1,4838044E-001	40	-1,9761235E-004
2	0	0	1	1	1,780201879540405E+005	1,2151680E+000	1,2159467E+000	-1,543306180634718E-001	2,000000000000000E+000	-1,5591513E-001	40	-1,8765780E-004
2	0	0	1	1	1,780681794615490E+005	1,1911724E+000	1,1919248E+000	-1,498326583563552E-001	2,000000000000000E+000	-1,6322015E-001	40	-1,7858927E-004
2	0	0	1	1	1,781161711690577E+005	1,1671764E+000	1,1679450E+000	-1,457162262571523E-001	2,000000000000000E+000	-1,7031921E-001	40	-1,7018855E-004
2	0	0	1	1	1,781641626765672E+005	1,1431807E+000	1,1439319E+000	-1,420942723911860E-001	2,000000000000000E+000	-1,7723048E-001	40	-1,6254616E-004
2	0	0	1	1	1,782121542840749E+005	1,1191847E+000	1,1199348E+000	-1,388743050006931E-001	2,000000000000000E+000	-1,8397838E-001	40	-1,5553017E-004
2	0	0	1	1	1,782601459915852E+005	1,0951890E+000	1,0959197E+000	-1,363327230749518E-001	2,000000000000000E+000	-1,9059034E-001	40	-1,4940972E-004
2	0	0	1	1	1,783081374990926E+005	1,0711933E+000	1,0719419E+000	-1,343295270836276E-001	2,000000000000000E+000	-1,9708852E-001	40	-1,4399344E-004
2	0	0	1	1	1,783561291066036E+005	1,0471975E+000	1,0479569E+000	-1,330972628629346E-001	2,000000000000000E+000	-2,0350826E-001	40	-1,3948019E-004
2	0	0	1	1	1,784041206141105E+005	1,0232017E+000	1,0239563E+000	-1,320542423919178E-001	2,000000000000000E+000	-2,0987089E-001	40	-1,3521778E-004
2	0	0	1	1	1,784506133213839E+005	9,9995601E-001	1,0007862E+000	-1,318185298627701E-001	2,000000000000000E+000	-2,1600752E-001	40	-1,3192216E-004
2	0	0	1	1	1,784977049287548E+005	1,0235014E+000	1,0242357E+000	-1,009492913835737E-001	2,000000000000000E+000	-2,2127539E-001	40	-1,0339587E-004
2	0	0	1	1	1,785456966362619E+005	1,0474974E+000	1,0482085E+000	-8,699978337139203E-002	2,000000000000000E+000	-2,2575502E-001	40	-9,1193913E-005
2	0	0	1	1	1,785936883437715E+005	1,0714933E+000	1,0722510E+000	-7,705816868262505E-002	2,000000000000000E+000	-2,2967362E-001	40	-8,2625695E-005
2	0	0	1	1	1,786416798512805E+005	1,0954890E+000	1,0962478E+000	-6,943120860374274E-002	2,000000000000000E+000	-2,3317540E-001	40	-7,6113807E-005
2	0	0	1	1	1,786896714587887E+005	1,1194847E+000	1,1202345E+000	-6,315854216385203E-002	2,000000000000000E+000	-2,3634540E-001	40	-7,0752380E-005
2	0	0	1	1	1,787376631662976E+005	1,1434805E+000	1,1442302E+000	-5,780188289441329E-002	2,000000000000000E+000	-2,3923908E-001	40	-6,6138666E-005
2	0	0	1	1	1,787856548738061E+005	1,1674763E+000	1,1682147E+000	-5,320581981152106E-002	2,000000000000000E+000	-2,4189538E-001	40	-6,2155821E-005
2	0	0	1	1	1,788336465813164E+005	1,1914724E+000	1,1922028E+000	-4,909711635138514E-002	2,000000000000000E+000	-2,4434283E-001	40	-5,8533718E-005
2	0	0	1	1	1,788816379888235E+005	1,2154679E+000	1,2162890E+000	-4,563648173377272E-002	2,000000000000000E+000	-2,4661323E-001	41	-5,5507153E-005
2	0	0	1	1	1,789296296963338E+005	1,2394638E+000	1,2402618E+000	-4,221890184575894E-002	2,000000000000000E+000	-2,4871515E-001	41	-5,2362491E-005
2	0	0	1	1	1,789776214038415E+005	1,2634594E+000	1,2642761E+000	-3,897538603610173E-002	2,000000000000000E+000	-2,5065789E-001	41	-4,9275652E-005
2	0	0	1	1	1,790256131113516E+005	1,2874553E+000	1,2882643E+000	-3,593965946671446E-002	2,000000000000000E+000	-2,5244996E-001	41	-4,6299778E-005
2	0	0	1	1	1,790736048188591E+005	1,3114512E+000	1,3122464E+000	-3,298420149592834E-002	2,000000000000000E+000	-2,5409883E-001	41	-4,3283402E-005
2	0	0	1	1	1,791215962263690E+005	1,3354470E+000	1,3362262E+000	-3,007632409237260E-002	2,000000000000000E+000	-2,5560737E-001	41	-4,0188774E-005
2	0	0	1	1	1,791695881338771E+005	1,3594428E+000	1,3602684E+000	-2,713933723817197E-002	2,000000000000000E+000	-2,5697574E-001	41	-3,6916783E-005
2	0	0	1	1	1,792175796413878E+005	1,3834385E+000	1,3841919E+000	-2,412712048803883E-002	2,000000000000000E+000	-2,5820211E-001	41	-3,3396565E-005
2	0	0	1	1	1,792655713488949E+005	1,4074345E+000	1,4082131E+000	-2,090063046898599E-002	2,000000000000000E+000	-2,5927800E-001	41	-2,9432542E-005
2	0	0	1	1	1,793135630564042E+005	1,4314301E+000	1,4321737E+000	-1,731447265716285E-002	2,000000000000000E+000	-2,6019144E-001	41	-2,4797333E-005
2	0	0	1	1	1,793615546639133E+005	1,4554260E+000	1,4561557E+000	-1,324847410418908E-002	2,000000000000000E+000	-2,6092225E-001	41	-1,9291840E-005
2	0	0	1	1	1,794095463714215E+005	1,4794217E+000	1,4801550E+000	-8,465252120087891E-003	2,000000000000000E+000	-2,6144126E-001	41	-1,2529885E-005
2	0	0	1	1	1,794575378789306E+005	1,5034175E+000	1,5041698E+000	-2,694101807738554E-003	2,000000000000000E+000	-2,6170763E-001	42	-4,0523864E-006
2	1	0	1	1	1,795055294864390E+005	1,5274134E+000	1,5281302E+000	4,560088034040150E-003	2,000000000000000E+000	-2,6166472E-001	42	6,9684083E-006
2	1	0	1	1	1,795535211939495E+005	1,5514092E+000	1,5521418E+000	1,430292054775788E-002	2,000000000000000E+000	-2,6121706E-001	41	2,2200160E-005
2	1	0	1	1	1,796015129014561E+005	1,5754048E+000	1,5761348E+000	2,700860402869409E-002	2,000000000000000E+000	-2,6024136E-001	41	4,2569201E-005
2	1	0	1	1	1,796495046089664E+005	1,5994008E+000	1,6001033E+000	5,594190039103220E-002	2,000000000000000E+000	-2,5835440E-001	41	8,9512818E-005
2	1	0	1	1	1,796974961164743E+005	1,6233965E+000	1,6241406E+000	1,049116005898554E-001	2,000000000000000E+000	-2,5453937E-001	40	1,7039120E-004
2	1	0	1	1	1,797454877239848E+005	1,6473922E+000	1,6481069E+000	1,620885692958751E-001	2,000000000000000E+000	-2,4815325E-001	40	2,6713929E-004
2	1	0	1	1	1,797934794314918E+005	1,6713883E+000	1,6721076E+000	2,250293465162303E-001	2,000000000000000E+000	-2,3887374E-001	40	3,7627327E-004
2	1	0	1	1	1,798414712390024E+005	1,6953839E+000	1,6961052E+000	2,906184071824507E-001	2,000000000000000E+000	-2,2648907E-001	40	4,9291941E-004
2	1	0	1	1	1,798894629465099E+005	1,7193799E+000	1,7200477E+000	3,521738235134233E-001	2,000000000000000E+000	-2,1101765E-001	40	6,0575578E-004
2	1	0	1	1	1,799374543540198E+005	1,7433754E+000	1,7440534E+000	4,007208763852192E-001	2,000000000000000E+000	-1,9286926E-001	40	6,9887860E-004
2	1	0	1	1	1,799854462615275E+005	1,7673714E+000	1,7680596E+000	4,265665201551476E-001	2,000000000000000E+000	-1,7290908E-001	40	7,5419503E-004
2	1	0	1	1	1,800334377690370E+005	1,7913672E+000	1,7920455E+000	4,248915927956696E-001	2,000000000000000E+000	-1,5234871E-001	40	7,6142506E-004
2	1	0	1	1	1,800814294765461E+005	1,8153628E+000	1,8160331E+000	3,989274342142028E-001	2,000000000000000E+000	-1,3246587E-001	40	7,2446541E-004
2	1	0	1	1	1,801294210840543E+005	1,8393588E+000	1,8400751E+000	3,530051448611098E-001	2,000000000000000E+000	-1,1435881E-001	40	6,4955599E-004
2	1	0	1	1	1,801774127915632E+005	1,8633546E+000	1,8640773E+000	2,981979097478451E-001	2,000000000000000E+000	-9,8707750E-002	40	5,5586395E-004
2	1	0	1	1	1,802254044990719E+005	1,8873503E+000	1,8880792E+000	2,442161643355067E-001	2,000000000000000E+000	-8,5698605E-002	40	4,6109947E-004
2	1	0	1	1	1,802733960065823E+005	1,9113462E+000	1,9120891E+000	1,948897452514777E-001	2,000000000000000E+000	-7,5179689E-002	40	3,7264655E-004
2	1	0	1	1	1,803213876140891E+005	1,9353418E+000	1,9360746E+000	1,532685793824753E-001	2,000000000000000E+000	-6,6861689E-002	40	2,9673940E-004
2	1	0	1	1	1,803693793215994E+005	1,9593377E+000	1,9600917E+000	1,208043077526499E-001	2,000000000000000E+000	-6,0316499E-002	40	2,3678753E-004
2	1	0	1	1	1,804173710291069E+005	1,9833336E+000	1,9840933E+000	9,704953079318002E-002	2,000000000000000E+000	-5,5111319E-002	40	1,9255532E-004
2	1	0	1	1	1,804653628366170E+005	2,0073295E+000	2,0080671E+000	7,960312604859610E-002	2,000000000000000E+000	-5,0884150E-002	40	1,5984842E-004
2	1	0	1	1	1,805133542441246E+005	2,0313249E+000	2,0320649E+000	6,677173047378274E-002	2,000000000000000E+000	-4,7376942E-002	40	1,3568449E-004
2	1	0	1	1	1,805613462516358E+005	2,0553210E+000	2,0560627E+000	5,719666172825429E-002	2,000000000000000E+000	-4,4403449E-002	40	1,1759992E-004
2	1	0	1	1	1,806093377591427E+005	2,0793169E+000	2,0800703E+000	4,994568110962372E-002	2,000000000000000E+000	-4,1831862E-002	40	1,0389052E-004
2	1	0	1	1	1,806573292666525E+005	2,1033123E+000	2,1040485E+000	4,421356877089799E-002	2,000000000000000E+000	-3,9572839E-002	41	9,3027491E-005
2	1	0	1	1	1,807053210741603E+005	2,1273084E+000	2,1280127E+000	3,998881202061471E-002	2,000000000000000E+000	-3,7546132E-002	41	8,5096697E-005
2	1	0	1	1	1,807533132816702E+005	2,1513040E+000	2,1520431E+000	3,671916243024709E-002	2,000000000000000E+000	-3,5697892E-002	41	7,9021222E-005
2	1	0	1	1	1,808013046891787E+005	2,1753001E+000	2,1760290E+000	3,407152462652219E-002	2,000000000000000E+000	-3,3992093E-002	41	7,4140626E-005
2	1	0	1	1	1,808492962966873E+005	2,1992958E+000	2,2000346E+000	3,188031539197190E-002	2,000000000000000E+000	-3,2401346E-002	41	7,0137794E-005
2	1	0	1	1	1,808972880041972E+005	2,2232914E+000	2,2240353E+000	3,003078987744490E-002	2,000000000000000E+000	-3,0907640E-002	41	6,6789537E-005
2	1	0	1	1	1,809452795117046E+005	2,2472873E+000	2,2480350E+000	2,848322592166469E-002	2,000000000000000E+000	-2,9494958E-002	41	6,4031286E-005
2	1	0	1	1	1,809932715192148E+005	2,2712831E+000	2,2720063E+000	2,716429622639915E-002	2,000000000000000E+000	-2,8151143E-002	41	6,1717452E-005
2	1	0	1	1	1,810412631267223E+005	2,2952790E+000	2,2960384E+000	2,604873197893198E-002	2,000000000000000E+000	-2,6864795E-002	41	5,9808888E-005
2	1	0	1	1	1,810892547342330E+005	2,3192744E+000	2,3200102E+000	2,506475066301211E-002	2,000000000000000E+000	-2,5629036E-002	41	5,8150476E-005
2	1	0	1	1	1,811372461417397E+005	2,3432705E+000	2,3440003E+000	2,426364674134723E-002	2,000000000000000E+000	-2,4435971E-002	41	5,6873996E-005
2	1	0	1	1	1,811852383492505E+005	2,3672664E+000	2,3680158E+000	2,358914770321155E-002	2,000000000000000E+000	-2,3279443E-002	41	5,5859473E-005
2	1	0	1	1	1,812332301567579E+005	2,3912621E+000	2,3919899E+000	2,302181740657198E-002	2,000000000000000E+000	-2,2151753E-002	41	5,5067954E-005
2	1	0	1	1	1,812812216642685E+005	2,4152579E+000	2,4160173E+000	2,262810016259570E-002	2,000000000000000E+000	-2,1046894E-002	41	5,4669883E-005
2	1	0	1	1	1,813292131717750E+005	2,4392538E+000	2,4400074E+000	2,219100148955289E-002	2,000000000000000E+000	-1,9962134E-002	41	5,4146210E-005
2	1	0	1	1	1,813772053792859E+005	2,4632497E+000	2,4640367E+000	2,165716418522146E-002	2,000000000000000E+000	-1,8900728E-002	41	5,3364049E-005
2	1	0	1	1	1,814251968867932E+005	2,4872456E+000	2,4880025E+000	2,112896267460534E-002	2,000000000000000E+000	-1,7865062E-002	41	5,2568914E-005
2	1	0	1	1	1,814731883943032E+005	2,5112410E+000	2,5120385E+000	2,070731337194515E-002	2,000000000000000E+000	-1,6852014E-002	41	5,2017567E-005
2	1	0	1	1	1,815211802018117E+005	2,5352368E+000	2,5360141E+000	2,027794561512372E-002	2,000000000000000E+000	-1,5859695E-002	41	5,1425155E-005
2	1	0	1	1	1,815691720093207E+005	2,5592325E+000	2,5599906E+000	1,980008489370044E-002	2,000000000000000E+000	-1,4888966E-002	41	5,0688031E-005
2	1	0	1	1	1,816171636168296E+005	2,5832283E+000	2,5840039E+000	1,946542123915063E-002	2,000000000000000E+000	-1,3938629E-002	41	5,0298724E-005
2	1	0	1	1	1,816651554243378E+005	2,6072242E+000	2,6080348E+000	1,938302964602734E-002	2,000000000000000E+000	-1,2999184E-002	41	5,0551618E-005
2	1	0	1	1	1,817131470318474E+005	2,6312201E+000	2,6319828E+000	1,941168307098927E-002	2,000000000000000E+000	-1,2058852E-002	41	5,1091218E-005
2	1	0	1	1	1,817611388393554E+005	2,6552157E+000	2,6559939E+000	1,900534435196644E-002	2,000000000000000E+000	-1,1127315E-002	41	5,0478080E-005
2	1	0	1	1	1,818091304468652E+005	2,6792114E+000	2,6799729E+000	1,848992057217469E-002	2,000000000000000E+000	-1,0219404E-002	41	4,9552487E-005
2	1	0	1	1	1,818571222543726E+005	2,7032075E+000	2,7040057E+000	1,808214499766403E-002	2,000000000000000E+000	-9,3335910E-003	41	4,8894224E-005
2	1	0	1	1	1,819051138618831E+005	2,7272034E+000	2,7279646E+000	1,782596724479063E-002	2,000000000000000E+000	-8,4639760E-003	41	4,8628608E-005
2	1	0	1	1	1,819531056693906E+005	2,7511988E+000	2,7520144E+000	1,772677836918612E-002	2,000000000000000E+000	-7,6020309E-003	41	4,8784350E-005
2	1	0	1	1	1,820010974769015E+005	2,7751949E+000	2,7760317E+000	1,778472789476751E-002	2,000000000000000E+000	-6,7411936E-003	41	4,9370970E-005
2	1	0	1	1	1,820490889844089E+005	2,7991908E+000	2,8000195E+000	1,805996988045078E-002	2,000000000000000E+000	-5,8730594E-003	41	5,0568269E-005
2	1	0	1	1	1,820970804919191E+005	2,8231866E+000	2,8240154E+000	1,841922547489672E-002	2,000000000000000E+000	-4,9892948E-003	41	5,2016178E-005
2	1	0	1	1	1,821450722994264E+005	2,8471820E+000	2,8480010E+000	1,853444989451701E-002	2,000000000000000E+000	-4,0921443E-003	41	5,2786130E-005
2	1	0	1	1	1,821930642069373E+005	2,8711779E+000	2,8720255E+000	1,840034553687919E-002	2,000000000000000E+000	-3,1965838E-003	41	5,2846262E-005
2	1	0	1	1	1,822410557144447E+005	2,8951738E+000	2,8959830E+000	1,821040528412607E-002	2,000000000000000E+000	-2,3105207E-003	41	5,2737025E-005
2	1	0	1	1	1,822890475219537E+005	2,9191694E+000	2,9200139E+000	1,811409985372148E-002	2,000000000000000E+000	-1,4312281E-003	41	5,2893425E-005
2	1	0	1	1	1,823370393294622E+005	2,9431653E+000	2,9439766E+000	1,803237341644912E-002	2,000000000000000E+000	-5,5628165E-004	41	5,3086886E-005
2	1	0	1	1	1,823850309369711E+005	2,9671614E+000	2,9679759E+000	1,807406542007452E-002	2,000000000000000E+000	3,1845467E-004	41	5,3643391E-005
2	1	0	1	1	1,824330227444805E+005	2,9911568E+000	2,9920001E+000	1,825070605715653E-002	2,000000000000000E+000	1,1985580E-003	41	5,4606113E-005
2	1	0	1	0	1,824778147514900E+005	2,9864576E+000	2,9872971E+000	1,088680645603940E-002	2,000000000000000E+000	1,8695324E-003	41	3,2522126E-005
2	1	0	1	0	1,825258063589968E+005	2,9624622E+000	2,9632905E+000	7,323143212578834E-003	2,000000000000000E+000	2,2887457E-003	41	2,1700600E-005
2	1	0	1	0	1,825737979665066E+005	2,9384663E+000	2,9392838E+000	5,262942057402556E-003	2,000000000000000E+000	2,5784534E-003	41	1,5469281E-005
2	1	0	1	0	1,826217894740147E+005	2,9144707E+000	2,9152799E+000	3,832295057939844E-003	2,000000000000000E+000	2,7849481E-003	42	1,1172213E-005
2	1	0	1	0	1,826697811815238E+005	2,8904746E+000	2,8912444E+000	2,765156153523213E-003	2,000000000000000E+000	2,9335662E-003	42	7,9947422E-006
2	1	0	1	0	1,827177727890322E+005	2,8664787E+000	2,8672917E+000	1,944335638843941E-003	2,000000000000000E+000	3,0383717E-003	42	5,5749774E-006
2	1	0	1	0	1,827657641965412E+005	2,8424830E+000	2,8432992E+000	1,235815535809780E-003	2,000000000000000E+000	3,1071699E-003	42	3,5137932E-006
2	1	0	1	0	1,828137560040504E+005	2,8184872E+000	2,8193116E+000	6,985900009946980E-004	2,000000000000000E+000	3,1461420E-003	42	1,9695428E-006
2	1	0	1	0	1,828617477115586E+005	2,7944915E+000	2,7952847E+000	2,118596146480389E-004	2,000000000000000E+000	3,1608406E-003	43	5,9220793E-007
2	0	0	1	0	1,829097390190689E+005	2,7704959E+000	2,7713184E+000	-1,499138953041249E-004	2,000000000000000E+000	3,1566618E-003	43	-4,1545914E-007
2	0	0	1	0	1,829577306265759E+005	2,7465000E+000	2,7473702E+000	-5,009712302020261E-004	2,000000000000000E+000	3,1357307E-003	43	-1,3763535E-006
2	0	0	1	0	1,830057224340867E+005	2,7225039E+000	2,7233300E+000	-7,602305596724687E-004	2,000000000000000E+000	3,0988371E-003	42	-2,0703587E-006
2	0	0	1	0	1,830537139415941E+005	2,6985083E+000	2,6993058E+000	-1,093926796973177E-003	2,000000000000000E+000	3,0468029E-003	42	-2,9528428E-006
2	0	0	1	0	1,831017054491052E+005	2,6745126E+000	2,6753211E+000	-1,454513696375205E-003	2,000000000000000E+000	2,9784455E-003	42	-3,8912913E-006
2	0	0	1	0	1,831496972566117E+005	2,6505167E+000	2,6513386E+000	-1,947352754405801E-003	2,000000000000000E+000	2,8902236E-003	42	-5,1630914E-006
2	0	0	1	0	1,831976886641216E+005	2,6265209E+000	2,6273544E+000	-2,566353302857698E-003	2,000000000000000E+000	2,7743280E-003	42	-6,7427195E-006
2	0	0	1	0	1,832456802716297E+005	2,6025252E+000	2,6033785E+000	-3,075849261936828E-003	2,000000000000000E+000	2,6288149E-003	42	-8,0075997E-006
2	0	0	1	0	1,832936718791388E+005	2,5785291E+000	2,5794075E+000	-3,127332579589318E-003	2,000000000000000E+000	2,4711769E-003	42	-8,0666650E-006
2	0	0	1	0	1,833416634866474E+005	2,5545332E+000	2,5553882E+000	-3,263948866582170E-003	2,000000000000000E+000	2,3107263E-003	42	-8,3406567E-006
2	0	0	1	0	1,833896548941557E+005	2,5305374E+000	2,5314047E+000	-3,551381612404531E-003	2,000000000000000E+000	2,1397420E-003	42	-8,9899841E-006
2	0	0	1	0	1,834376467016656E+005	2,5065417E+000	2,5074089E+000	-3,881024568675409E-003	2,000000000000000E+000	1,9533024E-003	42	-9,7313150E-006
2	0	0	1	0	1,834856385091736E+005	2,4825459E+000	2,4833770E+000	-4,241655112418323E-003	2,000000000000000E+000	1,7503595E-003	42	-1,0533628E-005
2	0	0	1	0	1,835336297166841E+005	2,4585502E+000	2,4594345E+000	-4,569998196448613E-003	2,000000000000000E+000	1,5313142E-003	42	-1,1239611E-005
2	0	0	1	0	1,835816213241911E+005	2,4345546E+000	2,4353826E+000	-4,866495339737500E-003	2,000000000000000E+000	1,2963671E-003	42	-1,1851778E-005
2	0	0	1	0	1,836296131317019E+005	2,4105587E+000	2,4114079E+000	-5,084353629864785E-003	2,000000000000000E+000	1,0493938E-003	42	-1,2260451E-005
2	0	0	1	0	1,836776046392089E+005	2,3865631E+000	2,3873937E+000	-5,215420152406156E-003	2,000000000000000E+000	7,9483062E-004	42	-1,2451262E-005
2	0	0	1	0	1,837255961467195E+005	2,3625672E+000	2,3634253E+000	-5,386092708508811E-003	2,000000000000000E+000	5,3328968E-004	42	-1,2729627E-005
2	0	0	1	0	1,837735879542269E+005	2,3385713E+000	2,3394215E+000	-5,574858955729345E-003	2,000000000000000E+000	2,6248294E-004	42	-1,3041945E-005
2	0	0	1	0	1,838215793617368E+005	2,3145754E+000	2,3154225E+000	-5,818187615285429E-003	2,000000000000000E+000	-1,9399369E-005	42	-1,3471563E-005
2	0	0	1	0	1,838695709692445E+005	2,2905798E+000	2,2914345E+000	-6,131731071912984E-003	2,000000000000000E+000	-3,1410184E-004	42	-1,4050460E-005
2	0	0	1	0	1,839175625767538E+005	2,2665839E+000	2,2674544E+000	-6,420485914218343E-003	2,000000000000000E+000	-6,2330154E-004	42	-1,4558159E-005
2	0	0	1	0	1,839513271820368E+005	2,2496376E+000	2,2504759E+000	-7,077139014234929E-003	2,000000000000000E+000	-8,5056067E-004	42	-1,5926931E-005