File: Dati/201117/CV_LTO-CB_10 layer_grafite_cu_05_1mVs_03_CV_C03.mpt
EC-Lab ASCII FILE
Nb header lines : 57

Cyclic Voltammetry

Run on channel : 3 (SN 6807)
User :
Electrode connection : standard
Ewe ctrl range : min = 0,00 V, max = 5,00 V
Ewe,I filtering : 50 kHz
Safety Limits :
	Do not start on E overload
Channel : Grounded
Acquisition started on : 11/17/2020 16:29:06
Saved on :
	File : CV_LTO-CB_10 layer_grafite_cu_05_1mVs_03_CV_C03.mpr
	Directory : C:\Users\labsuperfici\Desktop\Biologic\Users\Prisca Viviani\201117\
	Host : 10.78.33.0
Device : VSP-300 (SN 0638)
Address : USB
EC-Lab for windows v11.31 (software)
Internet server v11.30 (firmware)
Command interpretor v11.31 (firmware)
Electrode material :
Initial state :
Electrolyte :
Comments :
Cable : standard
Reference electrode : SCE Saturated Calomel Electrode (0,241 V)
Electrode surface area : 0,001 cm²
Characteristic mass : 0,001 g
Equivalent Weight : 0,000 g/eq.
Density : 0,000 g/cm3
Cycle Definition : Charge/Discharge alternance
Ei (V)              0,000
vs.                 Eoc
dE/dt               0,600
dE/dt unit          mV/s
E1 (V)              1,000
vs.                 Ref
Step percent        50
N                   10
E range min (V)     0,000
E range max (V)     5,000
I Range             Auto
I Range min         Unset
I Range max         Unset
I Range init        Unset
Bandwidth           8
E2 (V)              2,700
vs.                 Ref
nc cycles           1
Reverse Scan        1
Ef (V)              0,000
vs.                 Eoc

mode	ox/red	error	control changes	counter inc.	time/s	control/V	Ewe/V	<I>/mA	cycle number	(Q-Qo)/C	I Range	P/W
2	1	0	0	0	1,880848191839946E+004	2,5277619E+000	2,5271537E+000	5,604332778602839E-003	1,000000000000000E+000	0,0000000E+000	42	1,4163011E-005
2	1	0	1	0	1,884105171800521E+004	2,5082190E+000	2,5076680E+000	3,618220620668154E-003	1,000000000000000E+000	1,3145166E-004	42	9,0732965E-006
2	1	0	1	0	1,887437151760174E+004	2,4882271E+000	2,4876823E+000	2,785881399438549E-003	1,000000000000000E+000	2,3500003E-004	42	6,9303878E-006
2	1	0	1	0	1,890769131719832E+004	2,4682353E+000	2,4676824E+000	2,063417581480927E-003	1,000000000000000E+000	3,1275972E-004	42	5,0918593E-006
2	1	0	1	0	1,894101111679489E+004	2,4482434E+000	2,4477041E+000	1,378678314859397E-003	1,000000000000000E+000	3,6688603E-004	42	3,3745966E-006
2	1	0	1	0	1,897433091639145E+004	2,4282517E+000	2,4277220E+000	7,225662011253447E-004	1,000000000000000E+000	3,9866433E-004	42	1,7541898E-006
2	1	0	1	0	1,900765061598810E+004	2,4082599E+000	2,4077399E+000	7,908300772099764E-005	1,000000000000000E+000	4,0905757E-004	43	1,9041131E-007
2	0	0	1	0	1,904097041558468E+004	2,3882678E+000	2,3878195E+000	-5,655289350381450E-004	1,000000000000000E+000	3,9855790E-004	43	-1,3503810E-006
2	0	0	1	0	1,907429001518129E+004	2,3682761E+000	2,3677797E+000	-1,184304090044202E-003	1,000000000000000E+000	3,6658993E-004	42	-2,8041711E-006
2	0	0	1	0	1,910760981477788E+004	2,3482842E+000	2,3477955E+000	-1,811123419958132E-003	1,000000000000000E+000	3,1345291E-004	42	-4,2521474E-006
2	0	0	1	0	1,914092961437445E+004	2,3282921E+000	2,3278158E+000	-2,479158600816236E-003	1,000000000000000E+000	2,3886934E-004	42	-5,7710245E-006
2	0	0	1	0	1,917424921397114E+004	2,3083007E+000	2,3078728E+000	-3,155226473185460E-003	1,000000000000000E+000	1,4195066E-004	42	-7,2818611E-006
2	0	0	1	0	1,920756891356764E+004	2,2883086E+000	2,2878327E+000	-3,882277870499926E-003	1,000000000000000E+000	2,1526026E-005	42	-8,8820025E-006
2	0	0	1	0	1,924088871316423E+004	2,2683170E+000	2,2678568E+000	-4,647258990492342E-003	1,000000000000000E+000	-1,2332425E-004	42	-1,0539318E-005
2	0	0	1	0	1,927420851276082E+004	2,2483251E+000	2,2478821E+000	-5,446724121534801E-003	1,000000000000000E+000	-2,9427517E-004	42	-1,2243594E-005
2	0	0	1	0	1,930752831235738E+004	2,2283330E+000	2,2279000E+000	-6,310543457846620E-003	1,000000000000000E+000	-4,9301994E-004	42	-1,4059260E-005
2	0	0	1	0	1,934084811195402E+004	2,2083414E+000	2,2079101E+000	-7,215468050773277E-003	1,000000000000000E+000	-7,2143564E-004	42	-1,5931104E-005
2	0	0	1	0	1,937416771155060E+004	2,1883497E+000	2,1879215E+000	-8,246879187742133E-003	1,000000000000000E+000	-9,8182668E-004	42	-1,8043524E-005
2	0	0	1	0	1,940748751114716E+004	2,1683578E+000	2,1679456E+000	-9,291278819568233E-003	1,000000000000000E+000	-1,2764063E-003	42	-2,0142987E-005
2	0	0	1	0	1,944080731074378E+004	2,1483660E+000	2,1478646E+000	-1,046922665921213E-002	1,000000000000000E+000	-1,6087863E-003	41	-2,2486482E-005
2	0	0	1	0	1,947412691034036E+004	2,1283741E+000	2,1278536E+000	-1,171832343748568E-002	1,000000000000000E+000	-1,9808665E-003	41	-2,4934878E-005
2	0	0	1	0	1,950744670993695E+004	2,1083822E+000	2,1078858E+000	-1,303107706221740E-002	1,000000000000000E+000	-2,3959042E-003	41	-2,7468022E-005
2	0	0	1	0	1,954076650953363E+004	2,0883904E+000	2,0878830E+000	-1,449888302826946E-002	1,000000000000000E+000	-2,8576474E-003	41	-3,0271971E-005
2	0	0	1	0	1,957408630913016E+004	2,0683982E+000	2,0679033E+000	-1,611823229749472E-002	1,000000000000000E+000	-3,3704257E-003	41	-3,3330947E-005
2	0	0	1	0	1,960740610872673E+004	2,0484066E+000	2,0478842E+000	-1,784399716116357E-002	1,000000000000000E+000	-3,9386861E-003	41	-3,6542442E-005
2	0	0	1	0	1,964072590832342E+004	2,0284147E+000	2,0279212E+000	-1,972062499301186E-002	1,000000000000000E+000	-4,5672073E-003	41	-3,9991872E-005
2	0	0	1	0	1,967404560791992E+004	2,0084226E+000	2,0078912E+000	-2,181586053390244E-002	1,000000000000000E+000	-5,2619851E-003	41	-4,3803873E-005
2	0	0	1	0	1,970736540751653E+004	1,9884310E+000	1,9879304E+000	-2,408586185734984E-002	1,000000000000000E+000	-6,0291276E-003	41	-4,7881018E-005
2	0	0	0	0	1,974068510711310E+004	1,9684396E+000	1,9679073E+000	-2,655471202038728E-002	1,000000000000000E+000	-6,8756929E-003	41	-5,2257212E-005
2	0	0	1	0	1,977400490670971E+004	1,9484476E+000	1,9479471E+000	-2,930183517277639E-002	1,000000000000000E+000	-7,8087365E-003	41	-5,7078425E-005
2	0	0	1	0	1,980732470630630E+004	1,9284558E+000	1,9279728E+000	-3,227993459841187E-002	1,000000000000000E+000	-8,8373078E-003	41	-6,2234838E-005
2	0	0	1	0	1,984064440590287E+004	1,9084638E+000	1,9079821E+000	-3,561267506507360E-002	1,000000000000000E+000	-9,9712647E-003	41	-6,7948349E-005
2	0	0	1	0	1,987396400549955E+004	1,8884718E+000	1,8879961E+000	-3,931486660978528E-002	1,000000000000000E+000	-1,1221873E-002	41	-7,4226315E-005
2	0	0	1	0	1,990728380509606E+004	1,8684800E+000	1,8679670E+000	-4,341766986548695E-002	1,000000000000000E+000	-1,2602327E-002	41	-8,1102778E-005
2	0	0	1	0	1,994060360469264E+004	1,8484880E+000	1,8479773E+000	-4,793393019871184E-002	1,000000000000000E+000	-1,4126508E-002	41	-8,8580811E-005
2	0	0	1	0	1,997392330428923E+004	1,8284963E+000	1,8279932E+000	-5,302663185490533E-002	1,000000000000000E+000	-1,5810302E-002	41	-9,6932323E-005
2	0	0	1	0	2,000724310388579E+004	1,8085046E+000	1,8080261E+000	-5,859709266092339E-002	1,000000000000000E+000	-1,7671615E-002	41	-1,0594507E-004
2	0	0	1	0	2,004056280348243E+004	1,7885126E+000	1,7880265E+000	-6,480926276590328E-002	1,000000000000000E+000	-1,9730089E-002	41	-1,1588068E-004
2	0	0	1	0	2,007388260307901E+004	1,7685208E+000	1,7680176E+000	-7,176983975641194E-002	1,000000000000000E+000	-2,2006942E-002	41	-1,2689034E-004
2	0	0	1	0	2,010720240267570E+004	1,7485291E+000	1,7480729E+000	-7,923981345680930E-002	1,000000000000000E+000	-2,4524208E-002	41	-1,3851697E-004
2	0	0	0	0	2,014052210227214E+004	1,7285370E+000	1,7281046E+000	-8,747188798186062E-002	1,000000000000000E+000	-2,7304634E-002	41	-1,5116057E-004
2	0	0	1	0	2,017384190186879E+004	1,7085454E+000	1,7081280E+000	-9,637194554452400E-002	1,000000000000000E+000	-3,0369824E-002	41	-1,6461562E-004
2	0	0	1	0	2,020716160146537E+004	1,6885535E+000	1,6880572E+000	-1,061299121466031E-001	1,000000000000000E+000	-3,3745266E-002	40	-1,7915336E-004
2	0	0	1	0	2,024048140106199E+004	1,6685617E+000	1,6680127E+000	-1,163564567408317E-001	1,000000000000000E+000	-3,7454430E-002	40	-1,9408404E-004
2	0	0	1	0	2,027380120065858E+004	1,6485697E+000	1,6480355E+000	-1,271167673461659E-001	1,000000000000000E+000	-4,1513041E-002	40	-2,0949295E-004
2	0	0	1	0	2,030712100025515E+004	1,6285778E+000	1,6280186E+000	-1,388082165670008E-001	1,000000000000000E+000	-4,5945868E-002	40	-2,2598237E-004
2	0	0	1	0	2,034044079985173E+004	1,6085861E+000	1,6080576E+000	-1,514278831140790E-001	1,000000000000000E+000	-5,0782055E-002	40	-2,4350476E-004
2	0	0	1	0	2,037376039944834E+004	1,5885941E+000	1,5880337E+000	-1,652904431565481E-001	1,000000000000000E+000	-5,6058340E-002	40	-2,6248678E-004
2	0	0	1	0	2,040708009904492E+004	1,5686026E+000	1,5680745E+000	-1,810684578882138E-001	1,000000000000000E+000	-6,1826985E-002	40	-2,8392882E-004
2	0	0	0	0	2,044039989864151E+004	1,5486106E+000	1,5480783E+000	-1,989021532702209E-001	1,000000000000000E+000	-6,8154640E-002	40	-3,0791611E-004
2	0	0	1	0	2,047371969823807E+004	1,5286189E+000	1,5280875E+000	-2,194419201642309E-001	1,000000000000000E+000	-7,5120546E-002	40	-3,3532645E-004
2	0	0	1	0	2,050703939783471E+004	1,5086268E+000	1,5080634E+000	-2,431864855188144E-001	1,000000000000000E+000	-8,2822591E-002	40	-3,6674066E-004
2	0	0	1	0	2,054035919743129E+004	1,4886349E+000	1,4881232E+000	-2,707771106730554E-001	1,000000000000000E+000	-9,1379583E-002	40	-4,0294969E-004
2	0	0	1	0	2,057367879702797E+004	1,4686432E+000	1,4681220E+000	-3,025484007958941E-001	1,000000000000000E+000	-1,0092767E-001	40	-4,4417797E-004
2	0	0	1	0	2,060699859662447E+004	1,4486513E+000	1,4481423E+000	-3,369844788810243E-001	1,000000000000000E+000	-1,1158323E-001	40	-4,8800147E-004
2	0	0	1	0	2,064031839622108E+004	1,4286596E+000	1,4281456E+000	-3,718620103691057E-001	1,000000000000000E+000	-1,2339887E-001	40	-5,3107314E-004
2	0	0	1	0	2,067363809581765E+004	1,4086678E+000	1,4081821E+000	-4,047774064111462E-001	1,000000000000000E+000	-1,3635023E-001	40	-5,7000032E-004
2	0	0	1	0	2,070695779541426E+004	1,3886758E+000	1,3881638E+000	-4,346806877417455E-001	1,000000000000000E+000	-1,5035255E-001	40	-6,0340797E-004
2	0	0	1	0	2,074027759501085E+004	1,3686839E+000	1,3682106E+000	-4,603689665842450E-001	1,000000000000000E+000	-1,6528226E-001	40	-6,2988169E-004
2	0	0	1	0	2,077359739460744E+004	1,3486922E+000	1,3481851E+000	-4,815011290658235E-001	1,000000000000000E+000	-1,8099198E-001	40	-6,4915261E-004
2	0	0	1	0	2,080691719420411E+004	1,3287002E+000	1,3282156E+000	-4,973581209620348E-001	1,000000000000000E+000	-1,9731928E-001	40	-6,6059880E-004
2	0	0	0	0	2,084023689380061E+004	1,3087084E+000	1,3082184E+000	-5,079509055596270E-001	1,000000000000000E+000	-2,1408735E-001	40	-6,6451071E-004
2	0	0	1	0	2,087355659339721E+004	1,2887166E+000	1,2882295E+000	-5,130920394835262E-001	1,000000000000000E+000	-2,3111872E-001	40	-6,6098029E-004
2	0	0	1	0	2,090687639299379E+004	1,2687247E+000	1,2682385E+000	-5,131912670460501E-001	1,000000000000000E+000	-2,4823472E-001	40	-6,5084896E-004
2	0	0	1	0	2,094019619259040E+004	1,2487328E+000	1,2482573E+000	-5,092022920506238E-001	1,000000000000000E+000	-2,6527828E-001	40	-6,3561549E-004
2	0	0	1	0	2,097351589218699E+004	1,2287410E+000	1,2282537E+000	-5,011801917766263E-001	1,000000000000000E+000	-2,8212216E-001	40	-6,1557646E-004
2	0	0	1	0	2,100683569178358E+004	1,2087492E+000	1,2082750E+000	-4,903957963913390E-001	1,000000000000000E+000	-2,9865050E-001	40	-5,9253298E-004
2	0	0	1	0	2,104015529138024E+004	1,1887574E+000	1,1882750E+000	-4,778440165407787E-001	1,000000000000000E+000	-3,1478900E-001	40	-5,6781009E-004
2	0	0	0	0	2,107347509097678E+004	1,1687657E+000	1,1683128E+000	-4,640580637887117E-001	1,000000000000000E+000	-3,3048755E-001	40	-5,4216495E-004
2	0	0	1	0	2,110679489057334E+004	1,1487738E+000	1,1482732E+000	-4,495101319324553E-001	1,000000000000000E+000	-3,4571251E-001	40	-5,1616045E-004
2	0	0	1	0	2,114011459016992E+004	1,1287819E+000	1,1282771E+000	-4,347321788290781E-001	1,000000000000000E+000	-3,6044547E-001	40	-4,9049832E-004
2	0	0	1	0	2,117343428976653E+004	1,1087902E+000	1,1082619E+000	-4,200622317996006E-001	1,000000000000000E+000	-3,7468886E-001	40	-4,6553899E-004
2	0	0	1	0	2,120675408936311E+004	1,0887982E+000	1,0882958E+000	-4,058207880990026E-001	1,000000000000000E+000	-3,8844973E-001	40	-4,4165307E-004
2	0	0	1	0	2,124007378895971E+004	1,0688064E+000	1,0683086E+000	-3,924996063555595E-001	1,000000000000000E+000	-4,0175205E-001	40	-4,1931070E-004
2	0	0	1	0	2,127339348855638E+004	1,0488145E+000	1,0483122E+000	-3,802835230101564E-001	1,000000000000000E+000	-4,1462600E-001	40	-3,9865586E-004
2	0	0	1	0	2,130671328815291E+004	1,0288227E+000	1,0283360E+000	-3,692058558802191E-001	1,000000000000000E+000	-4,2711172E-001	40	-3,7966770E-004
2	0	0	1	0	2,134003298774948E+004	1,0088308E+000	1,0082992E+000	-3,598849179744431E-001	1,000000000000000E+000	-4,3925753E-001	40	-3,6287168E-004
2	0	0	1	0	2,137068808737834E+004	1,0095307E+000	1,0089769E+000	-3,155187292877368E-001	1,000000000000000E+000	-4,4984117E-001	40	-3,1835111E-004
2	0	0	1	0	2,140400788697493E+004	1,0295225E+000	1,0289863E+000	-2,603664471267959E-001	1,000000000000000E+000	-4,5937163E-001	40	-2,6791351E-004
2	0	0	1	0	2,143732758657151E+004	1,0495142E+000	1,0489961E+000	-2,199506615407948E-001	1,000000000000000E+000	-4,6733794E-001	40	-2,3072738E-004
2	0	0	1	0	2,147064728616818E+004	1,0695062E+000	1,0689502E+000	-1,881023682873395E-001	1,000000000000000E+000	-4,7411129E-001	40	-2,0107206E-004
2	0	0	0	0	2,150396708576471E+004	1,0894980E+000	1,0889447E+000	-1,621607206880968E-001	1,000000000000000E+000	-4,7992834E-001	40	-1,7658406E-004
2	0	0	1	0	2,153728688536129E+004	1,1094899E+000	1,1089183E+000	-1,405806688108390E-001	1,000000000000000E+000	-4,8495689E-001	40	-1,5589247E-004
2	0	0	1	0	2,157060648495797E+004	1,1294814E+000	1,1289477E+000	-1,223561581260224E-001	1,000000000000000E+000	-4,8932469E-001	40	-1,3813371E-004
2	0	0	1	0	2,160392628455447E+004	1,1494734E+000	1,1489155E+000	-1,067088969114935E-001	1,000000000000000E+000	-4,9313042E-001	40	-1,2259951E-004
2	0	0	1	0	2,163724598415106E+004	1,1694652E+000	1,1689059E+000	-9,309729605148176E-002	1,000000000000000E+000	-4,9645030E-001	40	-1,0882197E-004
2	0	0	1	0	2,167056578374765E+004	1,1894571E+000	1,1889143E+000	-8,115106769874653E-002	1,000000000000000E+000	-4,9934542E-001	40	-9,6481665E-005
2	0	0	1	0	2,170388578334427E+004	1,2094489E+000	1,2089144E+000	-7,054497396573356E-002	1,000000000000000E+000	-5,0186509E-001	40	-8,5282838E-005
2	0	0	1	0	2,173720548294086E+004	1,2294409E+000	1,2288703E+000	-6,097812031695693E-002	1,000000000000000E+000	-5,0404990E-001	40	-7,4934200E-005
2	0	0	0	0	2,177052528253743E+004	1,2494327E+000	1,2488667E+000	-5,231744251401738E-002	1,000000000000000E+000	-5,0593174E-001	40	-6,5337510E-005
2	0	0	1	0	2,180384498213412E+004	1,2694246E+000	1,2689159E+000	-4,426706390384128E-002	1,000000000000000E+000	-5,0753462E-001	41	-5,6171182E-005
2	0	0	1	0	2,183716478173062E+004	1,2894163E+000	1,2889072E+000	-3,696854525774529E-002	1,000000000000000E+000	-5,0888211E-001	41	-4,7649024E-005
2	0	0	1	0	2,187048458132721E+004	1,3094082E+000	1,3088738E+000	-3,006969309194280E-002	1,000000000000000E+000	-5,0999367E-001	41	-3,9357434E-005
2	0	0	1	0	2,190380448092379E+004	1,3294001E+000	1,3288544E+000	-2,356282150483924E-002	1,000000000000000E+000	-5,1088226E-001	41	-3,1311560E-005
2	0	0	1	0	2,193712418052042E+004	1,3493918E+000	1,3488480E+000	-1,727796530305420E-002	1,000000000000000E+000	-5,1155847E-001	41	-2,3305349E-005
2	0	0	1	0	2,197044398011698E+004	1,3693836E+000	1,3688540E+000	-1,120994460175950E-002	1,000000000000000E+000	-5,1202947E-001	41	-1,5344778E-005
2	0	0	1	0	2,200376377971356E+004	1,3893754E+000	1,3888594E+000	-5,135593895149258E-003	1,000000000000000E+000	-5,1229948E-001	41	-7,1326176E-006
2	1	0	1	0	2,203708347931015E+004	1,4093674E+000	1,4087564E+000	8,016353959735068E-004	1,000000000000000E+000	-5,1236784E-001	43	1,1293090E-006
2	1	0	1	0	2,207040327890683E+004	1,4293592E+000	1,4287173E+000	7,095163757850451E-003	1,000000000000000E+000	-5,1223242E-001	42	1,0136983E-005
2	1	0	1	0	2,210372307850333E+004	1,4493513E+000	1,4487907E+000	1,371333969083985E-002	1,000000000000000E+000	-5,1188290E-001	41	1,9867759E-005
2	1	0	1	0	2,213704287809994E+004	1,4693431E+000	1,4687606E+000	2,071894393301310E-002	1,000000000000000E+000	-5,1130682E-001	41	3,0431169E-005
2	1	0	1	0	2,217036267769651E+004	1,4893349E+000	1,4887389E+000	2,824892307549393E-002	1,000000000000000E+000	-5,1048917E-001	41	4,2055271E-005
2	1	0	1	0	2,220368237729312E+004	1,5093266E+000	1,5087256E+000	3,632862935338699E-002	1,000000000000000E+000	-5,0941133E-001	41	5,4809934E-005
2	1	0	1	0	2,223700207688972E+004	1,5293186E+000	1,5286884E+000	4,516088638551058E-002	1,000000000000000E+000	-5,0805157E-001	41	6,9036927E-005
2	1	0	1	0	2,227032177648629E+004	1,5493101E+000	1,5486803E+000	5,504160049494206E-002	1,000000000000000E+000	-5,0638169E-001	41	8,5241845E-005
2	1	0	1	0	2,230364177608298E+004	1,5693020E+000	1,5686469E+000	6,673082141129472E-002	1,000000000000000E+000	-5,0435495E-001	41	1,0467710E-004
2	1	0	1	0	2,233696157567948E+004	1,5892940E+000	1,5886387E+000	8,078877558329745E-002	1,000000000000000E+000	-5,0190145E-001	41	1,2834417E-004
2	1	0	1	0	2,237028127527607E+004	1,6092857E+000	1,6086392E+000	1,002024827092789E-001	1,000000000000000E+000	-4,9890637E-001	41	1,6118964E-004
2	1	0	1	0	2,240360097487265E+004	1,6292776E+000	1,6286888E+000	1,310227498835144E-001	1,000000000000000E+000	-4,9508160E-001	40	2,1339528E-004
2	1	0	1	0	2,243692077446927E+004	1,6492693E+000	1,6486982E+000	1,704949648651874E-001	1,000000000000000E+000	-4,9006850E-001	40	2,8109475E-004
2	1	0	1	0	2,247024057406586E+004	1,6692613E+000	1,6686620E+000	2,133133613245675E-001	1,000000000000000E+000	-4,8367497E-001	40	3,5594788E-004
2	1	0	1	0	2,250356057366244E+004	1,6892531E+000	1,6886483E+000	2,576151878541122E-001	1,000000000000000E+000	-4,7582603E-001	40	4,3502147E-004
2	1	0	1	0	2,253688037325902E+004	1,7092450E+000	1,7086332E+000	3,027288532933188E-001	1,000000000000000E+000	-4,6648622E-001	40	5,1725254E-004
2	1	0	0	0	2,257020007285569E+004	1,7292370E+000	1,7285963E+000	3,477036497977952E-001	1,000000000000000E+000	-4,5564240E-001	40	6,0103927E-004
2	1	0	1	0	2,260351987245222E+004	1,7492288E+000	1,7485867E+000	3,921674531997263E-001	1,000000000000000E+000	-4,4330785E-001	40	6,8573875E-004
2	1	0	1	0	2,263683957204880E+004	1,7692206E+000	1,7685755E+000	4,351593074962832E-001	1,000000000000000E+000	-4,2951339E-001	40	7,6961209E-004
2	1	0	1	0	2,267015937164542E+004	1,7892122E+000	1,7885911E+000	4,758456357342721E-001	1,000000000000000E+000	-4,1432276E-001	40	8,5109327E-004
2	1	0	1	0	2,270347937124199E+004	1,8092043E+000	1,8085558E+000	5,127986817411774E-001	1,000000000000000E+000	-3,9783531E-001	40	9,2742505E-004
2	1	0	1	0	2,273679897083857E+004	1,8291959E+000	1,8285567E+000	5,451791926951746E-001	1,000000000000000E+000	-3,8018882E-001	40	9,9689106E-004
2	1	0	1	0	2,277011867043516E+004	1,8491880E+000	1,8485488E+000	5,714706693001599E-001	1,000000000000000E+000	-3,6156365E-001	40	1,0563914E-003
2	1	0	1	0	2,280343847003172E+004	1,8691800E+000	1,8685267E+000	5,908673282166070E-001	1,000000000000000E+000	-3,4217420E-001	40	1,1040514E-003
2	1	0	0	0	2,283675826962836E+004	1,8891717E+000	1,8885412E+000	6,029227183115662E-001	1,000000000000000E+000	-3,2226008E-001	40	1,1386444E-003
2	1	0	1	0	2,287007796922493E+004	1,9091635E+000	1,9085433E+000	6,063604246204166E-001	1,000000000000000E+000	-3,0208632E-001	40	1,1572652E-003
2	1	0	1	0	2,290339786882151E+004	1,9291551E+000	1,9285219E+000	6,013110418400025E-001	1,000000000000000E+000	-2,8193909E-001	40	1,1596415E-003
2	1	0	1	0	2,293671756841813E+004	1,9491470E+000	1,9484882E+000	5,880420062067815E-001	1,000000000000000E+000	-2,6209792E-001	40	1,1457929E-003
2	1	0	1	0	2,297003736801472E+004	1,9691391E+000	1,9684957E+000	5,667316848938726E-001	1,000000000000000E+000	-2,4283253E-001	40	1,1156088E-003
2	1	0	1	0	2,300335716761131E+004	1,9891306E+000	1,9884993E+000	5,384810612992013E-001	1,000000000000000E+000	-2,2439869E-001	40	1,0707692E-003
2	1	0	1	0	2,303667686720798E+004	2,0091224E+000	2,0085025E+000	5,044635523056989E-001	1,000000000000000E+000	-2,0700748E-001	40	1,0132163E-003
2	1	0	1	0	2,306999666680448E+004	2,0291145E+000	2,0285234E+000	4,665194980188350E-001	1,000000000000000E+000	-1,9081953E-001	40	9,4634574E-004
2	1	0	1	0	2,310331666640108E+004	2,0491064E+000	2,0484838E+000	4,264369367082779E-001	1,000000000000000E+000	-1,7593707E-001	40	8,7354920E-004
2	1	0	1	0	2,313663646599767E+004	2,0690980E+000	2,0685232E+000	3,867358903404887E-001	1,000000000000000E+000	-1,6238983E-001	40	7,9997216E-004
2	1	0	1	0	2,316995626559434E+004	2,0890901E+000	2,0885160E+000	3,487948356109758E-001	1,000000000000000E+000	-1,5013993E-001	40	7,2846358E-004
2	1	0	1	0	2,320327606519079E+004	2,1090820E+000	2,1085079E+000	3,140871878185809E-001	1,000000000000000E+000	-1,3910346E-001	40	6,6225533E-004
2	1	0	1	0	2,323659586478744E+004	2,1290734E+000	2,1285083E+000	2,832376027249215E-001	1,000000000000000E+000	-1,2916073E-001	40	6,0287362E-004
2	1	0	1	0	2,326991546438402E+004	2,1490655E+000	2,1484835E+000	2,563109674883182E-001	1,000000000000000E+000	-1,2017995E-001	40	5,5067986E-004
2	1	0	1	0	2,330323566398059E+004	2,1690576E+000	2,1685030E+000	2,330575299596725E-001	1,000000000000000E+000	-1,1203391E-001	40	5,0538598E-004
2	1	0	1	0	2,333655546357721E+004	2,1890495E+000	2,1884840E+000	2,131533839292734E-001	1,000000000000000E+000	-1,0460611E-001	40	4,6648277E-004
2	1	0	1	0	2,336987506317381E+004	2,2090409E+000	2,2085152E+000	1,960324285179480E-001	1,000000000000000E+000	-9,7794898E-002	40	4,3294058E-004
2	1	0	1	0	2,340319476277038E+004	2,2290330E+000	2,2284791E+000	1,810221178597899E-001	1,000000000000000E+000	-9,1516405E-002	40	4,0340400E-004
2	1	0	1	0	2,343651456236700E+004	2,2490249E+000	2,2484682E+000	1,676954250306988E-001	1,000000000000000E+000	-8,5708216E-002	40	3,7705782E-004
2	1	0	1	0	2,346983436196359E+004	2,2690165E+000	2,2684846E+000	1,557043830329197E-001	1,000000000000000E+000	-8,0320545E-002	40	3,5321299E-004
2	1	0	1	0	2,350315456156016E+004	2,2890084E+000	2,2884676E+000	1,447416567721256E-001	1,000000000000000E+000	-7,5315617E-002	40	3,3123660E-004
2	1	0	1	0	2,353647436115675E+004	2,3090003E+000	2,3084838E+000	1,345727327563393E-001	1,000000000000000E+000	-7,0662111E-002	40	3,1065897E-004
2	1	0	1	0	2,356979416075343E+004	2,3289924E+000	2,3284464E+000	1,249955544165393E-001	1,000000000000000E+000	-6,6336803E-002	40	2,9104544E-004
2	1	0	1	0	2,360311366034992E+004	2,3489842E+000	2,3484426E+000	1,159582845925808E-001	1,000000000000000E+000	-6,2320985E-002	40	2,7232137E-004
2	1	0	1	0	2,363643345994652E+004	2,3689761E+000	2,3684294E+000	1,073091374398405E-001	1,000000000000000E+000	-5,8599308E-002	40	2,5415412E-004
2	1	0	1	0	2,366975325954310E+004	2,3889680E+000	2,3884299E+000	9,880903817132891E-002	1,000000000000000E+000	-5,5163693E-002	40	2,3599846E-004
2	1	0	1	0	2,370307325913972E+004	2,4089594E+000	2,4084017E+000	9,060080027158168E-002	1,000000000000000E+000	-5,2007291E-002	40	2,1820312E-004
2	1	0	1	0	2,373639305873631E+004	2,4289513E+000	2,4284353E+000	8,295849157586188E-002	1,000000000000000E+000	-4,9115241E-002	40	2,0145933E-004
2	1	0	1	0	2,376971285833287E+004	2,4489431E+000	2,4484172E+000	7,619143116405569E-002	1,000000000000000E+000	-4,6463273E-002	40	1,8654841E-004
2	1	0	1	0	2,380303265792946E+004	2,4689350E+000	2,4684045E+000	7,033895030137327E-002	1,000000000000000E+000	-4,4021871E-002	40	1,7362498E-004
2	1	0	1	0	2,383635245752614E+004	2,4889269E+000	2,4884048E+000	6,531026290060499E-002	1,000000000000000E+000	-4,1762181E-002	40	1,6251836E-004
2	1	0	1	0	2,386967225712267E+004	2,5089190E+000	2,5083952E+000	6,099896235993785E-002	1,000000000000000E+000	-3,9657440E-002	40	1,5300950E-004
2	1	0	1	0	2,390299245671925E+004	2,5289109E+000	2,5283709E+000	5,738228039950366E-002	1,000000000000000E+000	-3,7684340E-002	40	1,4508369E-004
2	1	0	1	0	2,393631205631583E+004	2,5489028E+000	2,5483851E+000	5,428950421714379E-002	1,000000000000000E+000	-3,5822567E-002	40	1,3835057E-004
2	1	0	1	0	2,396963185591245E+004	2,5688946E+000	2,5683534E+000	5,169669154362452E-002	1,000000000000000E+000	-3,4055643E-002	40	1,3277537E-004
2	1	0	1	0	2,400295165550904E+004	2,5888865E+000	2,5883470E+000	4,946516222833708E-002	1,000000000000000E+000	-3,2368835E-002	40	1,2803300E-004
2	1	0	1	0	2,403643785510361E+004	2,6089783E+000	2,6084132E+000	4,765881726231647E-002	1,000000000000000E+000	-3,0741639E-002	41	1,2431388E-004
2	1	0	1	0	2,406975765470018E+004	2,6289701E+000	2,6284156E+000	4,601042727181490E-002	1,000000000000000E+000	-2,9179545E-002	41	1,2093452E-004
2	1	0	1	0	2,410307765429677E+004	2,6489615E+000	2,6483934E+000	4,453337333044072E-002	1,000000000000000E+000	-2,7668878E-002	41	1,1794189E-004
2	1	0	1	0	2,413639745389344E+004	2,6689534E+000	2,6683910E+000	4,317689568406624E-002	1,000000000000000E+000	-2,6205055E-002	41	1,1521284E-004
2	1	0	1	0	2,416971725348997E+004	2,6889453E+000	2,6883726E+000	4,185541543457794E-002	1,000000000000000E+000	-2,4786003E-002	41	1,1252295E-004
2	1	0	1	1	2,420070485311477E+004	2,6924438E+000	2,6919043E+000	3,319406206787356E-002	1,000000000000000E+000	-2,3572119E-002	41	8,9355235E-005
2	1	0	1	1	2,423402465271141E+004	2,6724520E+000	2,6719213E+000	2,600109268049111E-002	1,000000000000000E+000	-2,2599859E-002	41	6,9472873E-005
2	1	0	1	1	2,426734445230803E+004	2,6524601E+000	2,6519270E+000	2,121178160210546E-002	1,000000000000000E+000	-2,1820502E-002	41	5,6252095E-005
2	1	0	1	1	2,430066425190456E+004	2,6324682E+000	2,6319594E+000	1,759325397575856E-002	1,000000000000000E+000	-2,1179434E-002	41	4,6304729E-005
2	1	0	1	1	2,433398385150114E+004	2,6124768E+000	2,6119299E+000	1,473799082280154E-002	1,000000000000000E+000	-2,0644961E-002	41	3,8494600E-005
2	1	0	1	1	2,436730365109781E+004	2,5924850E+000	2,5919468E+000	1,247363867978080E-002	1,000000000000000E+000	-2,0195562E-002	41	3,2331009E-005
2	1	0	1	1	2,440062345069431E+004	2,5724931E+000	2,5719509E+000	1,056963597986732E-002	1,000000000000000E+000	-1,9815514E-002	41	2,7184586E-005
2	1	0	1	1	2,443394325029092E+004	2,5525010E+000	2,5519834E+000	9,006716235761721E-003	1,000000000000000E+000	-1,9492993E-002	41	2,2984990E-005
2	1	0	1	1	2,446726274988754E+004	2,5325091E+000	2,5319765E+000	7,634181821764882E-003	1,000000000000000E+000	-1,9219419E-002	41	1,9329569E-005
2	1	0	1	1	2,449791704951646E+004	2,5141165E+000	2,5135832E+000	6,521897875626707E-003	2,000000000000000E+000	-1,9005224E-002	41	1,6393333E-005
2	1	0	1	1	2,453123684911296E+004	2,4941247E+000	2,4935663E+000	5,467131059090496E-003	2,000000000000000E+000	-1,8808443E-002	41	1,3632653E-005
2	1	0	1	1	2,456455664870955E+004	2,4741328E+000	2,4735911E+000	4,505815352027459E-003	2,000000000000000E+000	-1,8645301E-002	42	1,1145545E-005
2	1	0	1	1	2,459787624830613E+004	2,4541414E+000	2,4535744E+000	3,614697796971943E-003	2,000000000000000E+000	-1,8512743E-002	42	8,8689303E-006
2	1	0	1	1	2,463119604790275E+004	2,4341493E+000	2,4336243E+000	2,789799985620935E-003	2,000000000000000E+000	-1,8408673E-002	42	6,7893247E-006
2	1	0	1	1	2,466451584749932E+004	2,4141576E+000	2,4135916E+000	2,011301400885408E-003	2,000000000000000E+000	-1,8331693E-002	42	4,8544603E-006
2	1	0	1	1	2,469783564709593E+004	2,3941658E+000	2,3936527E+000	1,250956698064619E-003	2,000000000000000E+000	-1,8280406E-002	42	2,9943558E-006
2	1	0	1	1	2,473115514669253E+004	2,3741736E+000	2,3735874E+000	4,331864947269698E-004	2,000000000000000E+000	-1,8254472E-002	43	1,0282060E-006
2	0	0	1	1	2,476447494628912E+004	2,3541818E+000	2,3536708E+000	-2,806725665228474E-004	2,000000000000000E+000	-1,8253215E-002	43	-6,6061085E-007
2	0	0	1	1	2,479779474588569E+004	2,3341899E+000	2,3336718E+000	-1,030602821413670E-003	2,000000000000000E+000	-1,8277053E-002	42	-2,4050887E-006
2	0	0	1	1	2,483111454548239E+004	2,3141980E+000	2,3137150E+000	-1,768756961650030E-003	2,000000000000000E+000	-1,8326215E-002	42	-4,0923996E-006
2	0	0	1	1	2,486443434507889E+004	2,2942061E+000	2,2936985E+000	-2,574508140825216E-003	2,000000000000000E+000	-1,8401174E-002	42	-5,9051454E-006
2	0	0	1	1	2,489775404467547E+004	2,2742145E+000	2,2737191E+000	-3,389397334965238E-003	2,000000000000000E+000	-1,8503174E-002	42	-7,7065370E-006
2	0	0	1	1	2,493107384427206E+004	2,2542226E+000	2,2537367E+000	-4,271698130324665E-003	2,000000000000000E+000	-1,8633021E-002	42	-9,6272834E-006
2	0	0	1	1	2,496439344386861E+004	2,2342310E+000	2,2338145E+000	-5,145266047924521E-003	2,000000000000000E+000	-1,8792385E-002	42	-1,1493570E-005
2	0	0	1	1	2,499771324346526E+004	2,2142394E+000	2,2137728E+000	-6,132673691664980E-003	2,000000000000000E+000	-1,8983189E-002	42	-1,3576346E-005
2	0	0	1	1	2,503103304306183E+004	2,1942472E+000	2,1938088E+000	-7,154903889392571E-003	2,000000000000000E+000	-1,9206978E-002	42	-1,5696491E-005
2	0	0	1	1	2,506435264265846E+004	2,1742554E+000	2,1738122E+000	-8,253254159739779E-003	2,000000000000000E+000	-1,9466264E-002	42	-1,7941024E-005
2	0	0	1	1	2,509767244225502E+004	2,1542635E+000	2,1538744E+000	-9,401171472618120E-003	2,000000000000000E+000	-1,9763300E-002	42	-2,0248943E-005
2	0	0	1	1	2,513099224185162E+004	2,1342716E+000	2,1337829E+000	-1,070018739351558E-002	2,000000000000000E+000	-2,0101663E-002	41	-2,2831877E-005
2	0	0	1	1	2,516431204144820E+004	2,1142797E+000	2,1137829E+000	-1,204714362938059E-002	2,000000000000000E+000	-2,0483287E-002	41	-2,5465046E-005
2	0	0	1	1	2,519763184104487E+004	2,0942879E+000	2,0937791E+000	-1,351855910589728E-002	2,000000000000000E+000	-2,0911515E-002	41	-2,8304876E-005
2	0	0	1	1	2,523095164064140E+004	2,0742960E+000	2,0737963E+000	-1,509830856164826E-002	2,000000000000000E+000	-2,1390781E-002	41	-3,1310818E-005
2	0	0	1	1	2,526427144023796E+004	2,0543041E+000	2,0538111E+000	-1,681941738272417E-002	2,000000000000000E+000	-2,1925090E-002	41	-3,4543904E-005
2	0	0	1	1	2,529759103983454E+004	2,0343125E+000	2,0338159E+000	-1,869376563310876E-002	2,000000000000000E+000	-2,2519089E-002	41	-3,8019676E-005
2	0	0	1	1	2,533091083943116E+004	2,0143206E+000	2,0138369E+000	-2,070754813126324E-002	2,000000000000000E+000	-2,3177870E-002	41	-4,1701624E-005
2	0	0	1	1	2,536423073902776E+004	1,9943286E+000	1,9938670E+000	-2,291437313818440E-002	2,000000000000000E+000	-2,3907304E-002	41	-4,5688212E-005
2	0	0	1	1	2,539755043862434E+004	1,9743369E+000	1,9738289E+000	-2,534138870140629E-002	2,000000000000000E+000	-2,4713807E-002	41	-5,0019567E-005
2	0	0	1	1	2,543087003822101E+004	1,9543453E+000	1,9538677E+000	-2,796071593962975E-002	2,000000000000000E+000	-2,5604310E-002	41	-5,4631539E-005
2	0	0	0	1	2,546418983781751E+004	1,9343535E+000	1,9338452E+000	-3,086976874386922E-002	2,000000000000000E+000	-2,6586970E-002	41	-5,9697351E-005
2	0	0	1	1	2,549750963741411E+004	1,9143616E+000	1,9138795E+000	-3,406337288475363E-002	2,000000000000000E+000	-2,7670613E-002	41	-6,5193191E-005
2	0	0	1	1	2,553082943701069E+004	1,8943697E+000	1,8938755E+000	-3,757320640221390E-002	2,000000000000000E+000	-2,8865829E-002	41	-7,1158975E-005
2	0	0	1	1	2,556414913660730E+004	1,8743775E+000	1,8739232E+000	-4,143217926569850E-002	2,000000000000000E+000	-3,0184222E-002	41	-7,7640718E-005
2	0	0	1	1	2,559746873620390E+004	1,8543859E+000	1,8539047E+000	-4,576809088059886E-002	2,000000000000000E+000	-3,1639326E-002	41	-8,4849678E-005
2	0	0	1	1	2,563078853580047E+004	1,8343941E+000	1,8339461E+000	-5,048490103743175E-002	2,000000000000000E+000	-3,3244982E-002	41	-9,2586590E-005
2	0	0	1	1	2,566410833539709E+004	1,8144021E+000	1,8139294E+000	-5,578073880082556E-002	2,000000000000000E+000	-3,5016816E-002	41	-1,0118233E-004
2	0	0	1	1	2,569742803499367E+004	1,7944101E+000	1,7939800E+000	-6,150690561375338E-002	2,000000000000000E+000	-3,6972813E-002	41	-1,1034216E-004
2	0	0	1	1	2,573074783459025E+004	1,7744185E+000	1,7739549E+000	-6,793103320542168E-002	2,000000000000000E+000	-3,9132059E-002	41	-1,2050659E-004
2	0	0	1	1	2,576406753418688E+004	1,7544266E+000	1,7539825E+000	-7,493848165270456E-002	2,000000000000000E+000	-4,1514415E-002	41	-1,3144079E-004
2	0	0	1	1	2,579738733378344E+004	1,7344346E+000	1,7339816E+000	-8,259148842930814E-002	2,000000000000000E+000	-4,4141043E-002	41	-1,4321212E-004
2	0	0	1	1	2,583070713338002E+004	1,7144428E+000	1,7139978E+000	-9,090852090040502E-002	2,000000000000000E+000	-4,7033086E-002	41	-1,5581700E-004
2	0	0	0	1	2,586402683297661E+004	1,6944512E+000	1,6940353E+000	-9,983505603877307E-002	2,000000000000000E+000	-5,0212201E-002	41	-1,6912411E-004
2	0	0	1	1	2,589734673257329E+004	1,6744592E+000	1,6739309E+000	-1,094948130342455E-001	2,000000000000000E+000	-5,3702809E-002	40	-1,8328674E-004
2	0	0	0	1	2,593066643216982E+004	1,6544675E+000	1,6539453E+000	-1,196312041435661E-001	2,000000000000000E+000	-5,7521064E-002	40	-1,9786347E-004
2	0	0	1	1	2,596398613176639E+004	1,6344755E+000	1,6339426E+000	-1,304506323937797E-001	2,000000000000000E+000	-6,1688833E-002	40	-2,1314884E-004
2	0	0	1	1	2,599730593136302E+004	1,6144837E+000	1,6139585E+000	-1,421389124916164E-001	2,000000000000000E+000	-6,6230014E-002	40	-2,2940630E-004
2	0	0	1	1	2,603062573095958E+004	1,5944916E+000	1,5939549E+000	-1,548223791654764E-001	2,000000000000000E+000	-7,1177952E-002	40	-2,4677991E-004
2	0	0	1	1	2,606394543055617E+004	1,5744998E+000	1,5739671E+000	-1,690225299212428E-001	2,000000000000000E+000	-7,6573364E-002	40	-2,6603590E-004
2	0	0	1	1	2,609726513015275E+004	1,5545081E+000	1,5539445E+000	-1,850358528079094E-001	2,000000000000000E+000	-8,2469925E-002	40	-2,8753543E-004
2	0	0	1	1	2,613058482974942E+004	1,5345165E+000	1,5339772E+000	-2,032126782580438E-001	2,000000000000000E+000	-8,8936277E-002	40	-3,1172362E-004
2	0	0	0	1	2,616390462934595E+004	1,5145245E+000	1,5139924E+000	-2,242437655845091E-001	2,000000000000000E+000	-9,6053973E-002	40	-3,3950337E-004
2	0	0	1	1	2,619722442894253E+004	1,4945327E+000	1,4940023E+000	-2,485301263716746E-001	2,000000000000000E+000	-1,0392463E-001	40	-3,7130460E-004
2	0	0	1	1	2,623054412853922E+004	1,4745408E+000	1,4739935E+000	-2,770335645759150E-001	2,000000000000000E+000	-1,1267266E-001	40	-4,0834569E-004
2	0	0	1	1	2,626386392813572E+004	1,4545490E+000	1,4540337E+000	-3,093216925427651E-001	2,000000000000000E+000	-1,2243790E-001	40	-4,4976416E-004
2	0	0	1	1	2,629718352773230E+004	1,4345572E+000	1,4340372E+000	-3,443210709537644E-001	2,000000000000000E+000	-1,3332999E-001	40	-4,9376924E-004
2	0	0	1	1	2,633050332732889E+004	1,4145653E+000	1,4140606E+000	-3,792725970639044E-001	2,000000000000000E+000	-1,4539357E-001	40	-5,3631444E-004
2	0	0	1	1	2,636382312692550E+004	1,3945733E+000	1,3940595E+000	-4,123618411077778E-001	2,000000000000000E+000	-1,5859447E-001	40	-5,7485694E-004
2	0	0	1	1	2,639714282652209E+004	1,3745815E+000	1,3740885E+000	-4,422361888416959E-001	2,000000000000000E+000	-1,7284696E-001	40	-6,0767168E-004
2	0	0	1	1	2,643046252611867E+004	1,3545897E+000	1,3540860E+000	-4,677887845182557E-001	2,000000000000000E+000	-1,8802741E-001	40	-6,3342624E-004
2	0	0	1	1	2,646378232571529E+004	1,3345979E+000	1,3341188E+000	-4,880412764133961E-001	2,000000000000000E+000	-2,0397191E-001	40	-6,5110507E-004
2	0	0	1	1	2,649710212531185E+004	1,3146061E+000	1,3140941E+000	-5,024514095780450E-001	2,000000000000000E+000	-2,2049572E-001	40	-6,6026842E-004
2	0	0	1	1	2,653042182490845E+004	1,2946142E+000	1,2941371E+000	-5,110107741991676E-001	2,000000000000000E+000	-2,3740186E-001	40	-6,6131802E-004
2	0	0	0	1	2,656374162450503E+004	1,2746223E+000	1,2741352E+000	-5,141151560293566E-001	2,000000000000000E+000	-2,5450063E-001	40	-6,5505225E-004
2	0	0	1	1	2,659706132410164E+004	1,2546306E+000	1,2541641E+000	-5,122569233697858E-001	2,000000000000000E+000	-2,7161720E-001	40	-6,4245425E-004
2	0	0	1	1	2,663038112369823E+004	1,2346386E+000	1,2341604E+000	-5,064754327022953E-001	2,000000000000000E+000	-2,8860298E-001	40	-6,2507193E-004
2	0	0	1	1	2,666370092329482E+004	1,2146468E+000	1,2141762E+000	-4,976463018911758E-001	2,000000000000000E+000	-3,0534387E-001	40	-6,0423027E-004
2	0	0	1	1	2,669702062289143E+004	1,1946549E+000	1,1941811E+000	-4,863916826530357E-001	2,000000000000000E+000	-3,2174635E-001	40	-5,8083975E-004
2	0	0	1	1	2,673034032248799E+004	1,1746632E+000	1,1742036E+000	-4,734973801066058E-001	2,000000000000000E+000	-3,3774602E-001	40	-5,5598235E-004
2	0	0	1	1	2,676366012208459E+004	1,1546712E+000	1,1541774E+000	-4,593831815752161E-001	2,000000000000000E+000	-3,5329473E-001	40	-5,3020968E-004
2	0	0	0	1	2,679697982168116E+004	1,1346796E+000	1,1342021E+000	-4,446740941619165E-001	2,000000000000000E+000	-3,6836210E-001	40	-5,0435029E-004
2	0	0	1	1	2,683029962127784E+004	1,1146877E+000	1,1141797E+000	-4,299147091158191E-001	2,000000000000000E+000	-3,8293669E-001	40	-4,7900225E-004
2	0	0	1	1	2,686361932087438E+004	1,0946958E+000	1,0942048E+000	-4,151378488864639E-001	2,000000000000000E+000	-3,9701712E-001	40	-4,5424583E-004
2	0	0	1	1	2,689693902047095E+004	1,0747039E+000	1,0741868E+000	-4,008897083109835E-001	2,000000000000000E+000	-4,1061252E-001	40	-4,3063043E-004
2	0	0	1	1	2,693025882006757E+004	1,0547121E+000	1,0542130E+000	-3,874038634536001E-001	2,000000000000000E+000	-4,2374706E-001	40	-4,0840619E-004
2	0	0	0	1	2,696357861966413E+004	1,0347203E+000	1,0342004E+000	-3,750613235567393E-001	2,000000000000000E+000	-4,3645102E-001	40	-3,8788858E-004
2	0	0	1	1	2,699689821926072E+004	1,0147284E+000	1,0142040E+000	-3,640723804629136E-001	2,000000000000000E+000	-4,4876418E-001	40	-3,6924367E-004
2	0	0	1	1	2,702738671889160E+004	1,0035330E+000	1,0030130E+000	-3,384427997989234E-001	2,000000000000000E+000	-4,5967308E-001	40	-3,3946254E-004
2	0	0	0	1	2,706070641848823E+004	1,0235249E+000	1,0229814E+000	-2,757118014042390E-001	2,000000000000000E+000	-4,6981594E-001	40	-2,8204804E-004
2	0	0	1	1	2,709402621808485E+004	1,0435168E+000	1,0429573E+000	-2,318340145315227E-001	2,000000000000000E+000	-4,7823092E-001	40	-2,4179298E-004
2	0	0	1	1	2,712734591768138E+004	1,0635085E+000	1,0629491E+000	-1,977441514788527E-001	2,000000000000000E+000	-4,8536044E-001	40	-2,1019197E-004
2	0	0	1	1	2,716066571727797E+004	1,0835004E+000	1,0829564E+000	-1,701738918360665E-001	2,000000000000000E+000	-4,9146965E-001	40	-1,8429091E-004
2	0	0	1	1	2,719398551687459E+004	1,1034923E+000	1,1029304E+000	-1,473950464211665E-001	2,000000000000000E+000	-4,9674550E-001	40	-1,6256649E-004
2	0	0	1	1	2,722730521647114E+004	1,1234840E+000	1,1229326E+000	-1,281998498955383E-001	2,000000000000000E+000	-5,0132388E-001	40	-1,4395978E-004
2	0	0	1	1	2,726062491606773E+004	1,1434759E+000	1,1429037E+000	-1,118229383520157E-001	2,000000000000000E+000	-5,0531197E-001	40	-1,2780285E-004
2	0	0	1	1	2,729394471566431E+004	1,1634679E+000	1,1628795E+000	-9,759731979076758E-002	2,000000000000000E+000	-5,0879121E-001	40	-1,1349392E-004
2	0	0	1	1	2,732726441526093E+004	1,1834598E+000	1,1828907E+000	-8,508791461208287E-002	2,000000000000000E+000	-5,1182622E-001	40	-1,0064970E-004
2	0	0	1	1	2,736058411485751E+004	1,2034514E+000	1,2028770E+000	-7,407051835256029E-002	2,000000000000000E+000	-5,1447058E-001	40	-8,9097724E-005
2	0	0	1	1	2,739390411445410E+004	1,2234433E+000	1,2228855E+000	-6,415861307913873E-002	2,000000000000000E+000	-5,1676720E-001	40	-7,8458637E-005
2	0	0	1	1	2,742722381405078E+004	1,2434353E+000	1,2428447E+000	-5,519971389448308E-002	2,000000000000000E+000	-5,1875025E-001	40	-6,8604670E-005
2	0	0	1	1	2,746054361364729E+004	1,2634270E+000	1,2629031E+000	-4,694542841329952E-002	2,000000000000000E+000	-5,2044743E-001	41	-5,9287526E-005
2	0	0	1	1	2,749386341324389E+004	1,2834190E+000	1,2829016E+000	-3,939030203487215E-002	2,000000000000000E+000	-5,2188146E-001	41	-5,0533883E-005
2	0	0	1	1	2,752718301284045E+004	1,3034105E+000	1,3028684E+000	-3,238312609015864E-002	2,000000000000000E+000	-5,2307206E-001	41	-4,2190950E-005
2	0	0	1	1	2,756050281243701E+004	1,3234024E+000	1,3228412E+000	-2,574074983923377E-002	2,000000000000000E+000	-5,2403545E-001	41	-3,4050925E-005
2	0	0	1	1	2,759382271203367E+004	1,3433943E+000	1,3428435E+000	-1,939511625724746E-002	2,000000000000000E+000	-5,2478284E-001	41	-2,6044607E-005
2	0	0	1	1	2,762714251163023E+004	1,3633860E+000	1,3628563E+000	-1,326139409341326E-002	2,000000000000000E+000	-5,2532250E-001	41	-1,8073373E-005
2	0	0	1	1	2,766046231122682E+004	1,3833780E+000	1,3828077E+000	-7,252576622457985E-003	2,000000000000000E+000	-5,2566063E-001	41	-1,0028919E-005
2	0	0	0	1	2,769378201082349E+004	1,4033698E+000	1,4028083E+000	-1,202630609213277E-003	2,000000000000000E+000	-5,2579707E-001	42	-1,6870603E-006
2	1	0	1	1	2,772710171042003E+004	1,4233617E+000	1,4227476E+000	4,954647878906343E-003	2,000000000000000E+000	-5,2573216E-001	42	7,0492133E-006
2	1	0	1	1	2,776042151001660E+004	1,4433534E+000	1,4428219E+000	1,145722378531239E-002	2,000000000000000E+000	-5,2545696E-001	41	1,6530734E-005
2	1	0	1	1	2,779374150961329E+004	1,4633454E+000	1,4627782E+000	1,828307840500623E-002	2,000000000000000E+000	-5,2495980E-001	41	2,6744088E-005
2	1	0	0	1	2,782706120920973E+004	1,4833372E+000	1,4827732E+000	2,556069256493143E-002	2,000000000000000E+000	-5,2422732E-001	41	3,7900711E-005
2	1	0	1	1	2,786038100880638E+004	1,5033289E+000	1,5027331E+000	3,340751774658990E-002	2,000000000000000E+000	-5,2324277E-001	41	5,0202583E-005
2	1	0	1	1	2,789370070840296E+004	1,5233209E+000	1,5227416E+000	4,189397093980279E-002	2,000000000000000E+000	-5,2198654E-001	41	6,3793690E-005
2	1	0	1	1	2,792702050799964E+004	1,5433128E+000	1,5427148E+000	5,127491341143176E-002	2,000000000000000E+000	-5,2043450E-001	41	7,9102567E-005
2	1	0	1	1	2,796034030759614E+004	1,5633047E+000	1,5626686E+000	6,208496719692080E-002	2,000000000000000E+000	-5,1854819E-001	41	9,7018230E-005
2	1	0	1	1	2,799366010719274E+004	1,5832964E+000	1,5826544E+000	7,503126624550716E-002	2,000000000000000E+000	-5,1626629E-001	41	1,1874856E-004
2	1	0	1	1	2,802697990678932E+004	1,6032883E+000	1,6026299E+000	9,145104310437413E-002	2,000000000000000E+000	-5,1350498E-001	41	1,4656218E-004
2	1	0	1	1	2,806029960638599E+004	1,6232802E+000	1,6227083E+000	1,170703960961641E-001	2,000000000000000E+000	-5,1005977E-001	40	1,8997111E-004
2	1	0	0	1	2,809361940598252E+004	1,6432722E+000	1,6426938E+000	1,528966024121088E-001	2,000000000000000E+000	-5,0557786E-001	40	2,5116230E-004
2	1	0	1	1	2,812693920557911E+004	1,6632639E+000	1,6626822E+000	1,934783187727946E-001	2,000000000000000E+000	-4,9981010E-001	40	3,2169296E-004
2	1	0	0	1	2,816025900517567E+004	1,6832558E+000	1,6826856E+000	2,361039114375281E-001	2,000000000000000E+000	-4,9265239E-001	40	3,9728865E-004
2	1	0	1	1	2,819357890477229E+004	1,7032474E+000	1,7026832E+000	2,796621680796108E-001	2,000000000000000E+000	-4,8405632E-001	40	4,7617606E-004
2	1	0	1	1	2,822689860436888E+004	1,7232392E+000	1,7226405E+000	3,235823147684300E-001	2,000000000000000E+000	-4,7400165E-001	40	5,5741600E-004
2	1	0	1	1	2,826021830396546E+004	1,7432311E+000	1,7426010E+000	3,672243224515181E-001	2,000000000000000E+000	-4,6248579E-001	40	6,3992548E-004
2	1	0	1	1	2,829353810356208E+004	1,7632229E+000	1,7625980E+000	4,097359646400758E-001	2,000000000000000E+000	-4,4953200E-001	40	7,2219979E-004
2	1	0	1	1	2,832685790315864E+004	1,7832147E+000	1,7825735E+000	4,502566947407631E-001	2,000000000000000E+000	-4,3519136E-001	40	8,0261566E-004
2	1	0	0	1	2,836017760275524E+004	1,8032068E+000	1,8025886E+000	4,879439024644014E-001	2,000000000000000E+000	-4,1954520E-001	40	8,7956211E-004
2	1	0	0	1	2,839349760235182E+004	1,8231986E+000	1,8225735E+000	5,214087882258660E-001	2,000000000000000E+000	-4,0270996E-001	40	9,5030584E-004
2	1	0	1	1	2,842681730194844E+004	1,8431902E+000	1,8425643E+000	5,500458483962323E-001	2,000000000000000E+000	-3,8483885E-001	40	1,0134949E-003
2	1	0	1	1	2,846013710154503E+004	1,8631821E+000	1,8625287E+000	5,724165435486387E-001	2,000000000000000E+000	-3,6611488E-001	40	1,0661422E-003
2	1	0	1	1	2,849345690114160E+004	1,8831742E+000	1,8825336E+000	5,877705851459054E-001	2,000000000000000E+000	-3,4676218E-001	40	1,1064978E-003
2	1	0	1	1	2,852677660073829E+004	1,9031659E+000	1,9025372E+000	5,961230295115030E-001	2,000000000000000E+000	-3,2701162E-001	40	1,1341462E-003
2	1	0	1	1	2,856009630033479E+004	1,9231577E+000	1,9225384E+000	5,966827344723158E-001	2,000000000000000E+000	-3,0711275E-001	40	1,1471455E-003
2	1	0	1	1	2,859341629993138E+004	1,9431496E+000	1,9425164E+000	5,898411122891662E-001	2,000000000000000E+000	-2,8732347E-001	40	1,1457760E-003
2	1	0	1	1	2,862673609952796E+004	1,9631416E+000	1,9625105E+000	5,752902656792493E-001	2,000000000000000E+000	-2,6788810E-001	40	1,1290131E-003
2	1	0	1	1	2,866005569912464E+004	1,9831333E+000	1,9824899E+000	5,536699821937767E-001	2,000000000000000E+000	-2,4905914E-001	40	1,0976451E-003
2	1	0	1	1	2,869337569872115E+004	2,0031250E+000	2,0025153E+000	5,254974313912211E-001	2,000000000000000E+000	-2,3105824E-001	40	1,0523166E-003
2	1	0	1	1	2,872669529831774E+004	2,0231168E+000	2,0224838E+000	4,925038828483926E-001	2,000000000000000E+000	-2,1408090E-001	40	9,9608116E-004
2	1	0	1	1	2,876001509791432E+004	2,0431087E+000	2,0425062E+000	4,558025779945458E-001	2,000000000000000E+000	-1,9827273E-001	40	9,3097962E-004
2	1	0	1	1	2,879333509751089E+004	2,0631003E+000	2,0624979E+000	4,173319975541618E-001	2,000000000000000E+000	-1,8372178E-001	40	8,6074637E-004
2	1	0	1	1	2,882665469710753E+004	2,0830922E+000	2,0825257E+000	3,790468119950052E-001	2,000000000000000E+000	-1,7045513E-001	40	7,8937475E-004
2	1	0	1	1	2,885997439670410E+004	2,1030841E+000	2,1024816E+000	3,426179128149611E-001	2,000000000000000E+000	-1,5843844E-001	40	7,2034786E-004
2	1	0	1	1	2,889329419630073E+004	2,1230762E+000	2,1224930E+000	3,091914884317877E-001	2,000000000000000E+000	-1,4758621E-001	40	6,5625680E-004
2	1	0	1	1	2,892661399589735E+004	2,1430678E+000	2,1425025E+000	2,795057650402448E-001	2,000000000000000E+000	-1,3778815E-001	40	5,9884181E-004
2	1	0	1	1	2,895993379549388E+004	2,1630599E+000	2,1624889E+000	2,534834140384340E-001	2,000000000000000E+000	-1,2891562E-001	40	5,4815511E-004
2	1	0	1	1	2,899325399509046E+004	2,1830516E+000	2,1825011E+000	2,311900758084433E-001	2,000000000000000E+000	-1,2084880E-001	40	5,0457258E-004
2	1	0	1	1	2,902657379468705E+004	2,2030435E+000	2,2024868E+000	2,120748937150039E-001	2,000000000000000E+000	-1,1347017E-001	40	4,6709215E-004
2	1	0	1	1	2,905989339428360E+004	2,2230356E+000	2,2225039E+000	1,956407508810809E-001	2,000000000000000E+000	-1,0668304E-001	40	4,3481233E-004
2	1	0	1	1	2,909321319388025E+004	2,2430274E+000	2,2424579E+000	1,809119448718505E-001	2,000000000000000E+000	-1,0041216E-001	40	4,0568740E-004
2	1	0	1	1	2,912653299347682E+004	2,2630193E+000	2,2624631E+000	1,675226736961384E-001	2,000000000000000E+000	-9,4607800E-002	40	3,7901386E-004
2	1	0	1	1	2,915985259307345E+004	2,2830110E+000	2,2824893E+000	1,551456012900269E-001	2,000000000000000E+000	-8,9232102E-002	40	3,5411818E-004
2	1	0	1	1	2,919317279267008E+004	2,3030026E+000	2,3024685E+000	1,430936863572705E-001	2,000000000000000E+000	-8,4262028E-002	40	3,2946872E-004
2	1	0	1	1	2,922649259226662E+004	2,3229947E+000	2,3224723E+000	1,314662806683691E-001	2,000000000000000E+000	-7,9686292E-002	40	3,0532680E-004
2	1	0	1	1	2,925981239186319E+004	2,3429863E+000	2,3424795E+000	1,203545124930173E-001	2,000000000000000E+000	-7,5489953E-002	40	2,8192796E-004
2	1	0	1	1	2,929313219145976E+004	2,3629782E+000	2,3624523E+000	1,096623029961477E-001	2,000000000000000E+000	-7,1658097E-002	40	2,5907197E-004
2	1	0	1	1	2,932645199105632E+004	2,3829701E+000	2,3824654E+000	9,978456453245910E-002	2,000000000000000E+000	-6,8168670E-002	40	2,3773327E-004
2	1	0	1	1	2,935977169065297E+004	2,4029620E+000	2,4024343E+000	9,089364558458701E-002	2,000000000000000E+000	-6,4992450E-002	40	2,1836601E-004
2	1	0	1	1	2,939309169024954E+004	2,4229536E+000	2,4224494E+000	8,314078534937219E-002	2,000000000000000E+000	-6,2093783E-002	40	2,0140434E-004
2	1	0	1	1	2,942641148984613E+004	2,4429457E+000	2,4424427E+000	7,641583559678777E-002	2,000000000000000E+000	-5,9435822E-002	40	1,8664129E-004
2	1	0	1	1	2,945973128944275E+004	2,4629376E+000	2,4624391E+000	7,070714151186264E-002	2,000000000000000E+000	-5,6984372E-002	40	1,7411202E-004
2	1	0	1	1	2,949305108903931E+004	2,4829297E+000	2,4824038E+000	6,579537025267496E-002	2,000000000000000E+000	-5,4710753E-002	40	1,6333067E-004
2	1	0	1	1	2,952637058863591E+004	2,5029211E+000	2,5024297E+000	6,149414323872016E-002	2,000000000000000E+000	-5,2589957E-002	40	1,5388477E-004
2	1	0	1	1	2,955969038823247E+004	2,5229130E+000	2,5224361E+000	5,785299238842800E-002	2,000000000000000E+000	-5,0600640E-002	40	1,4593048E-004
2	1	0	1	1	2,959301058782917E+004	2,5429049E+000	2,5424170E+000	5,474139246214782E-002	2,000000000000000E+000	-4,8723795E-002	40	1,3917545E-004
2	1	0	1	1	2,962633038742570E+004	2,5628967E+000	2,5623734E+000	5,202023101101960E-002	2,000000000000000E+000	-4,6944048E-002	40	1,3329525E-004
2	1	0	1	1	2,965965018702227E+004	2,5828888E+000	2,5823939E+000	4,971133042226739E-002	2,000000000000000E+000	-4,5247491E-002	40	1,2837423E-004
2	1	0	1	1	2,969313648661684E+004	2,6029804E+000	2,6024048E+000	4,783292942115391E-002	2,000000000000000E+000	-4,3613493E-002	41	1,2448065E-004
2	1	0	1	1	2,972645628621354E+004	2,6229720E+000	2,6224377E+000	4,615336498103684E-002	2,000000000000000E+000	-4,2045929E-002	41	1,2103433E-004
2	1	0	1	1	2,975977608581004E+004	2,6429639E+000	2,6424210E+000	4,464615852627959E-002	2,000000000000000E+000	-4,0531214E-002	41	1,1797395E-004
2	1	0	1	1	2,979309598540663E+004	2,6629560E+000	2,6623960E+000	4,325305230053700E-002	2,000000000000000E+000	-3,9064266E-002	41	1,1515675E-004
2	1	0	1	1	2,982641578500321E+004	2,6829481E+000	2,6824138E+000	4,195795738136865E-002	2,000000000000000E+000	-3,7641983E-002	41	1,1254860E-004
2	1	0	1	0	2,985740348462801E+004	2,6984413E+000	2,6979399E+000	3,721214364962011E-002	2,000000000000000E+000	-3,6364201E-002	41	1,0039613E-004
2	1	0	1	0	2,989072328422463E+004	2,6784496E+000	2,6779337E+000	2,769374082524532E-002	2,000000000000000E+000	-3,5315365E-002	41	7,4162002E-005
2	1	0	1	0	2,992404288382122E+004	2,6584578E+000	2,6579618E+000	2,247922299461568E-002	2,000000000000000E+000	-3,4486815E-002	41	5,9748916E-005
2	1	0	1	0	2,995736268341780E+004	2,6384659E+000	2,6379633E+000	1,860524681462455E-002	2,000000000000000E+000	-3,3807702E-002	41	4,9079958E-005
2	1	0	1	0	2,999068248301442E+004	2,6184740E+000	2,6180007E+000	1,559719555337642E-002	2,000000000000000E+000	-3,3242084E-002	41	4,0833471E-005
2	1	0	1	0	3,002400228261101E+004	2,5984824E+000	2,5979748E+000	1,317678232447878E-002	2,000000000000000E+000	-3,2766588E-002	41	3,4232948E-005
2	1	0	1	0	3,005732198220759E+004	2,5784903E+000	2,5779810E+000	1,120888902635516E-002	2,000000000000000E+000	-3,2364015E-002	41	2,8896304E-005
2	1	0	1	0	3,009064178180421E+004	2,5584986E+000	2,5580094E+000	9,537750014525635E-003	2,000000000000000E+000	-3,2021906E-002	41	2,4397654E-005
2	1	0	1	0	3,012396138140076E+004	2,5385070E+000	2,5380330E+000	8,125386253071569E-003	2,000000000000000E+000	-3,1730890E-002	41	2,0622498E-005
2	1	0	1	0	3,014178738118496E+004	2,5277619E+000	2,5272760E+000	7,308309023546126E-003	2,000000000000000E+000	-3,1593658E-002	41	1,8470115E-005