File: Dati/201117/CV_LTO-CB_10 layer_grafite_cu_05_1mVs_05_CV_C03.mpt
EC-Lab ASCII FILE
Nb header lines : 57

Cyclic Voltammetry

Run on channel : 3 (SN 6807)
User :
Electrode connection : standard
Ewe ctrl range : min = 0,00 V, max = 5,00 V
Ewe,I filtering : 50 kHz
Safety Limits :
	Do not start on E overload
Channel : Grounded
Acquisition started on : 11/17/2020 16:29:06
Saved on :
	File : CV_LTO-CB_10 layer_grafite_cu_05_1mVs_05_CV_C03.mpr
	Directory : C:\Users\labsuperfici\Desktop\Biologic\Users\Prisca Viviani\201117\
	Host : 10.78.33.0
Device : VSP-300 (SN 0638)
Address : USB
EC-Lab for windows v11.31 (software)
Internet server v11.30 (firmware)
Command interpretor v11.31 (firmware)
Electrode material :
Initial state :
Electrolyte :
Comments :
Cable : standard
Reference electrode : SCE Saturated Calomel Electrode (0,241 V)
Electrode surface area : 0,001 cm²
Characteristic mass : 0,001 g
Equivalent Weight : 0,000 g/eq.
Density : 0,000 g/cm3
Cycle Definition : Charge/Discharge alternance
Ei (V)              0,000
vs.                 Eoc
dE/dt               0,800
dE/dt unit          mV/s
E1 (V)              1,000
vs.                 Ref
Step percent        50
N                   10
E range min (V)     0,000
E range max (V)     5,000
I Range             Auto
I Range min         Unset
I Range max         Unset
I Range init        Unset
Bandwidth           8
E2 (V)              2,700
vs.                 Ref
nc cycles           1
Reverse Scan        1
Ef (V)              0,000
vs.                 Eoc

mode	ox/red	error	control changes	counter inc.	time/s	control/V	Ewe/V	<I>/mA	cycle number	(Q-Qo)/C	I Range	P/W
2	1	0	1	0	3,985650916259235E+004	2,5277619E+000	2,5271194E+000	9,693278931081295E-003	1,000000000000000E+000	0,0000000E+000	42	2,4496074E-005
2	1	0	1	0	3,988093656263786E+004	2,5082192E+000	2,5076447E+000	7,124405976902226E-003	1,000000000000000E+000	1,9043009E-004	42	1,7865479E-005
2	1	0	1	0	3,990592636268446E+004	2,4882274E+000	2,4876664E+000	5,926177556448073E-003	1,000000000000000E+000	3,5141435E-004	42	1,4742353E-005
2	1	0	1	0	3,993091626273096E+004	2,4682355E+000	2,4676986E+000	4,823589296321082E-003	1,000000000000000E+000	4,8371911E-004	42	1,1903165E-005
2	1	0	1	0	3,995590616277749E+004	2,4482436E+000	2,4476991E+000	3,846093170845694E-003	1,000000000000000E+000	5,8974785E-004	42	9,4140787E-006
2	1	0	1	0	3,998089596282411E+004	2,4282515E+000	2,4277277E+000	2,863659487210977E-003	1,000000000000000E+000	6,7137217E-004	42	6,9521852E-006
2	1	0	1	0	4,000588576287060E+004	2,4082599E+000	2,4077289E+000	1,942728003958071E-003	1,000000000000000E+000	7,2974921E-004	42	4,6775622E-006
2	1	0	1	0	4,003087556291721E+004	2,3882680E+000	2,3877842E+000	1,059719350892998E-003	1,000000000000000E+000	7,6545286E-004	42	2,5303812E-006
2	1	0	1	0	4,005599026296404E+004	2,3681760E+000	2,3676651E+000	1,472563198587631E-004	1,000000000000000E+000	7,7896396E-004	43	3,4865363E-007
2	0	0	1	0	4,008097996301047E+004	2,3481843E+000	2,3477817E+000	-6,978940853430977E-004	1,000000000000000E+000	7,7068742E-004	43	-1,6385029E-006
2	0	0	1	0	4,010596966305707E+004	2,3281927E+000	2,3277106E+000	-1,615014379336541E-003	1,000000000000000E+000	7,3929376E-004	42	-3,7592861E-006
2	0	0	1	0	4,013095956310362E+004	2,3082006E+000	2,3077390E+000	-2,563774551890600E-003	1,000000000000000E+000	6,8540068E-004	42	-5,9165227E-006
2	0	0	1	0	4,015594936315008E+004	2,2882090E+000	2,2877491E+000	-3,534448271433455E-003	1,000000000000000E+000	6,0765323E-004	42	-8,0859309E-006
2	0	0	1	0	4,018093916319672E+004	2,2682171E+000	2,2677484E+000	-4,523859972708169E-003	1,000000000000000E+000	5,0522981E-004	42	-1,0258976E-005
2	0	0	1	0	4,020592896324320E+004	2,2482252E+000	2,2477565E+000	-5,597831784044972E-003	1,000000000000000E+000	3,7687272E-004	42	-1,2582563E-005
2	0	0	1	0	4,023091876328981E+004	2,2282333E+000	2,2277935E+000	-6,736413925763816E-003	1,000000000000000E+000	2,2117124E-004	42	-1,5007339E-005
2	0	0	1	0	4,025590846333641E+004	2,2082417E+000	2,2078273E+000	-7,924620823711453E-003	1,000000000000000E+000	3,6476536E-005	42	-1,7496195E-005
2	0	0	1	0	4,028089816338284E+004	2,1882496E+000	2,1878591E+000	-9,226287095188662E-003	1,000000000000000E+000	-1,7941922E-004	42	-2,0185817E-005
2	0	0	1	0	4,030588806342939E+004	2,1682577E+000	2,1677549E+000	-1,059138657153288E-002	1,000000000000000E+000	-4,2927224E-004	41	-2,2959530E-005
2	0	0	1	0	4,033087796347594E+004	2,1482658E+000	2,1477568E+000	-1,205906663357725E-002	1,000000000000000E+000	-7,1438961E-004	41	-2,5899943E-005
2	0	0	1	0	4,035586756352257E+004	2,1282742E+000	2,1277721E+000	-1,362438792232760E-002	1,000000000000000E+000	-1,0371341E-003	41	-2,8989592E-005
2	0	0	1	0	4,038085746356915E+004	2,1082819E+000	2,1078119E+000	-1,532866921355154E-002	1,000000000000000E+000	-1,4005473E-003	41	-3,2309952E-005
2	0	0	1	0	4,040584726361558E+004	2,0882902E+000	2,0877886E+000	-1,715331785909469E-002	1,000000000000000E+000	-1,8080606E-003	41	-3,5812500E-005
2	0	0	1	0	4,043083716366219E+004	2,0682986E+000	2,0677888E+000	-1,912065055959772E-002	1,000000000000000E+000	-2,2628976E-003	41	-3,9537466E-005
2	0	0	1	0	4,045582666370866E+004	2,0483069E+000	2,0478232E+000	-2,125969296373326E-002	1,000000000000000E+000	-2,7690660E-003	41	-4,3536093E-005
2	0	0	1	0	4,048081646375531E+004	2,0283148E+000	2,0278466E+000	-2,356540586403670E-002	1,000000000000000E+000	-3,3307560E-003	41	-4,7787027E-005
2	0	0	1	0	4,050580636380194E+004	2,0083230E+000	2,0078537E+000	-2,605403854821581E-002	1,000000000000000E+000	-3,9524981E-003	41	-5,2312698E-005
2	0	0	1	0	4,053079626384832E+004	1,9883313E+000	1,9878416E+000	-2,879019985365747E-002	1,000000000000000E+000	-4,6396721E-003	41	-5,7230358E-005
2	0	0	1	0	4,055578606389492E+004	1,9683394E+000	1,9678266E+000	-3,176675675718660E-002	1,000000000000000E+000	-5,3980672E-003	41	-6,2511470E-005
2	0	0	1	0	4,058077576394146E+004	1,9483477E+000	1,9478608E+000	-3,498044131611666E-002	1,000000000000000E+000	-6,2337192E-003	41	-6,8137029E-005
2	0	0	1	0	4,060576566398793E+004	1,9283557E+000	1,9278636E+000	-3,853355718961707E-002	1,000000000000000E+000	-7,1536610E-003	41	-7,4287440E-005
2	0	0	1	0	4,063075546403450E+004	1,9083638E+000	1,9078660E+000	-4,241356610833061E-002	1,000000000000000E+000	-8,1666969E-003	41	-8,0919403E-005
2	0	0	1	0	4,065574526408105E+004	1,8883722E+000	1,8878989E+000	-4,663220471175061E-002	1,000000000000000E+000	-9,2808437E-003	41	-8,8036890E-005
2	0	0	1	0	4,068073496412765E+004	1,8683802E+000	1,8678997E+000	-5,134872715740860E-002	1,000000000000000E+000	-1,0506716E-002	41	-9,5914271E-005
2	0	0	1	0	4,070572486417415E+004	1,8483884E+000	1,8479383E+000	-5,645977747994202E-002	1,000000000000000E+000	-1,1855254E-002	41	-1,0433418E-004
2	0	0	1	0	4,073071466422068E+004	1,8283966E+000	1,8279399E+000	-6,214805512498844E-002	1,000000000000000E+000	-1,3338706E-002	41	-1,1360291E-004
2	0	0	1	0	4,075570446426724E+004	1,8084047E+000	1,8079484E+000	-6,838067477871745E-002	1,000000000000000E+000	-1,4970453E-002	41	-1,2362874E-004
2	0	0	1	0	4,078069426431379E+004	1,7884129E+000	1,7879659E+000	-7,523715505356933E-002	1,000000000000000E+000	-1,6765777E-002	41	-1,3452147E-004
2	0	0	1	0	4,080568406436042E+004	1,7684209E+000	1,7679644E+000	-8,274109928860485E-002	1,000000000000000E+000	-1,8740151E-002	41	-1,4628332E-004
2	0	0	1	0	4,083067386440688E+004	1,7484292E+000	1,7479925E+000	-9,089610251026703E-002	1,000000000000000E+000	-2,0910751E-002	41	-1,5888571E-004
2	0	0	1	0	4,085566366445343E+004	1,7284374E+000	1,7280327E+000	-9,975376168551087E-002	1,000000000000000E+000	-2,3294274E-002	41	-1,7237777E-004
2	0	0	1	0	4,088065346449998E+004	1,7084457E+000	1,7079104E+000	-1,095892024267648E-001	1,000000000000000E+000	-2,5912976E-002	40	-1,8716854E-004
2	0	0	1	0	4,090564316454658E+004	1,6884538E+000	1,6879295E+000	-1,199542259855395E-001	1,000000000000000E+000	-2,8781580E-002	40	-2,0247427E-004
2	0	0	1	0	4,093063306459316E+004	1,6684618E+000	1,6679147E+000	-1,310060964257591E-001	1,000000000000000E+000	-3,1918455E-002	40	-2,1850700E-004
2	0	0	1	0	4,095562296463968E+004	1,6484700E+000	1,6479549E+000	-1,428282588695675E-001	1,000000000000000E+000	-3,5340730E-002	40	-2,3537454E-004
2	0	0	1	0	4,098061276468617E+004	1,6284781E+000	1,6279283E+000	-1,554216852880490E-001	1,000000000000000E+000	-3,9068520E-002	40	-2,5301534E-004
2	0	0	1	0	4,100560246473277E+004	1,6084863E+000	1,6079450E+000	-1,688226658218448E-001	1,000000000000000E+000	-4,3120526E-002	40	-2,7145757E-004
2	0	0	1	0	4,103059246477927E+004	1,5884943E+000	1,5879310E+000	-1,832872720066341E-001	1,000000000000000E+000	-4,7520701E-002	40	-2,9104756E-004
2	0	0	1	0	4,105558226482577E+004	1,5685027E+000	1,5679415E+000	-1,989679139798839E-001	1,000000000000000E+000	-5,2296221E-002	40	-3,1197007E-004
2	0	0	1	0	4,108057196487242E+004	1,5485109E+000	1,5479773E+000	-2,162814116142573E-001	1,000000000000000E+000	-5,7484098E-002	40	-3,3479871E-004
2	0	0	1	0	4,110556176491891E+004	1,5285192E+000	1,5279872E+000	-2,356252353324146E-001	1,000000000000000E+000	-6,3128173E-002	40	-3,6003234E-004
2	0	0	1	0	4,113055146496551E+004	1,5085272E+000	1,5080237E+000	-2,572470109088130E-001	1,000000000000000E+000	-6,9283508E-002	40	-3,8793459E-004
2	0	0	1	0	4,115554146501201E+004	1,4885353E+000	1,4880443E+000	-2,817531708541781E-001	1,000000000000000E+000	-7,6014690E-002	40	-4,1926120E-004
2	0	0	1	0	4,118053126505853E+004	1,4685434E+000	1,4680579E+000	-3,096254738844666E-001	1,000000000000000E+000	-8,3400041E-002	40	-4,5454811E-004
2	0	0	1	0	4,120552096510516E+004	1,4485515E+000	1,4480739E+000	-3,417938417797215E-001	1,000000000000000E+000	-9,1533862E-002	40	-4,9494271E-004
2	0	0	1	0	4,123051086515165E+004	1,4285597E+000	1,4280820E+000	-3,785451330923033E-001	1,000000000000000E+000	-1,0052840E-001	40	-5,4059346E-004
2	0	0	1	0	4,125550066519825E+004	1,4085678E+000	1,4080901E+000	-4,189857935492327E-001	1,000000000000000E+000	-1,1049167E-001	40	-5,8996974E-004
2	0	0	1	0	4,128049046524474E+004	1,3885759E+000	1,3881058E+000	-4,616599146612721E-001	1,000000000000000E+000	-1,2149857E-001	40	-6,4083276E-004
2	0	0	1	0	4,130548016529129E+004	1,3685843E+000	1,3681284E+000	-5,041701789300255E-001	1,000000000000000E+000	-1,3357271E-001	40	-6,8976957E-004
2	0	0	1	0	4,133046996533789E+004	1,3485923E+000	1,3481185E+000	-5,442331241529086E-001	1,000000000000000E+000	-1,4668362E-001	40	-7,3369074E-004
2	0	0	1	0	4,135545986538439E+004	1,3286004E+000	1,3281493E+000	-5,804904213381796E-001	1,000000000000000E+000	-1,6075106E-001	40	-7,7097793E-004
2	0	0	1	0	4,138044966543090E+004	1,3086085E+000	1,3081453E+000	-6,111760001974051E-001	1,000000000000000E+000	-1,7565845E-001	40	-7,9950702E-004
2	0	0	1	0	4,140543946547748E+004	1,2886168E+000	1,2881958E+000	-6,353321727911245E-001	1,000000000000000E+000	-1,9125257E-001	40	-8,1843225E-004
2	0	0	1	0	4,143042926552403E+004	1,2686249E+000	1,2681810E+000	-6,526491891070947E-001	1,000000000000000E+000	-2,0736592E-001	40	-8,2767726E-004
2	0	0	1	0	4,145541906557058E+004	1,2486330E+000	1,2481885E+000	-6,627976759306398E-001	1,000000000000000E+000	-2,2382386E-001	40	-8,2729646E-004
2	0	0	1	0	4,148040886561712E+004	1,2286412E+000	1,2282224E+000	-6,655963197046759E-001	1,000000000000000E+000	-2,4043815E-001	40	-8,1750029E-004
2	0	0	1	0	4,150539866566363E+004	1,2086493E+000	1,2082491E+000	-6,619042981762657E-001	1,000000000000000E+000	-2,5704178E-001	40	-7,9974526E-004
2	0	0	1	0	4,153038846571022E+004	1,1886574E+000	1,1882221E+000	-6,529435592278539E-001	1,000000000000000E+000	-2,7348551E-001	40	-7,7584194E-004
2	0	0	1	0	4,155537826575676E+004	1,1686656E+000	1,1682481E+000	-6,394310664822340E-001	1,000000000000000E+000	-2,8964236E-001	40	-7,4701413E-004
2	0	0	1	0	4,158036806580337E+004	1,1486738E+000	1,1482265E+000	-6,228594284068869E-001	1,000000000000000E+000	-3,0542359E-001	40	-7,1518368E-004
2	0	0	1	0	4,160535786584986E+004	1,1286820E+000	1,1282475E+000	-6,039705694016764E-001	1,000000000000000E+000	-3,2075956E-001	40	-6,8142830E-004
2	0	0	1	0	4,163034766589638E+004	1,1086901E+000	1,1082512E+000	-5,835691070525653E-001	1,000000000000000E+000	-3,3560339E-001	40	-6,4674119E-004
2	0	0	1	0	4,165533746594295E+004	1,0886983E+000	1,0882556E+000	-5,630915654342212E-001	1,000000000000000E+000	-3,4993428E-001	40	-6,1278755E-004
2	0	0	1	0	4,168032726598950E+004	1,0687064E+000	1,0682297E+000	-5,428552125264616E-001	1,000000000000000E+000	-3,6375475E-001	40	-5,7989405E-004
2	0	0	1	0	4,170531706603611E+004	1,0487146E+000	1,0482301E+000	-5,234574907312268E-001	1,000000000000000E+000	-3,7707892E-001	40	-5,4870389E-004
2	0	0	1	0	4,173030686608260E+004	1,0287228E+000	1,0282366E+000	-5,056320483591477E-001	1,000000000000000E+000	-3,8993764E-001	40	-5,1990937E-004
2	0	0	1	0	4,175529666612913E+004	1,0087310E+000	1,0082339E+000	-4,892837806254295E-001	1,000000000000000E+000	-4,0236947E-001	40	-4,9331249E-004
2	0	0	1	0	4,177816306617169E+004	1,0095307E+000	1,0090206E+000	-4,322181371386320E-001	1,000000000000000E+000	-4,1310620E-001	40	-4,3611700E-004
2	0	0	1	0	4,180315286621830E+004	1,0295227E+000	1,0289935E+000	-3,621819743194212E-001	1,000000000000000E+000	-4,2297739E-001	40	-3,7268290E-004
2	0	0	1	0	4,182814256626484E+004	1,0495142E+000	1,0490029E+000	-3,095382805609872E-001	1,000000000000000E+000	-4,3133861E-001	40	-3,2470655E-004
2	0	0	1	0	4,185313246631145E+004	1,0695062E+000	1,0689855E+000	-2,675502992200940E-001	1,000000000000000E+000	-4,3852693E-001	40	-2,8600739E-004
2	0	0	1	0	4,187812226635788E+004	1,0894980E+000	1,0890111E+000	-2,330284847169330E-001	1,000000000000000E+000	-4,4476393E-001	40	-2,5377059E-004
2	0	0	1	0	4,190311206640443E+004	1,1094899E+000	1,1089724E+000	-2,040660173070088E-001	1,000000000000000E+000	-4,5021203E-001	40	-2,2630359E-004
2	0	0	1	0	4,192810176645106E+004	1,1294817E+000	1,1289589E+000	-1,793018119263562E-001	1,000000000000000E+000	-4,5499140E-001	40	-2,0242439E-004
2	0	0	1	0	4,195309166649752E+004	1,1494735E+000	1,1489208E+000	-1,580285993688819E-001	1,000000000000000E+000	-4,5919695E-001	40	-1,8156234E-004
2	0	0	1	0	4,197808146654407E+004	1,1694653E+000	1,1689657E+000	-1,393112720118945E-001	1,000000000000000E+000	-4,6290368E-001	40	-1,6285010E-004
2	0	0	1	0	4,200307126659068E+004	1,1894571E+000	1,1889445E+000	-1,228579619002383E-001	1,000000000000000E+000	-4,6617222E-001	40	-1,4607130E-004
2	0	0	1	0	4,202806106663716E+004	1,2094489E+000	1,2089056E+000	-1,081433344432503E-001	1,000000000000000E+000	-4,6905279E-001	40	-1,3073508E-004
2	0	0	1	0	4,205305096668382E+004	1,2294409E+000	1,2288927E+000	-9,493186798672504E-002	1,000000000000000E+000	-4,7158450E-001	40	-1,1666107E-004
2	0	0	1	0	4,207804076673044E+004	1,2494327E+000	1,2488867E+000	-8,292361967574613E-002	1,000000000000000E+000	-4,7380140E-001	40	-1,0356220E-004
2	0	0	1	0	4,210303066677682E+004	1,2694247E+000	1,2688766E+000	-7,191056518316929E-002	1,000000000000000E+000	-4,7573146E-001	40	-9,1245631E-005
2	0	0	1	0	4,212802046682342E+004	1,2894164E+000	1,2888587E+000	-6,172025704971129E-002	1,000000000000000E+000	-4,7739655E-001	40	-7,9548685E-005
2	0	0	1	0	4,215301026686991E+004	1,3094082E+000	1,3088508E+000	-5,213382589052140E-002	1,000000000000000E+000	-4,7881508E-001	40	-6,8235400E-005
2	0	0	1	0	4,217800006691655E+004	1,3294001E+000	1,3288913E+000	-4,305398879893929E-002	1,000000000000000E+000	-4,8000038E-001	41	-5,7214071E-005
2	0	0	1	0	4,220298986696301E+004	1,3493918E+000	1,3488742E+000	-3,446400193081245E-002	1,000000000000000E+000	-4,8096582E-001	41	-4,6487603E-005
2	0	0	1	0	4,222797966700955E+004	1,3693836E+000	1,3688660E+000	-2,616903532284179E-002	1,000000000000000E+000	-4,8172033E-001	41	-3,5821900E-005
2	0	0	1	0	4,225296946705616E+004	1,3893757E+000	1,3888417E+000	-1,803319374631115E-002	1,000000000000000E+000	-4,8227000E-001	41	-2,5045252E-005
2	0	0	1	0	4,227795936710271E+004	1,4093674E+000	1,4088461E+000	-9,920489942915028E-003	1,000000000000000E+000	-4,8261651E-001	41	-1,3976444E-005
2	0	0	1	0	4,230294916714930E+004	1,4293593E+000	1,4288374E+000	-1,638494580997994E-003	1,000000000000000E+000	-4,8275837E-001	42	-2,3411424E-006
2	1	0	1	0	4,232806406719598E+004	1,4494512E+000	1,4488356E+000	6,827345048384774E-003	1,000000000000000E+000	-4,8269179E-001	42	9,8917008E-006
2	1	0	1	0	4,235305376724253E+004	1,4694430E+000	1,4688915E+000	1,582478902770305E-002	1,000000000000000E+000	-4,8240611E-001	41	2,3244898E-005
2	1	0	1	0	4,237804346728913E+004	1,4894347E+000	1,4888626E+000	2,528457905519228E-002	1,000000000000000E+000	-4,8189053E-001	41	3,7645266E-005
2	1	0	1	0	4,240303346733563E+004	1,5094267E+000	1,5088291E+000	3,536445035286007E-002	1,000000000000000E+000	-4,8113111E-001	41	5,3358912E-005
2	1	0	1	0	4,242802326738216E+004	1,5294186E+000	1,5288358E+000	4,628913893340936E-002	1,000000000000000E+000	-4,8010990E-001	41	7,0768489E-005
2	1	0	1	0	4,245301296742877E+004	1,5494105E+000	1,5487727E+000	5,821425754725124E-002	1,000000000000000E+000	-4,7880486E-001	41	9,0160655E-005
2	1	0	1	0	4,247800296747527E+004	1,5694022E+000	1,5687513E+000	7,186041930642928E-002	1,000000000000000E+000	-4,7718111E-001	41	1,1273113E-004
2	1	0	1	0	4,250299266752190E+004	1,5893940E+000	1,5887209E+000	8,762466958483822E-002	1,000000000000000E+000	-4,7518989E-001	41	1,3921114E-004
2	1	0	1	0	4,252798246756836E+004	1,6093858E+000	1,6088256E+000	1,065624886772562E-001	1,000000000000000E+000	-4,7276998E-001	40	1,7144045E-004
2	1	0	1	0	4,255297246761491E+004	1,6293778E+000	1,6288058E+000	1,328280843804583E-001	1,000000000000000E+000	-4,6979728E-001	40	2,1635115E-004
2	1	0	1	0	4,257796216766152E+004	1,6493697E+000	1,6487899E+000	1,693795946595307E-001	1,000000000000000E+000	-4,6603510E-001	40	2,7927136E-004
2	1	0	1	0	4,260295196770807E+004	1,6693615E+000	1,6687647E+000	2,119663166285091E-001	1,000000000000000E+000	-4,6127445E-001	40	3,5372190E-004
2	1	0	1	0	4,262794186775465E+004	1,6893532E+000	1,6887563E+000	2,573865972724689E-001	1,000000000000000E+000	-4,5541069E-001	40	4,3466326E-004
2	1	0	1	0	4,265293166780123E+004	1,7093452E+000	1,7087598E+000	3,047072332018153E-001	1,000000000000000E+000	-4,4838697E-001	40	5,2067148E-004
2	1	0	1	0	4,267792146784766E+004	1,7293370E+000	1,7287539E+000	3,533665481330983E-001	1,000000000000000E+000	-4,4016284E-001	40	6,1088381E-004
2	1	0	1	0	4,270291146789421E+004	1,7493290E+000	1,7487397E+000	4,031995595964046E-001	1,000000000000000E+000	-4,3070653E-001	40	7,0509111E-004
2	1	0	1	0	4,272790126794076E+004	1,7693208E+000	1,7687199E+000	4,533834995672974E-001	1,000000000000000E+000	-4,2000294E-001	40	8,0190843E-004
2	1	0	1	0	4,275289096798727E+004	1,7893125E+000	1,7887133E+000	5,035530799696444E-001	1,000000000000000E+000	-4,0804157E-001	40	9,0071210E-004
2	1	0	1	0	4,277788086803386E+004	1,8093044E+000	1,8087080E+000	5,530996191896431E-001	1,000000000000000E+000	-3,9483264E-001	40	1,0003956E-003
2	1	0	1	0	4,280287066808040E+004	1,8292962E+000	1,8286954E+000	6,002462391934937E-001	1,000000000000000E+000	-3,8041249E-001	40	1,0976675E-003
2	1	0	1	0	4,282786046812695E+004	1,8492879E+000	1,8486625E+000	6,444426975655766E-001	1,000000000000000E+000	-3,6484882E-001	40	1,1913570E-003
2	1	0	1	0	4,285285016817355E+004	1,8692799E+000	1,8686463E+000	6,840182710548266E-001	1,000000000000000E+000	-3,4823573E-001	40	1,2781882E-003
2	1	0	1	0	4,287784016822002E+004	1,8892717E+000	1,8886368E+000	7,191747661661871E-001	1,000000000000000E+000	-3,3068606E-001	40	1,3582599E-003
2	1	0	1	0	4,290282986826659E+004	1,9092636E+000	1,9086514E+000	7,477650834155458E-001	1,000000000000000E+000	-3,1233773E-001	40	1,4272229E-003
2	1	0	1	0	4,292781986831315E+004	1,9292555E+000	1,9286443E+000	7,694544118840962E-001	1,000000000000000E+000	-2,9335979E-001	40	1,4840038E-003
2	1	0	1	0	4,295280966835970E+004	1,9492474E+000	1,9486237E+000	7,828437338727436E-001	1,000000000000000E+000	-2,7394310E-001	40	1,5254678E-003
2	1	0	1	0	4,297779936840630E+004	1,9692392E+000	1,9685968E+000	7,872387996246051E-001	1,000000000000000E+000	-2,5430161E-001	40	1,5497558E-003
2	1	0	1	0	4,300278916845275E+004	1,9892311E+000	1,9886229E+000	7,823924318585957E-001	1,000000000000000E+000	-2,3466484E-001	40	1,5558836E-003
2	1	0	1	0	4,302777906849934E+004	2,0092225E+000	2,0086255E+000	7,677931365484358E-001	1,000000000000000E+000	-2,1527451E-001	40	1,5422088E-003
2	1	0	1	0	4,305276896854589E+004	2,0292146E+000	2,0286055E+000	7,421711343260604E-001	1,000000000000000E+000	-1,9638142E-001	40	1,5055725E-003
2	1	0	1	0	4,307775876859250E+004	2,0492063E+000	2,0485756E+000	7,057961587817498E-001	1,000000000000000E+000	-1,7826466E-001	40	1,4458768E-003
2	1	0	1	0	4,310274856863904E+004	2,0691981E+000	2,0685942E+000	6,594104658882669E-001	1,000000000000000E+000	-1,6118598E-001	40	1,3640526E-003
2	1	0	1	0	4,312773836868550E+004	2,0891902E+000	2,0885592E+000	6,052051982550157E-001	1,000000000000000E+000	-1,4536883E-001	40	1,2640068E-003
2	1	0	1	0	4,315272826873208E+004	2,1091819E+000	2,1085918E+000	5,463919714759546E-001	1,000000000000000E+000	-1,3097413E-001	40	1,1521176E-003
2	1	0	1	0	4,317771816877864E+004	2,1291740E+000	2,1286106E+000	4,864984662847052E-001	1,000000000000000E+000	-1,1806966E-001	40	1,0355657E-003
2	1	0	1	0	4,320270796882513E+004	2,1491656E+000	2,1485906E+000	4,292597393181889E-001	1,000000000000000E+000	-1,0663417E-001	40	9,2230341E-004
2	1	0	1	0	4,322769776887179E+004	2,1691577E+000	2,1685872E+000	3,766334161964187E-001	1,000000000000000E+000	-9,6574873E-002	40	8,1676239E-004
2	1	0	1	0	4,325268756891824E+004	2,1891494E+000	2,1885946E+000	3,298396136312132E-001	1,000000000000000E+000	-8,7759055E-002	40	7,2188518E-004
2	1	0	1	0	4,327767736896488E+004	2,2091413E+000	2,2085896E+000	2,890341351728902E-001	1,000000000000000E+000	-8,0036961E-002	40	6,3835777E-004
2	1	0	1	0	4,330266726901138E+004	2,2291329E+000	2,2285850E+000	2,538613039629354E-001	1,000000000000000E+000	-7,3263615E-002	40	5,6575151E-004
2	1	0	1	0	4,332765706905787E+004	2,2491250E+000	2,2485414E+000	2,237580970047759E-001	1,000000000000000E+000	-6,7304529E-002	40	5,0312933E-004
2	1	0	1	0	4,335264676910453E+004	2,2691164E+000	2,2685947E+000	1,983930486007065E-001	1,000000000000000E+000	-6,2037095E-002	40	4,5007342E-004
2	1	0	1	0	4,337763656915100E+004	2,2891085E+000	2,2885599E+000	1,769366709927272E-001	1,000000000000000E+000	-5,7353765E-002	40	4,0493018E-004
2	1	0	1	0	4,340262646919757E+004	2,3091004E+000	2,3085821E+000	1,589815872721907E-001	1,000000000000000E+000	-5,3161297E-002	40	3,6702203E-004
2	1	0	1	0	4,342761636924412E+004	2,3290920E+000	2,3285394E+000	1,437899773563866E-001	1,000000000000000E+000	-4,9382299E-002	40	3,3482062E-004
2	1	0	1	0	4,345260616929061E+004	2,3490841E+000	2,3485317E+000	1,309681515420995E-001	1,000000000000000E+000	-4,5951746E-002	40	3,0758287E-004
2	1	0	1	0	4,347759616933716E+004	2,3690760E+000	2,3685186E+000	1,200617688708575E-001	1,000000000000000E+000	-4,2817537E-002	40	2,8436852E-004
2	1	0	1	0	4,350258576938376E+004	2,3890676E+000	2,3885329E+000	1,105869752955917E-001	1,000000000000000E+000	-3,9936922E-002	40	2,6414063E-004
2	1	0	1	0	4,352757566943031E+004	2,4090598E+000	2,4085321E+000	1,025155511853391E-001	1,000000000000000E+000	-3,7275121E-002	40	2,4691201E-004
2	1	0	1	0	4,355256546947686E+004	2,4290514E+000	2,4285309E+000	9,543540461051570E-002	1,000000000000000E+000	-3,4802701E-002	40	2,3176783E-004
2	1	0	1	0	4,357755536952335E+004	2,4490433E+000	2,4485195E+000	8,927087335309503E-002	1,000000000000000E+000	-3,2494742E-002	40	2,1858147E-004
2	1	0	1	0	4,360254496957001E+004	2,4690351E+000	2,4685061E+000	8,388116977232295E-002	1,000000000000000E+000	-3,0331144E-002	40	2,0706118E-004
2	1	0	1	0	4,362753486961650E+004	2,4890268E+000	2,4885206E+000	7,909567215901014E-002	1,000000000000000E+000	-2,8294308E-002	40	1,9683121E-004
2	1	0	1	0	4,365252476966300E+004	2,5090187E+000	2,5085213E+000	7,485150489656345E-002	1,000000000000000E+000	-2,6370196E-002	40	1,8776659E-004
2	1	0	1	0	4,367751456970954E+004	2,5290105E+000	2,5284994E+000	7,111623414348256E-002	1,000000000000000E+000	-2,4545765E-002	40	1,7981735E-004
2	1	0	1	0	4,370250446975610E+004	2,5490024E+000	2,5484862E+000	6,781148238592355E-002	1,000000000000000E+000	-2,2808768E-002	40	1,7281662E-004
2	1	0	1	0	4,372749436980265E+004	2,5689945E+000	2,5684760E+000	6,498327972157203E-002	1,000000000000000E+000	-2,1148464E-002	40	1,6690799E-004
2	1	0	1	0	4,375248396984924E+004	2,5889862E+000	2,5884676E+000	6,248741431626503E-002	1,000000000000000E+000	-1,9554649E-002	40	1,6174665E-004
2	1	0	1	0	4,377747386989568E+004	2,6089780E+000	2,6084878E+000	6,030603601130780E-002	1,000000000000000E+000	-1,8019127E-002	40	1,5730756E-004
2	1	0	1	0	4,380246376994229E+004	2,6289699E+000	2,6284688E+000	5,840171173460695E-002	1,000000000000000E+000	-1,6534451E-002	40	1,5350708E-004
2	1	0	1	0	4,382745336998886E+004	2,6489618E+000	2,6484375E+000	5,665418735569860E-002	1,000000000000000E+000	-1,5095339E-002	40	1,5004507E-004
2	1	0	1	0	4,385244327003532E+004	2,6689534E+000	2,6684601E+000	5,503640481507854E-002	1,000000000000000E+000	-1,3697826E-002	40	1,4686245E-004
2	1	0	1	0	4,387743317008199E+004	2,6889455E+000	2,6884494E+000	5,349372070446601E-002	1,000000000000000E+000	-1,2339966E-002	40	1,4381517E-004
2	1	0	1	1	4,390067417012528E+004	2,6924438E+000	2,6919262E+000	4,295327062086718E-002	1,000000000000000E+000	-1,1171312E-002	41	1,1562704E-004
2	1	0	1	1	4,392566407017174E+004	2,6724520E+000	2,6719348E+000	3,432372958360298E-002	1,000000000000000E+000	-1,0217976E-002	41	9,1710768E-005
2	1	0	1	1	4,395065397021838E+004	2,6524603E+000	2,6519346E+000	2,851116166551304E-002	1,000000000000000E+000	-9,4387121E-003	41	7,5609736E-005
2	1	0	1	1	4,397564377026487E+004	2,6324685E+000	2,6319599E+000	2,408265728793463E-002	1,000000000000000E+000	-8,7857936E-003	41	6,3384592E-005
2	1	0	1	1	4,400063347031147E+004	2,6124766E+000	2,6119547E+000	2,052837419442209E-002	1,000000000000000E+000	-8,2315523E-003	41	5,3619184E-005
2	1	0	1	1	4,402562337035802E+004	2,5924847E+000	2,5919681E+000	1,765628321954521E-002	1,000000000000000E+000	-7,7572777E-003	41	4,5764522E-005
2	1	0	1	1	4,405061317040449E+004	2,5724931E+000	2,5719850E+000	1,523332245623621E-002	1,000000000000000E+000	-7,3491666E-003	41	3,9179879E-005
2	1	0	1	1	4,407560297045112E+004	2,5525012E+000	2,5519774E+000	1,313964348527139E-002	1,000000000000000E+000	-6,9974009E-003	41	3,3532073E-005
2	1	0	1	1	4,410059267049760E+004	2,5325091E+000	2,5319972E+000	1,133495776928226E-002	1,000000000000000E+000	-6,6940319E-003	41	2,8700082E-005
2	1	0	1	1	4,412358317054040E+004	2,5141168E+000	2,5136163E+000	9,855745492546378E-003	2,000000000000000E+000	-6,4525655E-003	41	2,4773562E-005
2	1	0	1	1	4,414857297058706E+004	2,4941249E+000	2,4936340E+000	8,419293679074263E-003	2,000000000000000E+000	-6,2267017E-003	41	2,0994637E-005
2	1	0	1	1	4,417356287063350E+004	2,4741330E+000	2,4736364E+000	7,083867996493257E-003	2,000000000000000E+000	-6,0353880E-003	41	1,7522914E-005
2	1	0	1	1	4,419855257068016E+004	2,4541414E+000	2,4536462E+000	5,874786063855549E-003	2,000000000000000E+000	-5,8754901E-003	41	1,4414646E-005
2	1	0	1	1	4,422354237072665E+004	2,4341490E+000	2,4336085E+000	4,739076462386707E-003	2,000000000000000E+000	-5,7449928E-003	42	1,1533057E-005
2	1	0	1	1	4,424853227077308E+004	2,4141576E+000	2,4136114E+000	3,694361329900440E-003	2,000000000000000E+000	-5,6415163E-003	42	8,9167524E-006
2	1	0	1	1	4,427352207081963E+004	2,3941658E+000	2,3936341E+000	2,646804617819742E-003	2,000000000000000E+000	-5,5639939E-003	42	6,3354819E-006
2	1	0	1	1	4,429851177086627E+004	2,3741739E+000	2,3736401E+000	1,679556511409806E-003	2,000000000000000E+000	-5,5115735E-003	42	3,9866627E-006
2	1	0	1	1	4,432350137091288E+004	2,3541820E+000	2,3536561E+000	7,065032173902523E-004	2,000000000000000E+000	-5,4836911E-003	42	1,6628655E-006
2	0	0	1	1	4,434861617095966E+004	2,3340902E+000	2,3336239E+000	-2,792690577855883E-004	2,000000000000000E+000	-5,4802368E-003	43	-6,5170894E-007
2	0	0	1	1	4,437360597100609E+004	2,3140981E+000	2,3136022E+000	-1,285312001407502E-003	2,000000000000000E+000	-5,5016810E-003	42	-2,9737007E-006
2	0	0	1	1	4,439859577105264E+004	2,2941065E+000	2,2936108E+000	-2,305109739523819E-003	2,000000000000000E+000	-5,5483300E-003	42	-5,2870246E-006
2	0	0	1	1	4,442358567109925E+004	2,2741146E+000	2,2736466E+000	-3,370034610144804E-003	2,000000000000000E+000	-5,6209881E-003	42	-7,6622673E-006
2	0	0	1	1	4,444857557114586E+004	2,2541227E+000	2,2536557E+000	-4,489253214016019E-003	2,000000000000000E+000	-5,7207132E-003	42	-1,0117231E-005
2	0	0	1	1	4,447356537119241E+004	2,2341309E+000	2,2336965E+000	-5,639801295167770E-003	2,000000000000000E+000	-5,8488105E-003	42	-1,2597604E-005
2	0	0	1	1	4,449855517123884E+004	2,2141390E+000	2,2137113E+000	-6,865982889027313E-003	2,000000000000000E+000	-6,0066674E-003	42	-1,5199304E-005
2	0	0	1	1	4,452354467128543E+004	2,1941471E+000	2,1937511E+000	-8,152872594423877E-003	2,000000000000000E+000	-6,1961194E-003	42	-1,7885373E-005
2	0	0	1	1	4,454853457133198E+004	2,1741555E+000	2,1737533E+000	-9,535036677196157E-003	2,000000000000000E+000	-6,4193015E-003	42	-2,0726817E-005
2	0	0	1	1	4,457352437137847E+004	2,1541638E+000	2,1536627E+000	-1,103129556556542E-002	2,000000000000000E+000	-6,6789286E-003	41	-2,3757690E-005
2	0	0	1	1	4,459851407142496E+004	2,1341717E+000	2,1336718E+000	-1,259380379520034E-002	2,000000000000000E+000	-6,9762422E-003	41	-2,6871043E-005
2	0	0	1	1	4,462350397147159E+004	2,1141796E+000	2,1137073E+000	-1,430254119253055E-002	2,000000000000000E+000	-7,3140585E-003	41	-3,0231386E-005
2	0	0	1	1	4,464849377151823E+004	2,0941880E+000	2,0937226E+000	-1,612246847339299E-002	2,000000000000000E+000	-7,6956446E-003	41	-3,3755976E-005
2	0	0	1	1	4,467348357156472E+004	2,0741963E+000	2,0737185E+000	-1,808718613268556E-002	2,000000000000000E+000	-8,1248460E-003	41	-3,7507732E-005
2	0	0	1	1	4,469847337161121E+004	2,0542042E+000	2,0537279E+000	-2,016184738331672E-002	2,000000000000000E+000	-8,6043663E-003	41	-4,1406947E-005
2	0	0	1	1	4,472346307165769E+004	2,0342124E+000	2,0337410E+000	-2,245512825712367E-002	2,000000000000000E+000	-9,1386614E-003	41	-4,5667915E-005
2	0	0	1	1	4,474845297170435E+004	2,0142207E+000	2,0137334E+000	-2,492257586411619E-002	2,000000000000000E+000	-9,7321020E-003	41	-5,0187424E-005
2	0	0	1	1	4,477344267175091E+004	1,9942291E+000	1,9937495E+000	-2,759846551300205E-002	2,000000000000000E+000	-1,0389625E-002	41	-5,5024426E-005
2	0	0	1	1	4,479843247179745E+004	1,9742370E+000	1,9737525E+000	-3,047723279294456E-002	2,000000000000000E+000	-1,1116746E-002	41	-6,0154514E-005
2	0	0	1	1	4,482342247184395E+004	1,9542451E+000	1,9537622E+000	-3,363769112886386E-002	2,000000000000000E+000	-1,1919385E-002	41	-6,5720051E-005
2	0	0	1	1	4,484841217189061E+004	1,9342533E+000	1,9337496E+000	-3,706405846860639E-002	2,000000000000000E+000	-1,2804323E-002	41	-7,1672606E-005
2	0	0	1	1	4,487340197193710E+004	1,9142616E+000	1,9138154E+000	-4,083454969758592E-002	2,000000000000000E+000	-1,3778956E-002	41	-7,8149787E-005
2	0	0	1	1	4,489839167198364E+004	1,8942697E+000	1,8938098E+000	-4,495514657066102E-002	2,000000000000000E+000	-1,4852207E-002	41	-8,5136497E-005
2	0	0	1	1	4,492338147203019E+004	1,8742778E+000	1,8738062E+000	-4,950733248272754E-002	2,000000000000000E+000	-1,6033741E-002	41	-9,2767150E-005
2	0	0	1	1	4,494837147207669E+004	1,8542858E+000	1,8538409E+000	-5,445063937393713E-002	2,000000000000000E+000	-1,7333506E-002	41	-1,0094282E-004
2	0	0	1	1	4,497336117212335E+004	1,8342942E+000	1,8338424E+000	-5,992050934455045E-002	2,000000000000000E+000	-1,8763617E-002	41	-1,0988477E-004
2	0	0	1	1	4,499835087216983E+004	1,8143023E+000	1,8138505E+000	-6,592460096920638E-002	2,000000000000000E+000	-2,0336805E-002	41	-1,1957737E-004
2	0	0	1	1	4,502334077221632E+004	1,7943106E+000	1,7938983E+000	-7,248356512104204E-002	2,000000000000000E+000	-2,2066565E-002	41	-1,3002814E-004
2	0	0	1	1	4,504833067226282E+004	1,7743186E+000	1,7738928E+000	-7,964727171410402E-002	2,000000000000000E+000	-2,3968423E-002	41	-1,4128572E-004
2	0	0	1	1	4,507332047230944E+004	1,7543268E+000	1,7539099E+000	-8,751020346698524E-002	2,000000000000000E+000	-2,6058221E-002	41	-1,5348502E-004
2	0	0	1	1	4,509831017235608E+004	1,7343353E+000	1,7339596E+000	-9,610287668392048E-002	2,000000000000000E+000	-2,8353307E-002	41	-1,6663851E-004
2	0	0	1	1	4,512329987240257E+004	1,7143432E+000	1,7138529E+000	-1,055934470681092E-001	2,000000000000000E+000	-3,0873932E-002	40	-1,8097163E-004
2	0	0	1	1	4,514828987244907E+004	1,6943512E+000	1,6938304E+000	-1,155698076400455E-001	2,000000000000000E+000	-3,3638000E-002	40	-1,9575565E-004
2	0	0	1	1	4,517327967249556E+004	1,6743594E+000	1,6738257E+000	-1,261603651072820E-001	2,000000000000000E+000	-3,6659393E-002	40	-2,1117047E-004
2	0	0	1	1	4,519826947254220E+004	1,6543676E+000	1,6538502E+000	-1,375536812196234E-001	2,000000000000000E+000	-3,9955243E-002	40	-2,2749318E-004
2	0	0	1	1	4,522325927258877E+004	1,6343758E+000	1,6338556E+000	-1,496108221481061E-001	2,000000000000000E+000	-4,3544412E-002	40	-2,4444249E-004
2	0	0	1	1	4,524824907263531E+004	1,6143838E+000	1,6138684E+000	-1,625489611777518E-001	2,000000000000000E+000	-4,7445416E-002	40	-2,6233261E-004
2	0	0	1	1	4,527323897268181E+004	1,5943921E+000	1,5938505E+000	-1,763851261684639E-001	2,000000000000000E+000	-5,1680606E-002	40	-2,8113151E-004
2	0	0	1	1	4,529822867272829E+004	1,5744003E+000	1,5738666E+000	-1,914354223814758E-001	2,000000000000000E+000	-5,6276288E-002	40	-3,0129383E-004
2	0	0	1	1	4,532321847277496E+004	1,5544083E+000	1,5538594E+000	-2,078573844024502E-001	2,000000000000000E+000	-6,1264224E-002	40	-3,2298113E-004
2	0	0	1	1	4,534820827282139E+004	1,5344166E+000	1,5338924E+000	-2,261994375407328E-001	2,000000000000000E+000	-6,6686518E-002	40	-3,4696559E-004
2	0	0	1	1	4,537319817286811E+004	1,5144247E+000	1,5139011E+000	-2,467614853897526E-001	2,000000000000000E+000	-7,2594471E-002	40	-3,7357249E-004
2	0	0	1	1	4,539818787291454E+004	1,4944327E+000	1,4939120E+000	-2,698469365462612E-001	2,000000000000000E+000	-7,9046562E-002	40	-4,0312757E-004
2	0	0	1	1	4,542317767296103E+004	1,4744411E+000	1,4738972E+000	-2,960902502080960E-001	2,000000000000000E+000	-8,6114161E-002	40	-4,3640658E-004
2	0	0	1	1	4,544816747300769E+004	1,4544492E+000	1,4539499E+000	-3,261307757273006E-001	2,000000000000000E+000	-9,3884006E-002	40	-4,7417782E-004
2	0	0	1	1	4,547315737305419E+004	1,4344572E+000	1,4339503E+000	-3,607986070474061E-001	2,000000000000000E+000	-1,0246117E-001	40	-5,1736727E-004
2	0	0	1	1	4,549814717310073E+004	1,4144655E+000	1,4139799E+000	-3,997407352525073E-001	2,000000000000000E+000	-1,1196120E-001	40	-5,6522537E-004
2	0	0	1	1	4,552313687314732E+004	1,3944737E+000	1,3939896E+000	-4,416962040751944E-001	2,000000000000000E+000	-1,2247573E-001	40	-6,1571988E-004
2	0	0	1	1	4,554812667319388E+004	1,3744818E+000	1,3740120E+000	-4,842354243687819E-001	2,000000000000000E+000	-1,3405000E-001	40	-6,6534529E-004
2	0	0	1	1	4,557311647324043E+004	1,3544899E+000	1,3540258E+000	-5,254722697692422E-001	2,000000000000000E+000	-1,4667423E-001	40	-7,1150303E-004
2	0	0	1	1	4,559810637328692E+004	1,3344979E+000	1,3340453E+000	-5,629391902605985E-001	2,000000000000000E+000	-1,6028650E-001	40	-7,5098639E-004
2	0	0	1	1	4,562309617333347E+004	1,3145063E+000	1,3140316E+000	-5,955756542030084E-001	2,000000000000000E+000	-1,7477794E-001	40	-7,8260520E-004
2	0	0	1	1	4,564808587338006E+004	1,2945144E+000	1,2940619E+000	-6,220979776901912E-001	2,000000000000000E+000	-1,9001243E-001	40	-8,0503331E-004
2	0	0	1	1	4,567307587342663E+004	1,2745224E+000	1,2740582E+000	-6,418048000038858E-001	2,000000000000000E+000	-2,0582344E-001	40	-8,1769668E-004
2	0	0	1	1	4,569806567347317E+004	1,2545305E+000	1,2541014E+000	-6,542649682651991E-001	2,000000000000000E+000	-2,2203612E-001	40	-8,2051463E-004
2	0	0	1	1	4,572305537351966E+004	1,2345388E+000	1,2341157E+000	-6,598222207030218E-001	2,000000000000000E+000	-2,3847504E-001	40	-8,1429700E-004
2	0	0	1	1	4,574804507356626E+004	1,2145470E+000	1,2141137E+000	-6,588229487686017E-001	2,000000000000000E+000	-2,5496766E-001	40	-7,9988595E-004
2	0	0	1	1	4,577303487361281E+004	1,1945552E+000	1,1941371E+000	-6,519061558117816E-001	2,000000000000000E+000	-2,7135950E-001	40	-7,7846530E-004
2	0	0	1	1	4,579802487365925E+004	1,1745632E+000	1,1741394E+000	-6,404600530507700E-001	2,000000000000000E+000	-2,8752121E-001	40	-7,5198937E-004
2	0	0	1	1	4,582301457370596E+004	1,1545714E+000	1,1541204E+000	-6,255084913136488E-001	2,000000000000000E+000	-3,0335039E-001	40	-7,2191213E-004
2	0	0	1	1	4,584800437375240E+004	1,1345797E+000	1,1341646E+000	-6,077503754518752E-001	2,000000000000000E+000	-3,1876639E-001	40	-6,8928895E-004
2	0	0	1	1	4,587299427379889E+004	1,1145877E+000	1,1141584E+000	-5,883647963699339E-001	2,000000000000000E+000	-3,3371681E-001	40	-6,5553159E-004
2	0	0	1	1	4,589798407384555E+004	1,0945959E+000	1,0941483E+000	-5,682944538557422E-001	2,000000000000000E+000	-3,4817320E-001	40	-6,2179839E-004
2	0	0	1	1	4,592297387389198E+004	1,0746040E+000	1,0741311E+000	-5,482703603152181E-001	2,000000000000000E+000	-3,6212587E-001	40	-5,8891426E-004
2	0	0	1	1	4,594796357393858E+004	1,0546123E+000	1,0541641E+000	-5,287417565551262E-001	2,000000000000000E+000	-3,7558207E-001	40	-5,5738055E-004
2	0	0	1	1	4,597295337398516E+004	1,0346204E+000	1,0341398E+000	-5,104805891817841E-001	2,000000000000000E+000	-3,8856855E-001	40	-5,2790827E-004
2	0	0	1	1	4,599794327403163E+004	1,0146284E+000	1,0141654E+000	-4,936858360883623E-001	2,000000000000000E+000	-4,0111551E-001	40	-5,0067907E-004
2	0	0	1	1	4,602068477407412E+004	1,0035331E+000	1,0030447E+000	-4,597332471843764E-001	2,000000000000000E+000	-4,1213241E-001	40	-4,6113302E-004
2	0	0	1	1	4,604567457412067E+004	1,0235249E+000	1,0230196E+000	-3,814794887324418E-001	2,000000000000000E+000	-4,2256609E-001	40	-3,9026098E-004
2	0	0	1	1	4,607066437416713E+004	1,0435168E+000	1,0430002E+000	-3,250864397716806E-001	2,000000000000000E+000	-4,3135887E-001	40	-3,3906524E-004
2	0	0	1	1	4,609565407421370E+004	1,0635085E+000	1,0629876E+000	-2,805748915605641E-001	2,000000000000000E+000	-4,3890199E-001	40	-2,9824761E-004
2	0	0	1	1	4,612064407426026E+004	1,0835004E+000	1,0829870E+000	-2,441050355914265E-001	2,000000000000000E+000	-4,4543937E-001	40	-2,6436258E-004
2	0	0	1	1	4,614563387430680E+004	1,1034924E+000	1,1029652E+000	-2,136817452214230E-001	2,000000000000000E+000	-4,5114514E-001	40	-2,3568353E-004
2	0	0	1	1	4,617062357435341E+004	1,1234841E+000	1,1229353E+000	-1,878268144895723E-001	2,000000000000000E+000	-4,5615008E-001	40	-2,1091737E-004
2	0	0	1	1	4,619561337439986E+004	1,1434759E+000	1,1429507E+000	-1,654911164592292E-001	2,000000000000000E+000	-4,6055487E-001	40	-1,8914818E-004
2	0	0	1	1	4,622060327444645E+004	1,1634679E+000	1,1629267E+000	-1,460712597538985E-001	2,000000000000000E+000	-4,6443948E-001	40	-1,6987017E-004
2	0	0	1	1	4,624559307449299E+004	1,1834596E+000	1,1829379E+000	-1,289689737088136E-001	2,000000000000000E+000	-4,6786872E-001	40	-1,5256228E-004
2	0	0	1	1	4,627058277453948E+004	1,2034514E+000	1,2028991E+000	-1,137855701616328E-001	2,000000000000000E+000	-4,7089553E-001	40	-1,3687256E-004
2	0	0	1	1	4,629557267458609E+004	1,2234433E+000	1,2228851E+000	-1,000824068223709E-001	2,000000000000000E+000	-4,7356132E-001	40	-1,2238929E-004
2	0	0	1	1	4,632056247463261E+004	1,2434353E+000	1,2428873E+000	-8,764384080455134E-002	2,000000000000000E+000	-4,7590113E-001	40	-1,0893141E-004
2	0	0	1	1	4,634555247467919E+004	1,2634270E+000	1,2628702E+000	-7,631563269732888E-002	2,000000000000000E+000	-4,7794488E-001	40	-9,6376738E-005
2	0	0	1	1	4,637054227472574E+004	1,2834189E+000	1,2828536E+000	-6,583398119398720E-002	2,000000000000000E+000	-4,7971678E-001	40	-8,4455358E-005
2	0	0	1	1	4,639553197477222E+004	1,3034109E+000	1,3028450E+000	-5,607869037041180E-002	2,000000000000000E+000	-4,8123595E-001	40	-7,3061841E-005
2	0	0	1	1	4,642052177481877E+004	1,3234025E+000	1,3228815E+000	-4,676884285482241E-002	2,000000000000000E+000	-4,8251832E-001	41	-6,1869636E-005
2	0	0	1	1	4,644551167486535E+004	1,3433945E+000	1,3428715E+000	-3,812039783470589E-002	2,000000000000000E+000	-4,8357573E-001	41	-5,1190797E-005
2	0	0	1	1	4,647050147491193E+004	1,3633863E+000	1,3628808E+000	-2,969995925169625E-002	2,000000000000000E+000	-4,8442012E-001	41	-4,0477506E-005
2	0	0	1	1	4,649549127495848E+004	1,3833781E+000	1,3828534E+000	-2,149094008663682E-002	2,000000000000000E+000	-4,8505700E-001	41	-2,9718820E-005
2	0	0	1	1	4,652048107500497E+004	1,4033699E+000	1,4028307E+000	-1,335024517125308E-002	2,000000000000000E+000	-4,8548949E-001	41	-1,8728135E-005
2	0	0	1	1	4,654547087505157E+004	1,4233617E+000	1,4228371E+000	-5,061188263235655E-003	2,000000000000000E+000	-4,8571762E-001	41	-7,2012467E-006
2	1	0	1	1	4,657058577509834E+004	1,4434537E+000	1,4428709E+000	3,350648629851238E-003	2,000000000000000E+000	-4,8573691E-001	42	4,8345532E-006
2	1	0	1	1	4,659557557514496E+004	1,4634454E+000	1,4629029E+000	1,228114330398766E-002	2,000000000000000E+000	-4,8554114E-001	41	1,7966120E-005
2	1	0	1	1	4,662056527519145E+004	1,4834373E+000	1,4828721E+000	2,153194054789548E-002	2,000000000000000E+000	-4,8511761E-001	41	3,1929114E-005
2	1	0	1	1	4,664555507523793E+004	1,5034289E+000	1,5028510E+000	3,140041349417344E-002	2,000000000000000E+000	-4,8445517E-001	41	4,7190144E-005
2	1	0	1	1	4,667054507528455E+004	1,5234210E+000	1,5228580E+000	4,199750007196895E-002	2,000000000000000E+000	-4,8353693E-001	41	6,3956228E-005
2	1	0	1	1	4,669553477533109E+004	1,5434128E+000	1,5427990E+000	5,355318174426194E-002	2,000000000000000E+000	-4,8234275E-001	41	8,2621795E-005
2	1	0	1	1	4,672052447537752E+004	1,5634046E+000	1,5627877E+000	6,657083342862691E-002	2,000000000000000E+000	-4,8084325E-001	41	1,0403607E-004
2	1	0	1	1	4,674551447542419E+004	1,5833967E+000	1,5827585E+000	8,168041660206457E-002	2,000000000000000E+000	-4,7899273E-001	41	1,2928038E-004
2	1	0	1	1	4,677050427547068E+004	1,6033883E+000	1,6027739E+000	9,914414135793348E-002	2,000000000000000E+000	-4,7673738E-001	41	1,5890565E-004
2	1	0	1	1	4,679549417551723E+004	1,6233803E+000	1,6228338E+000	1,221363147141981E-001	2,000000000000000E+000	-4,7398591E-001	40	1,9820695E-004
2	1	0	1	1	4,682048397556384E+004	1,6433721E+000	1,6428115E+000	1,553701704285704E-001	2,000000000000000E+000	-4,7053716E-001	40	2,5524391E-004
2	1	0	1	1	4,684547367561026E+004	1,6633638E+000	1,6627786E+000	1,960635270641915E-001	2,000000000000000E+000	-4,6615273E-001	40	3,2601025E-004
2	1	0	1	1	4,687046357565688E+004	1,6833557E+000	1,6827989E+000	2,403162847486919E-001	2,000000000000000E+000	-4,6070188E-001	40	4,0440398E-004
2	1	0	1	1	4,689545347570346E+004	1,7033477E+000	1,7027754E+000	2,865919654964202E-001	2,000000000000000E+000	-4,5411932E-001	40	4,8800174E-004
2	1	0	1	1	4,692044327574992E+004	1,7233396E+000	1,7227672E+000	3,345645788413290E-001	2,000000000000000E+000	-4,4635686E-001	40	5,7637691E-004
2	1	0	1	1	4,694543317579658E+004	1,7433314E+000	1,7427100E+000	3,837676377085897E-001	2,000000000000000E+000	-4,3737933E-001	40	6,6879572E-004
2	1	0	1	1	4,697042297584307E+004	1,7633231E+000	1,7627131E+000	4,339062629599848E-001	2,000000000000000E+000	-4,2716059E-001	40	7,6485222E-004
2	1	0	1	1	4,699541267588956E+004	1,7833149E+000	1,7827010E+000	4,841755156434289E-001	2,000000000000000E+000	-4,1568565E-001	40	8,6314016E-004
2	1	0	1	1	4,702040247593621E+004	1,8033068E+000	1,8026835E+000	5,337843709669983E-001	2,000000000000000E+000	-4,0296087E-001	40	9,6224429E-004
2	1	0	1	1	4,704539247598290E+004	1,8232987E+000	1,8226274E+000	5,817627880750795E-001	2,000000000000000E+000	-3,8901243E-001	40	1,0603368E-003
2	1	0	1	1	4,707038227602933E+004	1,8432906E+000	1,8426527E+000	6,273317769071642E-001	2,000000000000000E+000	-3,7389401E-001	40	1,1559546E-003
2	1	0	1	1	4,709537197607581E+004	1,8632826E+000	1,8626367E+000	6,691435406546518E-001	2,000000000000000E+000	-3,5768116E-001	40	1,2463713E-003
2	1	0	1	1	4,712036187612230E+004	1,8832743E+000	1,8826593E+000	7,065299160255765E-001	2,000000000000000E+000	-3,4047794E-001	40	1,3301552E-003
2	1	0	1	1	4,714535167616895E+004	1,9032660E+000	1,9026417E+000	7,382937713179514E-001	2,000000000000000E+000	-3,2240707E-001	40	1,4047085E-003
2	1	0	1	1	4,717034147621540E+004	1,9232579E+000	1,9226376E+000	7,630351197923330E-001	2,000000000000000E+000	-3,0362841E-001	40	1,4670400E-003
2	1	0	1	1	4,719533137626195E+004	1,9432496E+000	1,9426067E+000	7,803714502799810E-001	2,000000000000000E+000	-2,8432405E-001	40	1,5159548E-003
2	1	0	1	1	4,722032117630856E+004	1,9632417E+000	1,9626201E+000	7,892563132857688E-001	2,000000000000000E+000	-2,6469010E-001	40	1,5490103E-003
2	1	0	1	1	4,724531087635504E+004	1,9832336E+000	1,9825916E+000	7,886042491615513E-001	2,000000000000000E+000	-2,4495207E-001	40	1,5634802E-003
2	1	0	1	1	4,727030087640169E+004	2,0032248E+000	2,0026019E+000	7,777237185307566E-001	2,000000000000000E+000	-2,2535618E-001	40	1,5574710E-003
2	1	0	1	1	4,729529077644832E+004	2,0232172E+000	2,0226102E+000	7,561216316362396E-001	2,000000000000000E+000	-2,0616512E-001	40	1,5293394E-003
2	1	0	1	1	4,732028057649470E+004	2,0432091E+000	2,0425656E+000	7,230671978006189E-001	2,000000000000000E+000	-1,8765630E-001	40	1,4769122E-003
2	1	0	1	1	4,734527037654130E+004	2,0632007E+000	2,0625832E+000	6,795794413489502E-001	2,000000000000000E+000	-1,7010739E-001	40	1,4016891E-003
2	1	0	1	1	4,737026017658785E+004	2,0831926E+000	2,0825768E+000	6,270986273503545E-001	2,000000000000000E+000	-1,5376388E-001	40	1,3059811E-003
2	1	0	1	1	4,739524997663443E+004	2,1031845E+000	2,1025996E+000	5,686763014633067E-001	2,000000000000000E+000	-1,3881093E-001	40	1,1956986E-003
2	1	0	1	1	4,742023987668089E+004	2,1231763E+000	2,1225965E+000	5,073526597778937E-001	2,000000000000000E+000	-1,2536351E-001	40	1,0769049E-003
2	1	0	1	1	4,744522957672743E+004	2,1431680E+000	2,1425908E+000	4,474873502495829E-001	2,000000000000000E+000	-1,1343852E-001	40	9,5878227E-004
2	1	0	1	1	4,747021937677404E+004	2,1631598E+000	2,1625850E+000	3,918447443499549E-001	2,000000000000000E+000	-1,0296181E-001	40	8,4739755E-004
2	1	0	1	1	4,749520917682070E+004	2,1831517E+000	2,1825705E+000	3,419548616913395E-001	2,000000000000000E+000	-9,3804836E-002	40	7,4634061E-004
2	1	0	1	1	4,752019907686718E+004	2,2031436E+000	2,2025867E+000	2,982855535303406E-001	2,000000000000000E+000	-8,5818529E-002	40	6,5699976E-004
2	1	0	1	1	4,754518897691369E+004	2,2231355E+000	2,2226133E+000	2,608106044509473E-001	2,000000000000000E+000	-7,8843571E-002	40	5,7968113E-004
2	1	0	1	1	4,757017887696018E+004	2,2431273E+000	2,2425804E+000	2,287258495083406E-001	2,000000000000000E+000	-7,2736531E-002	40	5,1293609E-004
2	1	0	1	1	4,759516877700679E+004	2,2631195E+000	2,2626145E+000	2,019004620105198E-001	2,000000000000000E+000	-6,7364067E-002	40	4,5682292E-004
2	1	0	1	1	4,762015837705333E+004	2,2831111E+000	2,2825630E+000	1,795221732358390E-001	2,000000000000000E+000	-6,2606186E-002	40	4,0977067E-004
2	1	0	1	1	4,764514827709981E+004	2,3031027E+000	2,3025913E+000	1,608258960850055E-001	2,000000000000000E+000	-5,8359329E-002	40	3,7031632E-004
2	1	0	1	1	4,767013807714637E+004	2,3230946E+000	2,3225875E+000	1,452491239194638E-001	2,000000000000000E+000	-5,4539643E-002	40	3,3735379E-004
2	1	0	1	1	4,769512777719297E+004	2,3430865E+000	2,3425941E+000	1,320383541138727E-001	2,000000000000000E+000	-5,1078323E-002	40	3,0931228E-004
2	1	0	1	1	4,772011757723955E+004	2,3630781E+000	2,3625593E+000	1,208367459660313E-001	2,000000000000000E+000	-4,7921263E-002	40	2,8548398E-004
2	1	0	1	1	4,774510757728620E+004	2,3830702E+000	2,3825662E+000	1,112105799484517E-001	2,000000000000000E+000	-4,5023654E-002	40	2,6496657E-004
2	1	0	1	1	4,777009737733257E+004	2,4030621E+000	2,4025583E+000	1,029356106267192E-001	2,000000000000000E+000	-4,2349003E-002	40	2,4730881E-004
2	1	0	1	1	4,779508717737917E+004	2,4230537E+000	2,4225605E+000	9,576533213677685E-002	2,000000000000000E+000	-3,9866783E-002	40	2,3199731E-004
2	1	0	1	1	4,782007717742567E+004	2,4430459E+000	2,4425535E+000	8,945035188541203E-002	2,000000000000000E+000	-3,7552241E-002	40	2,1848727E-004
2	1	0	1	1	4,784506697747228E+004	2,4630375E+000	2,4625461E+000	8,406455699924753E-002	2,000000000000000E+000	-3,5383403E-002	40	2,0701285E-004
2	1	0	1	1	4,787005657751882E+004	2,4830296E+000	2,4825194E+000	7,923206536635552E-002	2,000000000000000E+000	-3,3342380E-002	40	1,9669514E-004
2	1	0	1	1	4,789504647756531E+004	2,5030212E+000	2,5025394E+000	7,498891423097676E-002	2,000000000000000E+000	-3,1414680E-002	40	1,8766271E-004
2	1	0	1	1	4,792003637761192E+004	2,5230134E+000	2,5225208E+000	7,119818221380236E-002	2,000000000000000E+000	-2,9587049E-002	40	1,7959889E-004
2	1	0	1	1	4,794502617765847E+004	2,5430050E+000	2,5425158E+000	6,780354805549837E-002	2,000000000000000E+000	-2,7849222E-002	40	1,7239159E-004
2	1	0	1	1	4,797001597770504E+004	2,5629969E+000	2,5625086E+000	6,488324196142514E-002	2,000000000000000E+000	-2,6190357E-002	40	1,6626387E-004
2	1	0	1	1	4,799500577775156E+004	2,5829887E+000	2,5824852E+000	6,229083856883921E-002	2,000000000000000E+000	-2,4600442E-002	40	1,6086517E-004
2	1	0	1	1	4,801999557779805E+004	2,6029806E+000	2,6024880E+000	6,009542260333145E-002	2,000000000000000E+000	-2,3070153E-002	40	1,5639763E-004
2	1	0	1	1	4,804498547784460E+004	2,6229722E+000	2,6224923E+000	5,816355250699401E-002	2,000000000000000E+000	-2,1591580E-002	40	1,5253347E-004
2	1	0	1	1	4,806997537789121E+004	2,6429644E+000	2,6424799E+000	5,639768242614940E-002	2,000000000000000E+000	-2,0158818E-002	40	1,4902974E-004
2	1	0	1	1	4,809496497793766E+004	2,6629560E+000	2,6624539E+000	5,478515063541498E-002	2,000000000000000E+000	-1,8767774E-002	40	1,4586294E-004
2	1	0	1	1	4,811995487798424E+004	2,6829479E+000	2,6824391E+000	5,330979661615454E-002	2,000000000000000E+000	-1,7415207E-002	40	1,4300029E-004
2	1	0	1	0	4,814319577802753E+004	2,6984417E+000	2,6979208E+000	4,781888412198590E-002	2,000000000000000E+000	-1,6195845E-002	40	1,2901156E-004
2	1	0	1	0	4,816818567807402E+004	2,6784496E+000	2,6779289E+000	3,611315431442090E-002	2,000000000000000E+000	-1,5179547E-002	41	9,6708463E-005
2	1	0	1	0	4,819317537812068E+004	2,6584578E+000	2,6579509E+000	2,984858528951184E-002	2,000000000000000E+000	-1,4361599E-002	41	7,9336074E-005
2	1	0	1	0	4,821816517816717E+004	2,6384661E+000	2,6379650E+000	2,519040161059503E-002	2,000000000000000E+000	-1,3678066E-002	41	6,6451394E-005
2	1	0	1	0	4,824315497821372E+004	2,6184745E+000	2,6179843E+000	2,151889151193612E-002	2,000000000000000E+000	-1,3098110E-002	41	5,6336121E-005
2	1	0	1	0	4,826814497826030E+004	2,5984821E+000	2,5979767E+000	1,849074965080727E-002	2,000000000000000E+000	-1,2601276E-002	41	4,8038535E-005
2	1	0	1	0	4,829313477830694E+004	2,5784903E+000	2,5779757E+000	1,596732044345554E-002	2,000000000000000E+000	-1,2173207E-002	41	4,1163366E-005
2	1	0	1	0	4,831812457835343E+004	2,5584986E+000	2,5580063E+000	1,381499622707927E-002	2,000000000000000E+000	-1,1803390E-002	41	3,5338846E-005
2	1	0	1	0	4,834311427839985E+004	2,5385067E+000	2,5380490E+000	1,196098992360033E-002	2,000000000000000E+000	-1,1483544E-002	41	3,0357578E-005
2	1	0	0	0	4,835648357842478E+004	2,5277619E+000	2,5272455E+000	1,090785772674432E-002	2,000000000000000E+000	-1,1330746E-002	41	2,7566835E-005