File: Dati/201117/CV_LTO-CB_10 layer_grafite_cu_05_1mVs_06_CV_C03.mpt
EC-Lab ASCII FILE
Nb header lines : 57

Cyclic Voltammetry

Run on channel : 3 (SN 6807)
User :
Electrode connection : standard
Ewe ctrl range : min = 0,00 V, max = 5,00 V
Ewe,I filtering : 50 kHz
Safety Limits :
	Do not start on E overload
Channel : Grounded
Acquisition started on : 11/17/2020 16:29:06
Saved on :
	File : CV_LTO-CB_10 layer_grafite_cu_05_1mVs_06_CV_C03.mpr
	Directory : C:\Users\labsuperfici\Desktop\Biologic\Users\Prisca Viviani\201117\
	Host : 10.78.33.0
Device : VSP-300 (SN 0638)
Address : USB
EC-Lab for windows v11.31 (software)
Internet server v11.30 (firmware)
Command interpretor v11.31 (firmware)
Electrode material :
Initial state :
Electrolyte :
Comments :
Cable : standard
Reference electrode : SCE Saturated Calomel Electrode (0,241 V)
Electrode surface area : 0,001 cm²
Characteristic mass : 0,001 g
Equivalent Weight : 0,000 g/eq.
Density : 0,000 g/cm3
Cycle Definition : Charge/Discharge alternance
Ei (V)              0,000
vs.                 Eoc
dE/dt               0,900
dE/dt unit          mV/s
E1 (V)              1,000
vs.                 Ref
Step percent        50
N                   10
E range min (V)     0,000
E range max (V)     5,000
I Range             Auto
I Range min         Unset
I Range max         Unset
I Range init        Unset
Bandwidth           8
E2 (V)              2,700
vs.                 Ref
nc cycles           1
Reverse Scan        1
Ef (V)              0,000
vs.                 Eoc

mode	ox/red	error	control changes	counter inc.	time/s	control/V	Ewe/V	<I>/mA	cycle number	(Q-Qo)/C	I Range	P/W
2	1	0	0	0	4,835669477842527E+004	2,5277619E+000	2,5272036E+000	1,222439017146826E-002	1,000000000000000E+000	0,0000000E+000	41	3,0893523E-005
2	1	0	1	0	4,837840797846566E+004	2,5082192E+000	2,5077102E+000	9,097932166740680E-003	1,000000000000000E+000	2,1450742E-004	41	2,2814978E-005
2	1	0	1	0	4,840062117850708E+004	2,4882274E+000	2,4877279E+000	7,659669121244848E-003	1,000000000000000E+000	3,9868677E-004	41	1,9055173E-005
2	1	0	1	0	4,842283437854832E+004	2,4682353E+000	2,4677474E+000	6,382849307252761E-003	1,000000000000000E+000	5,5292225E-004	41	1,5751260E-005
2	1	0	1	0	4,844504757858982E+004	2,4482436E+000	2,4477453E+000	5,207905903978620E-003	1,000000000000000E+000	6,7971100E-004	41	1,2747627E-005
2	1	0	1	0	4,846726077863120E+004	2,4282515E+000	2,4277318E+000	4,104631370191847E-003	1,000000000000000E+000	7,8086107E-004	42	9,9649442E-006
2	1	0	1	0	4,848947397867253E+004	2,4082599E+000	2,4077208E+000	3,004723576318299E-003	1,000000000000000E+000	8,5804163E-004	42	7,2345356E-006
2	1	0	1	0	4,851168717871397E+004	2,3882680E+000	2,3877418E+000	1,985129121342799E-003	1,000000000000000E+000	9,1217167E-004	42	4,7399758E-006
2	1	0	1	0	4,853390027875535E+004	2,3682759E+000	2,3677847E+000	1,007450989571480E-003	1,000000000000000E+000	9,4370177E-004	42	2,3854270E-006
2	1	0	1	0	4,855622447879706E+004	2,3481846E+000	2,3477170E+000	-3,146272838630643E-005	1,000000000000000E+000	9,5292146E-004	43	-7,3865586E-008
2	0	0	1	0	4,857843747883829E+004	2,3281925E+000	2,3277121E+000	-1,065740081625164E-003	1,000000000000000E+000	9,3954959E-004	42	-2,4807359E-006
2	0	0	1	0	4,860065067887958E+004	2,3082008E+000	2,3077714E+000	-2,091171264187060E-003	1,000000000000000E+000	9,0307073E-004	42	-4,8259453E-006
2	0	0	1	0	4,862286387892102E+004	2,2882085E+000	2,2877636E+000	-3,184521964060348E-003	1,000000000000000E+000	8,4307569E-004	42	-7,2854336E-006
2	0	0	1	0	4,864507707896247E+004	2,2682166E+000	2,2677944E+000	-4,301081485542937E-003	1,000000000000000E+000	7,5852504E-004	42	-9,7539687E-006
2	0	0	1	0	4,866729007900378E+004	2,2482252E+000	2,2477820E+000	-5,487847497575520E-003	1,000000000000000E+000	6,4834498E-004	42	-1,2335485E-005
2	0	0	1	0	4,868950327904517E+004	2,2282333E+000	2,2278128E+000	-6,736409714777292E-003	1,000000000000000E+000	5,1129045E-004	42	-1,5007459E-005
2	0	0	1	0	4,871171647908655E+004	2,2082417E+000	2,2078676E+000	-8,041172738498664E-003	1,000000000000000E+000	3,4578767E-004	42	-1,7753844E-005
2	0	0	1	0	4,873392967912792E+004	2,1882496E+000	2,1878889E+000	-9,454691490532824E-003	1,000000000000000E+000	1,5001083E-004	42	-2,0685815E-005
2	0	0	1	0	4,875614287916932E+004	2,1682577E+000	2,1677694E+000	-1,096832278513194E-002	1,000000000000000E+000	-7,8996112E-005	41	-2,3776794E-005
2	0	0	1	0	4,877835597921064E+004	2,1482661E+000	2,1477792E+000	-1,256572013680085E-002	1,000000000000000E+000	-3,4177658E-004	41	-2,6988393E-005
2	0	0	1	0	4,880056907925208E+004	2,1282740E+000	2,1277957E+000	-1,428287430900024E-002	1,000000000000000E+000	-6,4132351E-004	41	-3,0391038E-005
2	0	0	1	0	4,882278217929340E+004	2,1082823E+000	2,1078000E+000	-1,611212692721337E-002	1,000000000000000E+000	-9,8039419E-004	41	-3,3961140E-005
2	0	0	1	0	4,884499537933478E+004	2,0882902E+000	2,0877988E+000	-1,809247133846603E-002	1,000000000000000E+000	-1,3616369E-003	41	-3,7773440E-005
2	0	0	1	0	4,886720857937611E+004	2,0682986E+000	2,0678115E+000	-2,021024561905377E-002	1,000000000000000E+000	-1,7886466E-003	41	-4,1790980E-005
2	0	0	1	0	4,888942167941753E+004	2,0483067E+000	2,0478296E+000	-2,251516569328960E-002	1,000000000000000E+000	-2,2647837E-003	41	-4,6107223E-005
2	0	0	1	0	4,891163487945904E+004	2,0283151E+000	2,0278354E+000	-2,498951507481340E-002	1,000000000000000E+000	-2,7938792E-003	41	-5,0674622E-005
2	0	0	1	0	4,893384797950028E+004	2,0083232E+000	2,0078232E+000	-2,766451872193776E-002	1,000000000000000E+000	-3,3805266E-003	41	-5,5545464E-005
2	0	0	1	0	4,895606127954170E+004	1,9883312E+000	1,9878606E+000	-3,057996204651174E-002	1,000000000000000E+000	-4,0290151E-003	41	-6,0788701E-005
2	0	0	1	0	4,897827447958302E+004	1,9683393E+000	1,9678552E+000	-3,373241999371990E-002	1,000000000000000E+000	-4,7449307E-003	41	-6,6380519E-005
2	0	0	1	0	4,900048757962440E+004	1,9483476E+000	1,9478666E+000	-3,715358584022227E-002	1,000000000000000E+000	-5,5334838E-003	41	-7,2370225E-005
2	0	0	1	0	4,902270077966573E+004	1,9283557E+000	1,9278818E+000	-4,090462433730069E-002	1,000000000000000E+000	-6,4016255E-003	41	-7,8859281E-005
2	0	0	1	0	4,904491397970715E+004	1,9083638E+000	1,9078969E+000	-4,498792828480207E-002	1,000000000000000E+000	-7,3567922E-003	41	-8,5832326E-005
2	0	0	1	0	4,906712717974850E+004	1,8883719E+000	1,8879328E+000	-4,947900024564821E-002	1,000000000000000E+000	-8,4074540E-003	41	-9,3413029E-005
2	0	0	1	0	4,908934027978990E+004	1,8683801E+000	1,8679063E+000	-5,443108611220793E-002	1,000000000000000E+000	-9,5624551E-003	41	-1,0167217E-004
2	0	0	1	0	4,911155347983132E+004	1,8483883E+000	1,8479427E+000	-5,979098334599303E-002	1,000000000000000E+000	-1,0831834E-002	41	-1,1049031E-004
2	0	0	1	0	4,913376657987264E+004	1,8283964E+000	1,8279688E+000	-6,570435043558698E-002	1,000000000000000E+000	-1,2226566E-002	41	-1,2010551E-004
2	0	0	1	0	4,915597977991402E+004	1,8084047E+000	1,8079798E+000	-7,221391015828288E-002	1,000000000000000E+000	-1,3759086E-002	41	-1,3056130E-004
2	0	0	1	0	4,917819297995535E+004	1,7884127E+000	1,7880121E+000	-7,931729352949840E-002	1,000000000000000E+000	-1,5442906E-002	41	-1,4182029E-004
2	0	0	1	0	4,920040607999677E+004	1,7684208E+000	1,7680041E+000	-8,709841877777708E-002	1,000000000000000E+000	-1,7292155E-002	41	-1,5399036E-004
2	0	0	1	0	4,922261918003822E+004	1,7484292E+000	1,7479978E+000	-9,558965822878363E-002	1,000000000000000E+000	-1,9321864E-002	41	-1,6709050E-004
2	0	0	1	0	4,924483238007952E+004	1,7284375E+000	1,7279319E+000	-1,050164549873865E-001	1,000000000000000E+000	-2,1550190E-002	40	-1,8146128E-004
2	0	0	1	0	4,926704558012087E+004	1,7084455E+000	1,7079662E+000	-1,149436611127744E-001	1,000000000000000E+000	-2,3993777E-002	40	-1,9631989E-004
2	0	0	1	0	4,928925868016225E+004	1,6884537E+000	1,6879742E+000	-1,255978588002269E-001	1,000000000000000E+000	-2,6666474E-002	40	-2,1200595E-004
2	0	0	1	0	4,931147198020364E+004	1,6684618E+000	1,6679718E+000	-1,370889384006904E-001	1,000000000000000E+000	-2,9585665E-002	40	-2,2866049E-004
2	0	0	1	0	4,933368508024502E+004	1,6484698E+000	1,6479506E+000	-1,493867725759914E-001	1,000000000000000E+000	-3,2769065E-002	40	-2,4618203E-004
2	0	0	1	0	4,935589828028639E+004	1,6284779E+000	1,6279551E+000	-1,624422634581886E-001	1,000000000000000E+000	-3,6233693E-002	40	-2,6444870E-004
2	0	0	1	0	4,937811138032773E+004	1,6084863E+000	1,6079760E+000	-1,762702162271332E-001	1,000000000000000E+000	-3,9996095E-002	40	-2,8343828E-004
2	0	0	1	0	4,940032458036911E+004	1,5884944E+000	1,5879693E+000	-1,911950510883047E-001	1,000000000000000E+000	-4,4077527E-002	40	-3,0361186E-004
2	0	0	1	0	4,942253778041049E+004	1,5685025E+000	1,5679895E+000	-2,073023198878390E-001	1,000000000000000E+000	-4,8503745E-002	40	-3,2504785E-004
2	0	0	1	0	4,944475098045182E+004	1,5485107E+000	1,5479987E+000	-2,249602807488799E-001	1,000000000000000E+000	-5,3304654E-002	40	-3,4823822E-004
2	0	0	1	0	4,946696418049326E+004	1,5285189E+000	1,5280025E+000	-2,444368966668531E-001	1,000000000000000E+000	-5,8517255E-002	40	-3,7350020E-004
2	0	0	1	0	4,948917728053464E+004	1,5085269E+000	1,5080081E+000	-2,662188477158431E-001	1,000000000000000E+000	-6,4186916E-002	40	-4,0146019E-004
2	0	0	1	0	4,951139038057602E+004	1,4885354E+000	1,4880843E+000	-2,904409504947545E-001	1,000000000000000E+000	-7,0367560E-002	40	-4,3220061E-004
2	0	0	1	0	4,953360358061746E+004	1,4685433E+000	1,4680430E+000	-3,179804646512838E-001	1,000000000000000E+000	-7,7121720E-002	40	-4,6680900E-004
2	0	0	1	0	4,955581678065873E+004	1,4485514E+000	1,4480898E+000	-3,491330040174514E-001	1,000000000000000E+000	-8,4526114E-002	40	-5,0557597E-004
2	0	0	1	0	4,957802998070011E+004	1,4285595E+000	1,4280853E+000	-3,849924574228734E-001	1,000000000000000E+000	-9,2674740E-002	40	-5,4980209E-004
2	0	0	1	0	4,960024318074144E+004	1,4085675E+000	1,4081056E+000	-4,250858590976376E-001	1,000000000000000E+000	-1,0166823E-001	40	-5,9856579E-004
2	0	0	1	0	4,962245628078288E+004	1,3885759E+000	1,3881037E+000	-4,680794091812475E-001	1,000000000000000E+000	-1,1158861E-001	40	-6,4974278E-004
2	0	0	1	0	4,964466938082420E+004	1,3685840E+000	1,3681303E+000	-5,122470929831207E-001	1,000000000000000E+000	-1,2247971E-001	40	-7,0082076E-004
2	0	0	1	0	4,966688258086563E+004	1,3485923E+000	1,3481512E+000	-5,551746846788692E-001	1,000000000000000E+000	-1,3434333E-001	40	-7,4845942E-004
2	0	0	1	0	4,968909578090697E+004	1,3286004E+000	1,3281536E+000	-5,954765240868323E-001	1,000000000000000E+000	-1,4713420E-001	40	-7,9088431E-004
2	0	0	1	0	4,971130898094835E+004	1,3086084E+000	1,3081959E+000	-6,308688662291164E-001	1,000000000000000E+000	-1,6076830E-001	40	-8,2530011E-004
2	0	0	1	0	4,973352218098973E+004	1,2886167E+000	1,2882099E+000	-6,602381815332787E-001	1,000000000000000E+000	-1,7512465E-001	40	-8,5052539E-004
2	0	0	1	0	4,975573528103111E+004	1,2686248E+000	1,2682317E+000	-6,830013833562898E-001	1,000000000000000E+000	-1,9006026E-001	40	-8,6620403E-004
2	0	0	1	0	4,977794838107249E+004	1,2486330E+000	1,2482337E+000	-6,987526649439140E-001	1,000000000000000E+000	-2,0542462E-001	40	-8,7220658E-004
2	0	0	1	0	4,980016158111382E+004	1,2286413E+000	1,2282326E+000	-7,075238658582137E-001	1,000000000000000E+000	-2,2105961E-001	40	-8,6900388E-004
2	0	0	1	0	4,982237478115525E+004	1,2086493E+000	1,2082702E+000	-7,096828998267188E-001	1,000000000000000E+000	-2,3681462E-001	40	-8,5748872E-004
2	0	0	1	0	4,984458798119670E+004	1,1886573E+000	1,1882553E+000	-7,059988299980926E-001	1,000000000000000E+000	-2,5255135E-001	40	-8,3890685E-004
2	0	0	1	0	4,986680108123799E+004	1,1686655E+000	1,1682827E+000	-6,973242474661685E-001	1,000000000000000E+000	-2,6814878E-001	40	-8,1467186E-004
2	0	0	1	0	4,988901418127934E+004	1,1486739E+000	1,1482490E+000	-6,841524097628993E-001	1,000000000000000E+000	-2,8350174E-001	40	-7,8557734E-004
2	0	0	1	0	4,991122738132073E+004	1,1286819E+000	1,1282929E+000	-6,678747682405506E-001	1,000000000000000E+000	-2,9852602E-001	40	-7,5355836E-004
2	0	0	1	0	4,993344058136211E+004	1,1086903E+000	1,1082755E+000	-6,491985791382024E-001	1,000000000000000E+000	-3,1315988E-001	40	-7,1949093E-004
2	0	0	1	0	4,995565378140344E+004	1,0886984E+000	1,0882715E+000	-6,294980617002928E-001	1,000000000000000E+000	-3,2736671E-001	40	-6,8506482E-004
2	0	0	1	0	4,997786688144488E+004	1,0687063E+000	1,0682541E+000	-6,092529536790181E-001	1,000000000000000E+000	-3,4112772E-001	40	-6,5083697E-004
2	0	0	1	0	5,000007998148631E+004	1,0487148E+000	1,0482457E+000	-5,894052028231105E-001	1,000000000000000E+000	-3,5444227E-001	40	-6,1784143E-004
2	0	0	1	0	5,002229318152760E+004	1,0287229E+000	1,0282706E+000	-5,704365654573635E-001	1,000000000000000E+000	-3,6732417E-001	40	-5,8656314E-004
2	0	0	1	0	5,004450638156896E+004	1,0087309E+000	1,0082384E+000	-5,527491520908914E-001	1,000000000000000E+000	-3,7979838E-001	40	-5,5730296E-004
2	0	0	1	0	5,006483218160689E+004	1,0095307E+000	1,0090450E+000	-4,916071514484841E-001	1,000000000000000E+000	-3,9060074E-001	40	-4,9605372E-004
2	0	0	1	0	5,008704538164823E+004	1,0295224E+000	1,0290388E+000	-4,158771281502816E-001	1,000000000000000E+000	-4,0062907E-001	40	-4,2795370E-004
2	0	0	1	0	5,010925848168961E+004	1,0495142E+000	1,0489978E+000	-3,582290692503565E-001	1,000000000000000E+000	-4,0919730E-001	40	-3,7578150E-004
2	0	0	1	0	5,013147158173099E+004	1,0695059E+000	1,0689973E+000	-3,117359706094920E-001	1,000000000000000E+000	-4,1661704E-001	40	-3,3324491E-004
2	0	0	1	0	5,015368478177232E+004	1,0894978E+000	1,0890163E+000	-2,733851711270350E-001	1,000000000000000E+000	-4,2309880E-001	40	-2,9772092E-004
2	0	0	1	0	5,017589798181376E+004	1,1094899E+000	1,1089977E+000	-2,410321400386866E-001	1,000000000000000E+000	-4,2879885E-001	40	-2,6730410E-004
2	0	0	1	0	5,019811108185514E+004	1,1294814E+000	1,1290011E+000	-2,131986150462986E-001	1,000000000000000E+000	-4,3383342E-001	40	-2,4070148E-004
2	0	0	1	0	5,022032428189649E+004	1,1494734E+000	1,1489459E+000	-1,889932201643560E-001	1,000000000000000E+000	-4,3829149E-001	40	-2,1714300E-004
2	0	0	1	0	5,024253738193784E+004	1,1694653E+000	1,1689653E+000	-1,676974762349566E-001	1,000000000000000E+000	-4,4224522E-001	40	-1,9603253E-004
2	0	0	1	0	5,026475058197923E+004	1,1894572E+000	1,1889406E+000	-1,490017544905995E-001	1,000000000000000E+000	-4,4575617E-001	40	-1,7715424E-004
2	0	0	1	0	5,028696378202061E+004	1,2094489E+000	1,2089286E+000	-1,323005868460791E-001	1,000000000000000E+000	-4,4887471E-001	40	-1,5994196E-004
2	0	0	1	0	5,030917698206194E+004	1,2294408E+000	1,2289212E+000	-1,171037249843483E-001	1,000000000000000E+000	-4,5163959E-001	40	-1,4391125E-004
2	0	0	1	0	5,033139018210338E+004	1,2494327E+000	1,2488999E+000	-1,033044436535748E-001	1,000000000000000E+000	-4,5408249E-001	40	-1,2901692E-004
2	0	0	1	0	5,035360338214482E+004	1,2694244E+000	1,2688808E+000	-9,058532005004738E-002	1,000000000000000E+000	-4,5623201E-001	40	-1,1494198E-004
2	0	0	1	0	5,037581658218610E+004	1,2894162E+000	1,2888982E+000	-7,882145429957621E-002	1,000000000000000E+000	-4,5810959E-001	40	-1,0159284E-004
2	0	0	1	0	5,039802978222747E+004	1,3094082E+000	1,3088753E+000	-6,786900682278518E-002	1,000000000000000E+000	-4,5973527E-001	40	-8,8832065E-005
2	0	0	1	0	5,042024288226885E+004	1,3293999E+000	1,3288766E+000	-5,746061718506442E-002	1,000000000000000E+000	-4,6112388E-001	40	-7,6358068E-005
2	0	0	1	0	5,044245598231023E+004	1,3493919E+000	1,3489093E+000	-4,743250300118829E-002	1,000000000000000E+000	-4,6228677E-001	41	-6,3982145E-005
2	0	0	1	0	5,046466918235156E+004	1,3693838E+000	1,3689011E+000	-3,786437643998541E-002	1,000000000000000E+000	-4,6323141E-001	41	-5,1832587E-005
2	0	0	1	0	5,048688238239300E+004	1,3893756E+000	1,3888813E+000	-2,849824478710500E-002	1,000000000000000E+000	-4,6396628E-001	41	-3,9580678E-005
2	0	0	1	0	5,050909558243444E+004	1,4093674E+000	1,4088531E+000	-1,919437533778381E-002	1,000000000000000E+000	-4,6449387E-001	41	-2,7042055E-005
2	0	0	1	0	5,053130878247572E+004	1,4293593E+000	1,4288262E+000	-9,691490593365951E-003	1,000000000000000E+000	-4,6481273E-001	41	-1,3847456E-005
2	0	0	1	0	5,055363318251731E+004	1,4494511E+000	1,4489213E+000	6,338783603001327E-005	1,000000000000000E+000	-4,6491790E-001	43	9,1843987E-008
2	1	0	1	0	5,057584628255875E+004	1,4694430E+000	1,4688959E+000	1,026229714233085E-002	1,000000000000000E+000	-4,6480447E-001	41	1,5074246E-005
2	1	0	1	0	5,059805938260007E+004	1,4894348E+000	1,4888602E+000	2,080257123631002E-002	1,000000000000000E+000	-4,6445891E-001	41	3,0972122E-005
2	1	0	1	0	5,062027258264145E+004	1,5094266E+000	1,5088282E+000	3,204942676754352E-002	1,000000000000000E+000	-4,6387082E-001	41	4,8357077E-005
2	1	0	1	0	5,064248578268278E+004	1,5294186E+000	1,5287998E+000	4,410770845091122E-002	1,000000000000000E+000	-4,6302423E-001	41	6,7431858E-005
2	1	0	1	0	5,066469888272422E+004	1,5494102E+000	1,5487736E+000	5,733579777729977E-002	1,000000000000000E+000	-4,6189710E-001	41	8,8800174E-005
2	1	0	1	0	5,068691208276572E+004	1,5694020E+000	1,5687894E+000	7,230899394476870E-002	1,000000000000000E+000	-4,6045843E-001	41	1,1343758E-004
2	1	0	1	0	5,070912518280694E+004	1,5893940E+000	1,5887414E+000	8,935080343356872E-002	1,000000000000000E+000	-4,5866397E-001	41	1,4195532E-004
2	1	0	1	0	5,073133838284831E+004	1,6093857E+000	1,6088386E+000	1,093494965176893E-001	1,000000000000000E+000	-4,5646179E-001	40	1,7592568E-004
2	1	0	1	0	5,075355178288964E+004	1,6293776E+000	1,6287824E+000	1,357557257373179E-001	1,000000000000000E+000	-4,5375419E-001	40	2,2111654E-004
2	1	0	1	0	5,077576488293108E+004	1,6493695E+000	1,6487939E+000	1,726503833876396E-001	1,000000000000000E+000	-4,5034266E-001	40	2,8466491E-004
2	1	0	1	0	5,079797808297246E+004	1,6693615E+000	1,6687733E+000	2,160331521827619E-001	1,000000000000000E+000	-4,4603035E-001	40	3,6051034E-004
2	1	0	1	0	5,082019128301383E+004	1,6893532E+000	1,6887622E+000	2,626314502798657E-001	1,000000000000000E+000	-4,4071448E-001	40	4,4352206E-004
2	1	0	1	0	5,084240438305517E+004	1,7093450E+000	1,7087547E+000	3,112755133604916E-001	1,000000000000000E+000	-4,3434018E-001	40	5,3189346E-004
2	1	0	1	0	5,086461758309655E+004	1,7293370E+000	1,7287458E+000	3,616114897652301E-001	1,000000000000000E+000	-4,2686626E-001	40	6,2513433E-004
2	1	0	1	0	5,088683078313794E+004	1,7493289E+000	1,7487241E+000	4,136474109278987E-001	1,000000000000000E+000	-4,1825426E-001	40	7,2335522E-004
2	1	0	1	0	5,090904398317926E+004	1,7693207E+000	1,7687041E+000	4,665316614996329E-001	1,000000000000000E+000	-4,0847602E-001	40	8,2515646E-004
2	1	0	1	0	5,093125708322070E+004	1,7893122E+000	1,7887025E+000	5,198438861285597E-001	1,000000000000000E+000	-3,9751688E-001	40	9,2984608E-004
2	1	0	1	0	5,095347038326203E+004	1,8093044E+000	1,8086580E+000	5,726890157755680E-001	1,000000000000000E+000	-3,8537571E-001	40	1,0357986E-003
2	1	0	1	0	5,097568358330344E+004	1,8292964E+000	1,8286699E+000	6,243525951843409E-001	1,000000000000000E+000	-3,7207195E-001	40	1,1417348E-003
2	1	0	1	0	5,099789678334480E+004	1,8492881E+000	1,8486549E+000	6,739135020513274E-001	1,000000000000000E+000	-3,5764301E-001	40	1,2458335E-003
2	1	0	1	0	5,102010988338618E+004	1,8692799E+000	1,8686216E+000	7,207940639077428E-001	1,000000000000000E+000	-3,4214067E-001	40	1,3468914E-003
2	1	0	1	0	5,104232308342762E+004	1,8892716E+000	1,8886553E+000	7,634345458929133E-001	1,000000000000000E+000	-3,2564241E-001	40	1,4418648E-003
2	1	0	1	0	5,106453618346888E+004	1,9092635E+000	1,9086484E+000	8,009655621920091E-001	1,000000000000000E+000	-3,0825227E-001	40	1,5287616E-003
2	1	0	1	0	5,108674938351032E+004	1,9292551E+000	1,9286609E+000	8,314033098259639E-001	1,000000000000000E+000	-2,9010311E-001	40	1,6034950E-003
2	1	0	1	0	5,110896258355165E+004	1,9492472E+000	1,9486450E+000	8,535951061384601E-001	1,000000000000000E+000	-2,7136937E-001	40	1,6633539E-003
2	1	0	1	0	5,113117568359306E+004	1,9692389E+000	1,9686106E+000	8,668184753509642E-001	1,000000000000000E+000	-2,5223982E-001	40	1,7064281E-003
2	1	0	1	0	5,115338898363442E+004	1,9892311E+000	1,9886268E+000	8,698999591250267E-001	1,000000000000000E+000	-2,3292650E-001	40	1,7299064E-003
2	1	0	1	0	5,117560228367581E+004	2,0092227E+000	2,0086226E+000	8,613831611851470E-001	1,000000000000000E+000	-2,1367182E-001	40	1,7301937E-003
2	1	0	1	0	5,119781548371719E+004	2,0292146E+000	2,0286262E+000	8,406759799171031E-001	1,000000000000000E+000	-1,9473977E-001	40	1,7054173E-003
2	1	0	1	0	5,122002848375856E+004	2,0492063E+000	2,0485768E+000	8,064735795039475E-001	1,000000000000000E+000	-1,7641957E-001	40	1,6521231E-003
2	1	0	1	0	5,124224168379995E+004	2,0691981E+000	2,0685973E+000	7,595751936568611E-001	1,000000000000000E+000	-1,5900257E-001	40	1,5712552E-003
2	1	0	1	0	5,126445488384133E+004	2,0891898E+000	2,0885878E+000	7,013165044142031E-001	1,000000000000000E+000	-1,4275822E-001	40	1,4647611E-003
2	1	0	1	0	5,128666808388268E+004	2,1091816E+000	2,1085997E+000	6,351637631257177E-001	1,000000000000000E+000	-1,2790319E-001	40	1,3393061E-003
2	1	0	1	0	5,130888128392410E+004	2,1291738E+000	2,1285653E+000	5,657748070506656E-001	1,000000000000000E+000	-1,1456189E-001	40	1,2042887E-003
2	1	0	1	0	5,133109448396543E+004	2,1491656E+000	2,1485815E+000	4,977086007740565E-001	1,000000000000000E+000	-1,0275517E-001	40	1,0693675E-003
2	1	0	1	0	5,135330778400681E+004	2,1691577E+000	2,1685674E+000	4,343099487532980E-001	1,000000000000000E+000	-9,2414103E-002	40	9,4183040E-004
2	1	0	1	0	5,137552098404826E+004	2,1891496E+000	2,1885896E+000	3,776388811329525E-001	1,000000000000000E+000	-8,3408386E-002	40	8,2649651E-004
2	1	0	1	0	5,139773408408958E+004	2,2091413E+000	2,2085688E+000	3,285969232778609E-001	1,000000000000000E+000	-7,5577095E-002	40	7,2572893E-004
2	1	0	1	0	5,141994728413108E+004	2,2291329E+000	2,2285974E+000	2,867140918768900E-001	1,000000000000000E+000	-6,8755552E-002	40	6,3897029E-004
2	1	0	1	0	5,144216048417229E+004	2,2491248E+000	2,2485883E+000	2,513436829582059E-001	1,000000000000000E+000	-6,2790453E-002	40	5,6516845E-004
2	1	0	1	0	5,146437348421372E+004	2,2691164E+000	2,2685838E+000	2,217628358658097E-001	1,000000000000000E+000	-5,7544421E-002	40	5,0308759E-004
2	1	0	1	0	5,148658668425505E+004	2,2891083E+000	2,2885652E+000	1,972281304579637E-001	1,000000000000000E+000	-5,2897561E-002	40	4,5136941E-004
2	1	0	1	0	5,150879988429643E+004	2,3091002E+000	2,3085837E+000	1,767591245089547E-001	1,000000000000000E+000	-4,8749510E-002	40	4,0806324E-004
2	1	0	1	0	5,153101308433793E+004	2,3290923E+000	2,3285625E+000	1,597105231869851E-001	1,000000000000000E+000	-4,5016669E-002	40	3,7189593E-004
2	1	0	1	0	5,155322638437919E+004	2,3490841E+000	2,3485689E+000	1,451630061335565E-001	1,000000000000000E+000	-4,1632600E-002	40	3,4092533E-004
2	1	0	1	0	5,157543958442064E+004	2,3690758E+000	2,3685424E+000	1,328681641087992E-001	1,000000000000000E+000	-3,8546991E-002	40	3,1470388E-004
2	1	0	1	0	5,159765268446191E+004	2,3890679E+000	2,3885567E+000	1,222525302888308E-001	1,000000000000000E+000	-3,5714492E-002	40	2,9200711E-004
2	1	0	1	0	5,161986588450335E+004	2,4090595E+000	2,4085586E+000	1,133150116824941E-001	1,000000000000000E+000	-3,3099838E-002	40	2,7292586E-004
2	1	0	1	0	5,164207908454479E+004	2,4290512E+000	2,4285290E+000	1,055608590025312E-001	1,000000000000000E+000	-3,0668486E-002	40	2,5635760E-004
2	1	0	1	0	5,166429228458606E+004	2,4490433E+000	2,4484954E+000	9,868462528570654E-002	1,000000000000000E+000	-2,8399305E-002	40	2,4162885E-004
2	1	0	1	0	5,168650528462755E+004	2,4690349E+000	2,4685185E+000	9,276059148628679E-002	1,000000000000000E+000	-2,6272962E-002	40	2,2898124E-004
2	1	0	1	0	5,170871848466882E+004	2,4890268E+000	2,4885094E+000	8,757125140968358E-002	1,000000000000000E+000	-2,4270570E-002	40	2,1792189E-004
2	1	0	1	0	5,173093168471020E+004	2,5090187E+000	2,5085192E+000	8,287589945211971E-002	1,000000000000000E+000	-2,2376621E-002	40	2,0789578E-004
2	1	0	1	0	5,175314498475168E+004	2,5290105E+000	2,5284932E+000	7,873470346236396E-002	1,000000000000000E+000	-2,0580741E-002	40	1,9908015E-004
2	1	0	1	0	5,177535818479292E+004	2,5490024E+000	2,5484998E+000	7,503155557902647E-002	1,000000000000000E+000	-1,8871663E-002	40	1,9121790E-004
2	1	0	1	0	5,179757138483436E+004	2,5689945E+000	2,5684910E+000	7,188386478006459E-002	1,000000000000000E+000	-1,7238613E-002	40	1,8463306E-004
2	1	0	1	0	5,181978448487568E+004	2,5889859E+000	2,5884974E+000	6,919817155498698E-002	1,000000000000000E+000	-1,5670666E-002	40	1,7911929E-004
2	1	0	1	0	5,184199768491718E+004	2,6089780E+000	2,6084616E+000	6,664423072641590E-002	1,000000000000000E+000	-1,4160153E-002	40	1,7383891E-004
2	1	0	1	0	5,186421088495854E+004	2,6289699E+000	2,6284862E+000	6,450188921283731E-002	1,000000000000000E+000	-1,2701495E-002	40	1,6954233E-004
2	1	0	1	0	5,188642388499994E+004	2,6489615E+000	2,6484525E+000	6,265512490089242E-002	1,000000000000000E+000	-1,1287333E-002	40	1,6593913E-004
2	1	0	1	0	5,190863708504129E+004	2,6689534E+000	2,6684768E+000	6,080167217095489E-002	1,000000000000000E+000	-9,9147074E-003	40	1,6224786E-004
2	1	0	1	0	5,193085028508259E+004	2,6889453E+000	2,6884594E+000	5,904790525639059E-002	1,000000000000000E+000	-8,5819764E-003	40	1,5874789E-004
2	1	0	1	1	5,195150878512108E+004	2,6924438E+000	2,6919193E+000	4,736712592348269E-002	1,000000000000000E+000	-7,4360399E-003	41	1,2750848E-004
2	1	0	1	1	5,197372198516247E+004	2,6724520E+000	2,6719239E+000	3,803206101559664E-002	1,000000000000000E+000	-6,4988872E-003	41	1,0161877E-004
2	1	0	1	1	5,199593518520379E+004	2,6524603E+000	2,6519473E+000	3,178677781873507E-002	1,000000000000000E+000	-5,7289777E-003	41	8,4296858E-005
2	1	0	1	1	5,201814838524522E+004	2,6324685E+000	2,6319640E+000	2,697473527621141E-002	1,000000000000000E+000	-5,0802985E-003	41	7,0996532E-005
2	1	0	1	1	5,204036148528662E+004	2,6124763E+000	2,6119509E+000	2,308453220840839E-002	1,000000000000000E+000	-4,5275851E-003	41	6,0295664E-005
2	1	0	1	1	5,206257468532794E+004	2,5924845E+000	2,5919771E+000	1,991423969886208E-002	1,000000000000000E+000	-4,0529077E-003	41	5,1617255E-005
2	1	0	1	1	5,208478788536938E+004	2,5724926E+000	2,5719559E+000	1,720546108666432E-002	1,000000000000000E+000	-3,6437968E-003	41	4,4251687E-005
2	1	0	1	1	5,210700108541071E+004	2,5525010E+000	2,5519731E+000	1,491110549910468E-002	1,000000000000000E+000	-3,2895254E-003	41	3,8052742E-005
2	1	0	1	1	5,212921408545208E+004	2,5325091E+000	2,5319760E+000	1,288372625356876E-002	1,000000000000000E+000	-2,9835394E-003	41	3,2621287E-005
2	1	0	1	1	5,214965028549032E+004	2,5141163E+000	2,5136251E+000	1,122513406373628E-002	2,000000000000000E+000	-2,7392060E-003	41	2,8215780E-005
2	1	0	1	1	5,217186348553156E+004	2,4941247E+000	2,4936142E+000	9,597984602132820E-003	2,000000000000000E+000	-2,5103032E-003	41	2,3933671E-005
2	1	0	1	1	5,219407668557297E+004	2,4741328E+000	2,4736257E+000	8,115975820195243E-003	2,000000000000000E+000	-2,3158949E-003	41	2,0075886E-005
2	1	0	1	1	5,221628968561429E+004	2,4541414E+000	2,4536381E+000	6,758247622161415E-003	2,000000000000000E+000	-2,1529617E-003	41	1,6582293E-005
2	1	0	1	1	5,223850288565573E+004	2,4341493E+000	2,4336596E+000	5,457288925947684E-003	2,000000000000000E+000	-2,0193863E-003	41	1,3281184E-005
2	1	0	1	1	5,226071608569706E+004	2,4141574E+000	2,4136057E+000	4,266400326492430E-003	2,000000000000000E+000	-1,9132076E-003	42	1,0297408E-005
2	1	0	1	1	5,228292928573844E+004	2,3941655E+000	2,3936307E+000	3,137099718743944E-003	2,000000000000000E+000	-1,8327946E-003	42	7,5090584E-006
2	1	0	1	1	5,230514238577988E+004	2,3741736E+000	2,3736465E+000	2,030846762241280E-003	2,000000000000000E+000	-1,7774123E-003	42	4,8205125E-006
2	1	0	1	1	5,232735558582118E+004	2,3541818E+000	2,3536520E+000	9,181081494393601E-004	2,000000000000000E+000	-1,7465537E-003	42	2,1609071E-006
2	0	0	1	1	5,234967958586277E+004	2,3340902E+000	2,3336225E+000	-1,762139837667327E-004	2,000000000000000E+000	-1,7398341E-003	43	-4,1121692E-007
2	0	0	1	1	5,237189278590411E+004	2,3140984E+000	2,3136206E+000	-1,309008498547926E-003	2,000000000000000E+000	-1,7579797E-003	42	-3,0285489E-006
2	0	0	1	1	5,239410598594550E+004	2,2941067E+000	2,2936277E+000	-2,459369481402164E-003	2,000000000000000E+000	-1,8011940E-003	42	-5,6408780E-006
2	0	0	1	1	5,241631918598688E+004	2,2741146E+000	2,2736523E+000	-3,632707774135890E-003	2,000000000000000E+000	-1,8705387E-003	42	-8,2595143E-006
2	0	0	1	1	5,243853238602821E+004	2,2541227E+000	2,2536728E+000	-4,879233478134806E-003	2,000000000000000E+000	-1,9666932E-003	42	-1,0996196E-005
2	0	0	1	1	5,246074558606965E+004	2,2341311E+000	2,2337167E+000	-6,178995483155612E-003	2,000000000000000E+000	-2,0911437E-003	42	-1,3802126E-005
2	0	0	1	1	5,248295878611109E+004	2,2141387E+000	2,2137363E+000	-7,534821049782315E-003	2,000000000000000E+000	-2,2454928E-003	42	-1,6680107E-005
2	0	0	1	1	5,250517188615239E+004	2,1941471E+000	2,1937408E+000	-9,024957118935945E-003	2,000000000000000E+000	-2,4312155E-003	42	-1,9798417E-005
2	0	0	1	1	5,252738508619380E+004	2,1741552E+000	2,1736188E+000	-1,062662328207908E-002	2,000000000000000E+000	-2,6515513E-003	41	-2,3098228E-005
2	0	0	1	1	5,254959808623514E+004	2,1541634E+000	2,1536622E+000	-1,222685557602898E-002	2,000000000000000E+000	-2,9067199E-003	41	-2,6332516E-005
2	0	0	1	1	5,257181118627649E+004	2,1341720E+000	2,1336365E+000	-1,403255944252449E-002	2,000000000000000E+000	-3,2000996E-003	41	-2,9940380E-005
2	0	0	1	1	5,259402438631788E+004	2,1141798E+000	2,1136992E+000	-1,589987084896327E-002	2,000000000000000E+000	-3,5342553E-003	41	-3,3607543E-005
2	0	0	1	1	5,261623748635926E+004	2,0941882E+000	2,0937092E+000	-1,797245970986136E-002	2,000000000000000E+000	-3,9119828E-003	41	-3,7629106E-005
2	0	0	1	1	5,263845068640064E+004	2,0741961E+000	2,0737302E+000	-2,015976500001126E-002	2,000000000000000E+000	-4,3369452E-003	41	-4,1805913E-005
2	0	0	1	1	5,266066388644201E+004	2,0542042E+000	2,0537279E+000	-2,252608828438424E-002	2,000000000000000E+000	-4,8125964E-003	41	-4,6262456E-005
2	0	0	1	1	5,268287708648341E+004	2,0342124E+000	2,0337231E+000	-2,506324377361674E-002	2,000000000000000E+000	-5,3428765E-003	41	-5,0971699E-005
2	0	0	1	1	5,270509028652476E+004	2,0142205E+000	2,0137432E+000	-2,784803041307088E-002	2,000000000000000E+000	-5,9320354E-003	41	-5,6078781E-005
2	0	0	1	1	5,272730338656611E+004	1,9942290E+000	1,9937629E+000	-3,082117588074559E-002	2,000000000000000E+000	-6,5850164E-003	41	-6,1450119E-005
2	0	0	1	1	5,274951658660750E+004	1,9742371E+000	1,9737468E+000	-3,407666516696756E-002	2,000000000000000E+000	-7,3073190E-003	41	-6,7258705E-005
2	0	0	1	1	5,277172978664888E+004	1,9542453E+000	1,9537752E+000	-3,758871597463490E-002	2,000000000000000E+000	-8,1047732E-003	41	-7,3439900E-005
2	0	0	1	1	5,279394298669021E+004	1,9342532E+000	1,9337794E+000	-4,141758726822700E-002	2,000000000000000E+000	-8,9836959E-003	41	-8,0092475E-005
2	0	0	1	1	5,281615618673163E+004	1,9142615E+000	1,9137894E+000	-4,562922374789558E-002	2,000000000000000E+000	-9,9518346E-003	41	-8,7324726E-005
2	0	0	1	1	5,283836928677303E+004	1,8942695E+000	1,8938241E+000	-5,022574080992903E-002	2,000000000000000E+000	-1,1017799E-002	41	-9,5118718E-005
2	0	0	1	1	5,286058238681438E+004	1,8742778E+000	1,8738092E+000	-5,529805837383439E-002	2,000000000000000E+000	-1,2191341E-002	41	-1,0361801E-004
2	0	0	1	1	5,288279558685573E+004	1,8542860E+000	1,8538311E+000	-6,077877662364251E-002	2,000000000000000E+000	-1,3482177E-002	41	-1,1267358E-004
2	0	0	1	1	5,290500878689712E+004	1,8342941E+000	1,8338289E+000	-6,681162787862216E-002	2,000000000000000E+000	-1,4900846E-002	41	-1,2252110E-004
2	0	0	1	1	5,292722198693850E+004	1,8143023E+000	1,8138716E+000	-7,339870790056846E-002	2,000000000000000E+000	-1,6459508E-002	41	-1,3313584E-004
2	0	0	1	1	5,294943508697988E+004	1,7943105E+000	1,7938843E+000	-8,068871615288886E-002	2,000000000000000E+000	-1,8172165E-002	41	-1,4474621E-004
2	0	0	1	1	5,297164828702126E+004	1,7743186E+000	1,7739017E+000	-8,861156296969530E-002	2,000000000000000E+000	-2,0053392E-002	41	-1,5718820E-004
2	0	0	1	1	5,299386148706265E+004	1,7543267E+000	1,7539316E+000	-9,726027884143251E-002	2,000000000000000E+000	-2,2118943E-002	41	-1,7058788E-004
2	0	0	1	1	5,301607458710397E+004	1,7343349E+000	1,7338246E+000	-1,067852519239622E-001	2,000000000000000E+000	-2,4386492E-002	40	-1,8514690E-004
2	0	0	1	1	5,303828778714535E+004	1,7143430E+000	1,7138393E+000	-1,169114157436622E-001	2,000000000000000E+000	-2,6871881E-002	40	-2,0036737E-004
2	0	0	1	1	5,306050098718668E+004	1,6943511E+000	1,6938199E+000	-1,278235112548090E-001	2,000000000000000E+000	-2,9590702E-002	40	-2,1651000E-004
2	0	0	1	1	5,308271418722812E+004	1,6743593E+000	1,6738182E+000	-1,395389721050463E-001	2,000000000000000E+000	-3,2560878E-002	40	-2,3356288E-004
2	0	0	1	1	5,310492738726945E+004	1,6543676E+000	1,6538314E+000	-1,519235160877233E-001	2,000000000000000E+000	-3,5798833E-002	40	-2,5125587E-004
2	0	0	1	1	5,312714058731086E+004	1,6343757E+000	1,6338433E+000	-1,652762144567486E-001	2,000000000000000E+000	-3,9323334E-002	40	-2,7003544E-004
2	0	0	1	1	5,314935368735238E+004	1,6143838E+000	1,6138639E+000	-1,795283812070863E-001	2,000000000000000E+000	-4,3152932E-002	40	-2,8973439E-004
2	0	0	1	1	5,317156678739359E+004	1,5943919E+000	1,5938408E+000	-1,948228548869984E-001	2,000000000000000E+000	-4,7311667E-002	40	-3,1051663E-004
2	0	0	1	1	5,319377998743497E+004	1,5744001E+000	1,5738807E+000	-2,112463275455377E-001	2,000000000000000E+000	-5,1821310E-002	40	-3,3247651E-004
2	0	0	1	1	5,321599318747630E+004	1,5544081E+000	1,5538759E+000	-2,292640246197706E-001	2,000000000000000E+000	-5,6714512E-002	40	-3,5624785E-004
2	0	0	1	1	5,323820638751774E+004	1,5344163E+000	1,5338949E+000	-2,492383366530255E-001	2,000000000000000E+000	-6,2028233E-002	40	-3,8230541E-004
2	0	0	1	1	5,326041948755912E+004	1,5144244E+000	1,5139357E+000	-2,716025552621337E-001	2,000000000000000E+000	-6,7811221E-002	40	-4,1118881E-004
2	0	0	1	1	5,328263258760048E+004	1,4944329E+000	1,4939363E+000	-2,968135128880860E-001	2,000000000000000E+000	-7,4123517E-002	40	-4,4342049E-004
2	0	0	1	1	5,330484578764183E+004	1,4744409E+000	1,4739456E+000	-3,251578800867842E-001	2,000000000000000E+000	-8,1028283E-002	40	-4,7926503E-004
2	0	0	1	1	5,332705898768321E+004	1,4544491E+000	1,4539376E+000	-3,575595388213628E-001	2,000000000000000E+000	-8,8605970E-002	40	-5,1986927E-004
2	0	0	1	1	5,334927208772465E+004	1,4344573E+000	1,4339477E+000	-3,947433626993124E-001	2,000000000000000E+000	-9,6955650E-002	40	-5,6604133E-004
2	0	0	1	1	5,337148528776597E+004	1,4144652E+000	1,4140122E+000	-4,367124839904868E-001	2,000000000000000E+000	-1,0618608E-001	40	-6,1751675E-004
2	0	0	1	1	5,339369838780735E+004	1,3944736E+000	1,3939939E+000	-4,820358430585159E-001	2,000000000000000E+000	-1,1638927E-001	40	-6,7195500E-004
2	0	0	1	1	5,341591158784868E+004	1,3744817E+000	1,3740150E+000	-5,283446524277586E-001	2,000000000000000E+000	-1,2761438E-001	40	-7,2595349E-004
2	0	0	1	1	5,343812478789010E+004	1,3544898E+000	1,3540063E+000	-5,735079037604977E-001	2,000000000000000E+000	-1,3986072E-001	40	-7,7653333E-004
2	0	0	1	1	5,346033798793156E+004	1,3344979E+000	1,3340650E+000	-6,150368535715920E-001	2,000000000000000E+000	-1,5307498E-001	40	-8,2049909E-004
2	0	0	1	1	5,348255118797283E+004	1,3145062E+000	1,3140571E+000	-6,513730017963031E-001	2,000000000000000E+000	-1,6715674E-001	40	-8,5594133E-004
2	0	0	1	1	5,350476428801427E+004	1,2945142E+000	1,2940717E+000	-6,811911245887501E-001	2,000000000000000E+000	-1,8197361E-001	40	-8,8151015E-004
2	0	0	1	1	5,352697748805559E+004	1,2745224E+000	1,2740864E+000	-7,038456166990714E-001	2,000000000000000E+000	-1,9737434E-001	40	-8,9676009E-004
2	0	0	1	1	5,354919058809697E+004	1,2545308E+000	1,2541130E+000	-7,184999959059599E-001	2,000000000000000E+000	-2,1318984E-001	40	-9,0108014E-004
2	0	0	1	1	5,357140378813830E+004	1,2345388E+000	1,2341294E+000	-7,257330486744928E-001	2,000000000000000E+000	-2,2924648E-001	40	-8,9564850E-004
2	0	0	1	1	5,359361698817973E+004	1,2145469E+000	1,2141668E+000	-7,258565393168752E-001	2,000000000000000E+000	-2,4538355E-001	40	-8,8131090E-004
2	0	0	1	1	5,361583018822107E+004	1,1945550E+000	1,1941493E+000	-7,201189534085630E-001	2,000000000000000E+000	-2,6145718E-001	40	-8,5992954E-004
2	0	0	1	1	5,363804328826244E+004	1,1745632E+000	1,1741840E+000	-7,090023235651923E-001	2,000000000000000E+000	-2,7734256E-001	40	-8,3249918E-004
2	0	0	1	1	5,366025638830382E+004	1,1545714E+000	1,1541702E+000	-6,940507726281115E-001	2,000000000000000E+000	-2,9293466E-001	40	-8,0105267E-004
2	0	0	1	1	5,368246958834521E+004	1,1345795E+000	1,1341646E+000	-6,758092088525873E-001	2,000000000000000E+000	-3,0815756E-001	40	-7,6647889E-004
2	0	0	1	1	5,370468278838659E+004	1,1145878E+000	1,1141676E+000	-6,559367646356531E-001	2,000000000000000E+000	-3,2295498E-001	40	-7,3082349E-004
2	0	0	1	1	5,372689598842803E+004	1,0945959E+000	1,0941621E+000	-6,348306509414512E-001	2,000000000000000E+000	-3,3729634E-001	40	-6,9460762E-004
2	0	0	1	1	5,374910918846935E+004	1,0746042E+000	1,0741491E+000	-6,133205477831751E-001	2,000000000000000E+000	-3,5116383E-001	40	-6,5879774E-004
2	0	0	1	1	5,377132228851086E+004	1,0546120E+000	1,0541592E+000	-5,924191503802416E-001	2,000000000000000E+000	-3,6455703E-001	40	-6,2450406E-004
2	0	0	1	1	5,379353548855209E+004	1,0346203E+000	1,0341501E+000	-5,726151821768717E-001	2,000000000000000E+000	-3,7749735E-001	40	-5,9217005E-004
2	0	0	1	1	5,381574858859344E+004	1,0146285E+000	1,0141420E+000	-5,541258389350365E-001	2,000000000000000E+000	-3,9001203E-001	40	-5,6196231E-004
2	0	0	1	1	5,383596318863111E+004	1,0035331E+000	1,0030259E+000	-5,168310770964055E-001	2,000000000000000E+000	-4,0100795E-001	40	-5,1839493E-004
2	0	0	1	1	5,385817628867249E+004	1,0235249E+000	1,0230237E+000	-4,310182391393389E-001	2,000000000000000E+000	-4,1146076E-001	40	-4,4094189E-004
2	0	0	1	1	5,388038948871393E+004	1,0435165E+000	1,0430077E+000	-3,688156831524294E-001	2,000000000000000E+000	-4,2031002E-001	40	-3,8467761E-004
2	0	0	1	1	5,390260258875520E+004	1,0635085E+000	1,0630063E+000	-3,193784421969394E-001	2,000000000000000E+000	-4,2793036E-001	40	-3,3950130E-004
2	0	0	1	1	5,392481578879664E+004	1,0835004E+000	1,0829822E+000	-2,787493126522964E-001	2,000000000000000E+000	-4,3455508E-001	40	-3,0188053E-004
2	0	0	1	1	5,394702898883796E+004	1,1034923E+000	1,1029575E+000	-2,446845097391086E-001	2,000000000000000E+000	-4,4035414E-001	40	-2,6987662E-004
2	0	0	1	1	5,396924208887938E+004	1,1234840E+000	1,1229434E+000	-2,155696834232530E-001	2,000000000000000E+000	-4,4545382E-001	40	-2,4207255E-004
2	0	0	1	1	5,399145518892084E+004	1,1434759E+000	1,1429752E+000	-1,903657154247965E-001	2,000000000000000E+000	-4,4995245E-001	40	-2,1758329E-004
2	0	0	1	1	5,401366838896211E+004	1,1634676E+000	1,1629469E+000	-1,684710357990324E-001	2,000000000000000E+000	-4,5392936E-001	40	-1,9592287E-004
2	0	0	1	1	5,403588158900349E+004	1,1834596E+000	1,1829106E+000	-1,491759198816531E-001	2,000000000000000E+000	-4,5745018E-001	40	-1,7646178E-004
2	0	0	1	1	5,405809478904482E+004	1,2034514E+000	1,2029103E+000	-1,318776652088438E-001	2,000000000000000E+000	-4,6056518E-001	40	-1,5863701E-004
2	0	0	1	1	5,408030798908626E+004	1,2234434E+000	1,2228854E+000	-1,163807773029140E-001	2,000000000000000E+000	-4,6331674E-001	40	-1,4232035E-004
2	0	0	1	1	5,410252108912775E+004	1,2434351E+000	1,2428755E+000	-1,022617069871584E-001	2,000000000000000E+000	-4,6573955E-001	40	-1,2709857E-004
2	0	0	1	1	5,412473428916900E+004	1,2634270E+000	1,2628598E+000	-8,939093080180127E-002	2,000000000000000E+000	-4,6786368E-001	40	-1,1288821E-004
2	0	0	1	1	5,414694758921035E+004	1,2834188E+000	1,2828621E+000	-7,746480487917351E-002	2,000000000000000E+000	-4,6971259E-001	40	-9,9376659E-005
2	0	0	1	1	5,416916068925173E+004	1,3034106E+000	1,3028461E+000	-6,634385612472227E-002	2,000000000000000E+000	-4,7130629E-001	40	-8,6435830E-005
2	0	0	1	1	5,419137388929317E+004	1,3234023E+000	1,3228643E+000	-5,587634739155717E-002	2,000000000000000E+000	-4,7265995E-001	40	-7,3916824E-005
2	0	0	1	1	5,421358698933455E+004	1,3433942E+000	1,3429188E+000	-4,583981292951797E-002	2,000000000000000E+000	-4,7378680E-001	41	-6,1559142E-005
2	0	0	1	1	5,423580018937588E+004	1,3633862E+000	1,3628833E+000	-3,631708130347233E-002	2,000000000000000E+000	-4,7469664E-001	41	-4,9495946E-005
2	0	0	1	1	5,425801338941732E+004	1,3833780E+000	1,3828526E+000	-2,698701691624211E-002	2,000000000000000E+000	-4,7539723E-001	41	-3,7319067E-005
2	0	0	1	1	5,428022658945862E+004	1,4033700E+000	1,4028589E+000	-1,771850940172509E-002	2,000000000000000E+000	-4,7589123E-001	41	-2,4856568E-005
2	0	0	1	1	5,430243968950002E+004	1,4233617E+000	1,4228249E+000	-8,365131028686943E-003	2,000000000000000E+000	-4,7617859E-001	41	-1,1902116E-005
2	1	0	1	1	5,432476398954156E+004	1,4434536E+000	1,4429010E+000	1,311937901065954E-003	2,000000000000000E+000	-4,7625530E-001	42	1,8929966E-006
2	1	0	1	1	5,434697728958295E+004	1,4634453E+000	1,4628973E+000	1,134208165454831E-002	2,000000000000000E+000	-4,7611555E-001	41	1,6592301E-005
2	1	0	1	1	5,436919038962433E+004	1,4834371E+000	1,4828953E+000	2,174399459589105E-002	2,000000000000000E+000	-4,7574723E-001	41	3,2244065E-005
2	1	0	1	1	5,439140358966566E+004	1,5034289E+000	1,5028284E+000	3,282492291747457E-002	2,000000000000000E+000	-4,7513983E-001	41	4,9330225E-005
2	1	0	1	1	5,441361678970710E+004	1,5234210E+000	1,5228317E+000	4,472815457703871E-002	2,000000000000000E+000	-4,7427765E-001	41	6,8113448E-005
2	1	0	1	1	5,443582988974871E+004	1,5434124E+000	1,5428014E+000	5,769831007040743E-002	2,000000000000000E+000	-4,7314030E-001	41	8,9017034E-005
2	1	0	1	1	5,445804298978983E+004	1,5634046E+000	1,5627656E+000	7,217564690190015E-002	2,000000000000000E+000	-4,7169921E-001	41	1,1279362E-004
2	1	0	1	1	5,448025618983118E+004	1,5833966E+000	1,5827434E+000	8,899347702244254E-002	2,000000000000000E+000	-4,6990997E-001	41	1,4085384E-004
2	1	0	1	1	5,450246938987257E+004	1,6033883E+000	1,6028633E+000	1,084073461849846E-001	2,000000000000000E+000	-4,6772099E-001	40	1,7376216E-004
2	1	0	1	1	5,452468258991395E+004	1,6233802E+000	1,6228166E+000	1,332421631577141E-001	2,000000000000000E+000	-4,6505079E-001	40	2,1622759E-004
2	1	0	1	1	5,454689588995546E+004	1,6433719E+000	1,6428088E+000	1,690311985210502E-001	2,000000000000000E+000	-4,6171144E-001	40	2,7768593E-004
2	1	0	1	1	5,456910898999672E+004	1,6633638E+000	1,6627911E+000	2,132864847824925E-001	2,000000000000000E+000	-4,5747232E-001	40	3,5465087E-004
2	1	0	1	1	5,459132229003822E+004	1,6833556E+000	1,6827819E+000	2,613310564895119E-001	2,000000000000000E+000	-4,5220250E-001	40	4,3976319E-004
2	1	0	1	1	5,461353539007944E+004	1,7033474E+000	1,7027556E+000	3,118101392705637E-001	2,000000000000000E+000	-4,4583696E-001	40	5,3093646E-004
2	1	0	1	1	5,463574859012081E+004	1,7233394E+000	1,7227477E+000	3,641445292202912E-001	2,000000000000000E+000	-4,3832776E-001	40	6,2732917E-004
2	1	0	1	1	5,465796179016231E+004	1,7433314E+000	1,7427076E+000	4,177797624921125E-001	2,000000000000000E+000	-4,2964190E-001	40	7,2806800E-004
2	1	0	1	1	5,468017489020358E+004	1,7633231E+000	1,7626916E+000	4,726012985642463E-001	2,000000000000000E+000	-4,1975021E-001	40	8,3305035E-004
2	1	0	1	1	5,470238799024501E+004	1,7833149E+000	1,7826786E+000	5,277356040646017E-001	2,000000000000000E+000	-4,0863514E-001	40	9,4078295E-004
2	1	0	1	1	5,472460119028634E+004	1,8033068E+000	1,8026735E+000	5,829255457309594E-001	2,000000000000000E+000	-3,9629412E-001	40	1,0508244E-003
2	1	0	1	1	5,474681459032767E+004	1,8232986E+000	1,8226584E+000	6,375440623108872E-001	2,000000000000000E+000	-3,8273221E-001	40	1,1620250E-003
2	1	0	1	1	5,476902779036909E+004	1,8432906E+000	1,8426378E+000	6,912974900310456E-001	2,000000000000000E+000	-3,6796686E-001	40	1,2738109E-003
2	1	0	1	1	5,479124089041050E+004	1,8632820E+000	1,8626179E+000	7,433289403860890E-001	2,000000000000000E+000	-3,5202309E-001	40	1,3845378E-003
2	1	0	1	1	5,481345399045193E+004	1,8832740E+000	1,8826234E+000	7,914175025072776E-001	2,000000000000000E+000	-3,3496338E-001	40	1,4899411E-003
2	1	0	1	1	5,483566719049320E+004	1,9032660E+000	1,9026257E+000	8,332488623557168E-001	2,000000000000000E+000	-3,1690004E-001	40	1,5853607E-003
2	1	0	1	1	5,485788039053464E+004	1,9232579E+000	1,9226221E+000	8,672300331944207E-001	2,000000000000000E+000	-2,9799241E-001	40	1,6673557E-003
2	1	0	1	1	5,488009349057596E+004	1,9432496E+000	1,9426038E+000	8,913860559710383E-001	2,000000000000000E+000	-2,7843782E-001	40	1,7316099E-003
2	1	0	1	1	5,490230669061746E+004	1,9632415E+000	1,9625925E+000	9,044879979678893E-001	2,000000000000000E+000	-2,5846437E-001	40	1,7751413E-003
2	1	0	1	1	5,492451979065881E+004	1,9832335E+000	1,9825726E+000	9,053540487326384E-001	2,000000000000000E+000	-2,3833668E-001	40	1,7949301E-003
2	1	0	1	1	5,494673319070006E+004	2,0032251E+000	2,0026081E+000	8,931643878047950E-001	2,000000000000000E+000	-2,1833244E-001	40	1,7886582E-003
2	1	0	1	1	5,496894639074150E+004	2,0232170E+000	2,0225906E+000	8,672867662500963E-001	2,000000000000000E+000	-1,9875047E-001	40	1,7541661E-003
2	1	0	1	1	5,499115959078283E+004	2,0432088E+000	2,0426123E+000	8,278133651272288E-001	2,000000000000000E+000	-1,7989896E-001	40	1,6909018E-003
2	1	0	1	1	5,501337269082433E+004	2,0632005E+000	2,0625634E+000	7,751481532061468E-001	2,000000000000000E+000	-1,6207087E-001	40	1,5987923E-003
2	1	0	1	1	5,503558589086569E+004	2,0831926E+000	2,0825753E+000	7,123747569948184E-001	2,000000000000000E+000	-1,4552949E-001	40	1,4835740E-003
2	1	0	1	1	5,505779909090698E+004	2,1031845E+000	2,1025858E+000	6,429343051020080E-001	2,000000000000000E+000	-1,3046686E-001	40	1,3518245E-003
2	1	0	1	1	5,508001229094842E+004	2,1231761E+000	2,1225910E+000	5,709390106081633E-001	2,000000000000000E+000	-1,1698419E-001	40	1,2118700E-003
2	1	0	1	1	5,510222529098974E+004	2,1431680E+000	2,1425714E+000	5,007710536716035E-001	2,000000000000000E+000	-1,0508890E-001	40	1,0729377E-003
2	1	0	1	1	5,512443849103118E+004	2,1631596E+000	2,1625550E+000	4,360836597198325E-001	2,000000000000000E+000	-9,4695851E-002	40	9,4305491E-004
2	1	0	1	1	5,514665179107257E+004	2,1831515E+000	2,1825907E+000	3,786806388106267E-001	2,000000000000000E+000	-8,5660599E-002	40	8,2650484E-004
2	1	0	1	1	5,516886499111389E+004	2,2031436E+000	2,2025478E+000	3,292620511121755E-001	2,000000000000000E+000	-7,7810511E-002	40	7,2521542E-004
2	1	0	1	1	5,519107819115531E+004	2,2231355E+000	2,2225864E+000	2,873066089051053E-001	2,000000000000000E+000	-7,0973337E-002	40	6,3856377E-004
2	1	0	1	1	5,521329139119654E+004	2,2431273E+000	2,2425807E+000	2,519996323429998E-001	2,000000000000000E+000	-6,4993389E-002	40	5,6512951E-004
2	1	0	1	1	5,523550459123804E+004	2,2631190E+000	2,2625866E+000	2,222880455379759E-001	2,000000000000000E+000	-5,9734263E-002	40	5,0294597E-004
2	1	0	1	1	5,525771769127937E+004	2,2831109E+000	2,2825539E+000	1,974392304190844E-001	2,000000000000000E+000	-5,5078454E-002	40	4,5066568E-004
2	1	0	1	1	5,527993089132081E+004	2,3031027E+000	2,3025913E+000	1,767034150598046E-001	2,000000000000000E+000	-5,0928131E-002	40	4,0687574E-004
2	1	0	1	1	5,530214409136219E+004	2,3230944E+000	2,3225980E+000	1,593069804826093E-001	2,000000000000000E+000	-4,7200061E-002	40	3,7000608E-004
2	1	0	1	1	5,532435709140357E+004	2,3430862E+000	2,3425889E+000	1,446259066293853E-001	2,000000000000000E+000	-4,3827079E-002	40	3,3879906E-004
2	1	0	1	1	5,534657049144495E+004	2,3630779E+000	2,3625546E+000	1,321757889266720E-001	2,000000000000000E+000	-4,0755473E-002	40	3,1227252E-004
2	1	0	1	1	5,536878369148623E+004	2,3830700E+000	2,3825796E+000	1,215668053079972E-001	2,000000000000000E+000	-3,7938930E-002	40	2,8964257E-004
2	1	0	1	1	5,539099679152766E+004	2,4030619E+000	2,4025528E+000	1,125135433768750E-001	2,000000000000000E+000	-3,5340343E-002	40	2,7031972E-004
2	1	0	1	1	5,541320999156905E+004	2,4230540E+000	2,4225543E+000	1,046783120362887E-001	2,000000000000000E+000	-3,2928698E-002	40	2,5358889E-004
2	1	0	1	1	5,543542319161037E+004	2,4430459E+000	2,4425085E+000	9,785699001569514E-002	2,000000000000000E+000	-3,0678749E-002	40	2,3901653E-004
2	1	0	1	1	5,545763639165182E+004	2,4630377E+000	2,4625375E+000	9,194638535164254E-002	2,000000000000000E+000	-2,8569898E-002	40	2,2642143E-004
2	1	0	1	1	5,547984949169320E+004	2,4830291E+000	2,4825342E+000	8,670403744461935E-002	2,000000000000000E+000	-2,6585000E-002	40	2,1524573E-004
2	1	0	1	1	5,550206269173455E+004	2,5030210E+000	2,5025294E+000	8,202568482917047E-002	2,000000000000000E+000	-2,4709532E-002	40	2,0527169E-004
2	1	0	1	1	5,552427589177596E+004	2,5230129E+000	2,5225101E+000	7,788745890508031E-002	2,000000000000000E+000	-2,2932263E-002	40	1,9647190E-004
2	1	0	1	1	5,554648909181729E+004	2,5430048E+000	2,5424991E+000	7,415776749254327E-002	2,000000000000000E+000	-2,1242183E-002	40	1,8854605E-004
2	1	0	1	1	5,556870229185867E+004	2,5629966E+000	2,5624783E+000	7,092692557538371E-002	2,000000000000000E+000	-1,9629469E-002	40	1,8174871E-004
2	1	0	1	1	5,559091549190006E+004	2,5829887E+000	2,5824845E+000	6,810372301069798E-002	2,000000000000000E+000	-1,8084077E-002	40	1,7587680E-004
2	1	0	1	1	5,561312859194144E+004	2,6029804E+000	2,6024580E+000	6,569336791464009E-002	2,000000000000000E+000	-1,6596785E-002	40	1,7096422E-004
2	1	0	1	1	5,563534179198276E+004	2,6229722E+000	2,6224878E+000	6,354385776915827E-002	2,000000000000000E+000	-1,5160083E-002	40	1,6664299E-004
2	1	0	1	1	5,565755499202418E+004	2,6429644E+000	2,6424439E+000	6,157570297477749E-002	2,000000000000000E+000	-1,3768881E-002	40	1,6271033E-004
2	1	0	1	1	5,567976809206558E+004	2,6629558E+000	2,6624205E+000	5,977819689750186E-002	2,000000000000000E+000	-1,2419531E-002	40	1,5915470E-004
2	1	0	1	1	5,570198129210691E+004	2,6829474E+000	2,6824446E+000	5,809701859138716E-002	2,000000000000000E+000	-1,1108620E-002	40	1,5584203E-004
2	1	0	1	0	5,572263969214534E+004	2,6984413E+000	2,6979651E+000	5,163518861079641E-002	2,000000000000000E+000	-9,9278921E-003	40	1,3930994E-004
2	1	0	1	0	5,574496409218694E+004	2,6783497E+000	2,6778255E+000	3,889484891936879E-002	2,000000000000000E+000	-8,9501729E-003	41	1,0415362E-004
2	1	0	1	0	5,576717709222832E+004	2,6583576E+000	2,6578441E+000	3,217772390560215E-002	2,000000000000000E+000	-8,1675882E-003	41	8,5523374E-005
2	1	0	1	0	5,578939029226970E+004	2,6383660E+000	2,6378224E+000	2,712038768030045E-002	2,000000000000000E+000	-7,5134472E-003	41	7,1538765E-005
2	1	0	1	0	5,581160349231097E+004	2,6183741E+000	2,6178679E+000	2,318459407009765E-002	2,000000000000000E+000	-6,9581922E-003	41	6,0694205E-005
2	1	0	1	0	5,583381659235242E+004	2,5983822E+000	2,5978889E+000	1,993544973262547E-002	2,000000000000000E+000	-6,4825821E-003	41	5,1790084E-005
2	1	0	1	0	5,585602979239379E+004	2,5783906E+000	2,5778620E+000	1,719947864056690E-002	2,000000000000000E+000	-6,0730428E-003	41	4,4337881E-005
2	1	0	1	0	5,587824299243517E+004	2,5583990E+000	2,5578825E+000	1,489458053178265E-002	2,000000000000000E+000	-5,7193688E-003	41	3,8098588E-005
2	1	0	1	0	5,590045619247656E+004	2,5384068E+000	2,5379176E+000	1,285752127175907E-002	2,000000000000000E+000	-5,4137120E-003	41	3,2631331E-005
2	1	0	0	0	5,591222899249848E+004	2,5277619E+000	2,5271959E+000	1,172776299021089E-002	2,000000000000000E+000	-5,2693123E-003	41	2,9638355E-005