File: Dati/201117/CV_LTO-CB_10 layer_grafite_cu_05_1mVs_04_CV_C03.mpt
EC-Lab ASCII FILE
Nb header lines : 57

Cyclic Voltammetry

Run on channel : 3 (SN 6807)
User :
Electrode connection : standard
Ewe ctrl range : min = 0,00 V, max = 5,00 V
Ewe,I filtering : 50 kHz
Safety Limits :
	Do not start on E overload
Channel : Grounded
Acquisition started on : 11/17/2020 16:29:06
Saved on :
	File : CV_LTO-CB_10 layer_grafite_cu_05_1mVs_04_CV_C03.mpr
	Directory : C:\Users\labsuperfici\Desktop\Biologic\Users\Prisca Viviani\201117\
	Host : 10.78.33.0
Device : VSP-300 (SN 0638)
Address : USB
EC-Lab for windows v11.31 (software)
Internet server v11.30 (firmware)
Command interpretor v11.31 (firmware)
Electrode material :
Initial state :
Electrolyte :
Comments :
Cable : standard
Reference electrode : SCE Saturated Calomel Electrode (0,241 V)
Electrode surface area : 0,001 cm²
Characteristic mass : 0,001 g
Equivalent Weight : 0,000 g/eq.
Density : 0,000 g/cm3
Cycle Definition : Charge/Discharge alternance
Ei (V)              0,000
vs.                 Eoc
dE/dt               0,700
dE/dt unit          mV/s
E1 (V)              1,000
vs.                 Ref
Step percent        50
N                   10
E range min (V)     0,000
E range max (V)     5,000
I Range             Auto
I Range min         Unset
I Range max         Unset
I Range init        Unset
Bandwidth           8
E2 (V)              2,700
vs.                 Ref
nc cycles           1
Reverse Scan        1
Ef (V)              0,000
vs.                 Eoc

mode	ox/red	error	control changes	counter inc.	time/s	control/V	Ewe/V	<I>/mA	cycle number	(Q-Qo)/C	I Range	P/W
2	1	0	1	0	3,014203018118202E+004	2,5277619E+000	2,5271270E+000	8,196605369448662E-003	1,000000000000000E+000	0,0000000E+000	42	2,0713864E-005
2	1	0	1	0	3,016994718084401E+004	2,5082190E+000	2,5076401E+000	5,837423173269386E-003	1,000000000000000E+000	1,7883575E-004	42	1,4638156E-005
2	1	0	1	0	3,019850698049820E+004	2,4882271E+000	2,4876676E+000	4,795574536878493E-003	1,000000000000000E+000	3,2802802E-004	42	1,1929796E-005
2	1	0	1	0	3,022706688015244E+004	2,4682355E+000	2,4676871E+000	3,835496262373115E-003	1,000000000000000E+000	4,4862612E-004	42	9,4648049E-006
2	1	0	1	0	3,025562667980668E+004	2,4482436E+000	2,4477124E+000	2,945058937215465E-003	1,000000000000000E+000	5,4306799E-004	42	7,2086573E-006
2	1	0	1	0	3,028418647946091E+004	2,4282515E+000	2,4277275E+000	2,113332047681519E-003	1,000000000000000E+000	6,1311579E-004	42	5,1305942E-006
2	1	0	1	0	3,031274627911512E+004	2,4082599E+000	2,4077520E+000	1,311986554069902E-003	1,000000000000000E+000	6,5980898E-004	42	3,1589384E-006
2	1	0	1	0	3,034137727876846E+004	2,3882182E+000	2,3877060E+000	4,960294061424429E-004	1,000000000000000E+000	6,8374677E-004	42	1,1843724E-006
2	0	0	1	0	3,037000837842183E+004	2,3681757E+000	2,3677037E+000	-2,710248804062489E-004	1,000000000000000E+000	6,8526098E-004	43	-6,4170661E-007
2	0	0	1	0	3,039856817807605E+004	2,3481841E+000	2,3477311E+000	-1,056797915453565E-003	1,000000000000000E+000	6,6448876E-004	42	-2,4810774E-006
2	0	0	1	0	3,042712787773029E+004	2,3281922E+000	2,3277178E+000	-1,843265552394790E-003	1,000000000000000E+000	6,2080316E-004	42	-4,2906022E-006
2	0	0	1	0	3,045568767738450E+004	2,3082006E+000	2,3077538E+000	-2,671509670866254E-003	1,000000000000000E+000	5,5400637E-004	42	-6,1651867E-006
2	0	0	1	0	3,048424747703871E+004	2,2882087E+000	2,2877390E+000	-3,536622416589190E-003	1,000000000000000E+000	4,6320571E-004	42	-8,0908694E-006
2	0	0	1	0	3,051280727669294E+004	2,2682168E+000	2,2677727E+000	-4,438565987991236E-003	1,000000000000000E+000	3,4730879E-004	42	-1,0065659E-005
2	0	0	1	0	3,054136677634716E+004	2,2482255E+000	2,2477732E+000	-5,381218992102657E-003	1,000000000000000E+000	2,0496218E-004	42	-1,2095759E-005
2	0	0	1	0	3,056992647600139E+004	2,2282333E+000	2,2277894E+000	-6,390103799200755E-003	1,000000000000000E+000	3,4699839E-005	42	-1,4235806E-005
2	0	0	1	0	3,059848627565560E+004	2,2082417E+000	2,2078223E+000	-7,462732119994542E-003	1,000000000000000E+000	-1,6523254E-004	42	-1,6476386E-005
2	0	0	1	0	3,062704607530980E+004	2,1882496E+000	2,1878428E+000	-8,619820850931381E-003	1,000000000000000E+000	-3,9699022E-004	42	-1,8858813E-005
2	0	0	1	0	3,065560587496407E+004	2,1682577E+000	2,1677535E+000	-9,992949789410566E-003	1,000000000000000E+000	-6,6250091E-004	42	-2,1662252E-005
2	0	0	1	0	3,068416577461828E+004	2,1482656E+000	2,1477590E+000	-1,117081393368959E-002	1,000000000000000E+000	-9,6531806E-004	41	-2,3992216E-005
2	0	0	1	0	3,071272547427251E+004	2,1282740E+000	2,1277788E+000	-1,256991979872263E-002	1,000000000000000E+000	-1,3063393E-003	41	-2,6746009E-005
2	0	0	1	0	3,074128507392671E+004	2,1082823E+000	2,1077738E+000	-1,410215943360715E-002	1,000000000000000E+000	-1,6891182E-003	41	-2,9724162E-005
2	0	0	1	0	3,076984467358096E+004	2,0882902E+000	2,0877891E+000	-1,574486915509338E-002	1,000000000000000E+000	-2,1171726E-003	41	-3,2871965E-005
2	0	0	1	0	3,079840457323517E+004	2,0682983E+000	2,0678020E+000	-1,751926735671250E-002	1,000000000000000E+000	-2,5942440E-003	41	-3,6226375E-005
2	0	0	1	0	3,082696427288937E+004	2,0483067E+000	2,0478117E+000	-1,944870199875864E-002	1,000000000000000E+000	-3,1241775E-003	41	-3,9827279E-005
2	0	0	1	0	3,085552407254360E+004	2,0283148E+000	2,0278442E+000	-2,152134881959192E-002	1,000000000000000E+000	-3,7116585E-003	41	-4,3641943E-005
2	0	0	1	0	3,088408387219781E+004	2,0083230E+000	2,0078144E+000	-2,382563071099114E-002	1,000000000000000E+000	-4,3615657E-003	41	-4,7837446E-005
2	0	0	0	0	3,091264377185202E+004	1,9883311E+000	1,9878361E+000	-2,629923408129614E-002	1,000000000000000E+000	-5,0794561E-003	41	-5,2278567E-005
2	0	0	1	0	3,094120357150628E+004	1,9683391E+000	1,9678237E+000	-2,902804705592194E-002	1,000000000000000E+000	-5,8711795E-003	41	-5,7122081E-005
2	0	0	1	0	3,096976327116048E+004	1,9483474E+000	1,9478694E+000	-3,197087620677397E-002	1,000000000000000E+000	-6,7438628E-003	41	-6,2275089E-005
2	0	0	0	0	3,099832297081471E+004	1,9283553E+000	1,9278662E+000	-3,521243718347655E-002	1,000000000000000E+000	-7,7050854E-003	41	-6,7884866E-005
2	0	0	1	0	3,102688277046892E+004	1,9083636E+000	1,9078816E+000	-3,877264571148892E-002	1,000000000000000E+000	-8,7631717E-003	41	-7,3973621E-005
2	0	0	0	0	3,105544257012312E+004	1,8883718E+000	1,8878965E+000	-4,270311541254690E-002	1,000000000000000E+000	-9,9283727E-003	41	-8,0619066E-005
2	0	0	1	0	3,108400226977735E+004	1,8683802E+000	1,8678970E+000	-4,705569939078835E-002	1,000000000000000E+000	-1,1211650E-002	41	-8,7895198E-005
2	0	0	0	0	3,111256216943159E+004	1,8483882E+000	1,8479377E+000	-5,179254511416320E-002	1,000000000000000E+000	-1,2624591E-002	41	-9,5709394E-005
2	0	0	1	0	3,114112186908582E+004	1,8283964E+000	1,8279361E+000	-5,708607486904593E-002	1,000000000000000E+000	-1,4180883E-002	41	-1,0434970E-004
2	0	0	1	0	3,116968156874004E+004	1,8084044E+000	1,8079662E+000	-6,287490399165097E-002	1,000000000000000E+000	-1,5894860E-002	41	-1,1367571E-004
2	0	0	0	0	3,119824136839423E+004	1,7884125E+000	1,7879502E+000	-6,927091539192293E-002	1,000000000000000E+000	-1,7782932E-002	41	-1,2385295E-004
2	0	0	1	0	3,122680116804846E+004	1,7684207E+000	1,7679557E+000	-7,633967068774028E-002	1,000000000000000E+000	-1,9863039E-002	41	-1,3496516E-004
2	0	0	1	0	3,125536086770269E+004	1,7484291E+000	1,7479824E+000	-8,397830754911961E-002	1,000000000000000E+000	-2,2153426E-002	41	-1,4679260E-004
2	0	0	1	0	3,128392076735693E+004	1,7284369E+000	1,7280315E+000	-9,236239807922897E-002	1,000000000000000E+000	-2,4673041E-002	41	-1,5960513E-004
2	0	0	1	0	3,131248056701114E+004	1,7084452E+000	1,7080482E+000	-1,014104248970489E-001	1,000000000000000E+000	-2,7441606E-002	41	-1,7321389E-004
2	0	0	1	0	3,134104026666534E+004	1,6884537E+000	1,6879398E+000	-1,113063835105941E-001	1,000000000000000E+000	-3,0483948E-002	40	-1,8787847E-004
2	0	0	1	0	3,136959996631960E+004	1,6684617E+000	1,6679424E+000	-1,217058190169016E-001	1,000000000000000E+000	-3,3812914E-002	40	-2,0299830E-004
2	0	0	0	0	3,139815976597380E+004	1,6484698E+000	1,6479455E+000	-1,327951229590210E-001	1,000000000000000E+000	-3,7449233E-002	40	-2,1883912E-004
2	0	0	1	0	3,142671956562804E+004	1,6284778E+000	1,6279278E+000	-1,446675525201492E-001	1,000000000000000E+000	-4,1413032E-002	40	-2,3550833E-004
2	0	0	0	0	3,145527936528224E+004	1,6084861E+000	1,6079507E+000	-1,573392734048963E-001	1,000000000000000E+000	-4,5726258E-002	40	-2,5299381E-004
2	0	0	1	0	3,148383916493645E+004	1,5884943E+000	1,5879552E+000	-1,710584863163462E-001	1,000000000000000E+000	-5,0415184E-002	40	-2,7163321E-004
2	0	0	1	0	3,151239896459068E+004	1,5685023E+000	1,5679827E+000	-1,862132859910455E-001	1,000000000000000E+000	-5,5517633E-002	40	-2,9197920E-004
2	0	0	1	0	3,154095866424491E+004	1,5485107E+000	1,5479593E+000	-2,032229489876132E-001	1,000000000000000E+000	-6,1078101E-002	40	-3,1458086E-004
2	0	0	1	0	3,156951836389914E+004	1,5285187E+000	1,5279903E+000	-2,223356409444808E-001	1,000000000000000E+000	-6,7153126E-002	40	-3,3972671E-004
2	0	0	0	0	3,159807816355335E+004	1,5085268E+000	1,5079985E+000	-2,440480442692095E-001	1,000000000000000E+000	-7,3810138E-002	40	-3,6802408E-004
2	0	0	1	0	3,162663796320756E+004	1,4885350E+000	1,4880407E+000	-2,690614853763424E-001	1,000000000000000E+000	-8,1132308E-002	40	-4,0037444E-004
2	0	0	1	0	3,165519776286179E+004	1,4685432E+000	1,4680424E+000	-2,980474199606629E-001	1,000000000000000E+000	-8,9224368E-002	40	-4,3754623E-004
2	0	0	1	0	3,168375746251602E+004	1,4485515E+000	1,4480540E+000	-3,312720691864879E-001	1,000000000000000E+000	-9,8204367E-002	40	-4,7969984E-004
2	0	0	1	0	3,171231726217025E+004	1,4285597E+000	1,4280837E+000	-3,681230937078395E-001	1,000000000000000E+000	-1,0818929E-001	40	-5,2571058E-004
2	0	0	1	0	3,174087706182445E+004	1,4085678E+000	1,4080983E+000	-4,065724561659883E-001	1,000000000000000E+000	-1,1925662E-001	40	-5,7249400E-004
2	0	0	1	0	3,176943676147866E+004	1,3885759E+000	1,3881104E+000	-4,444518273373204E-001	1,000000000000000E+000	-1,3141812E-001	40	-6,1694818E-004
2	0	0	1	0	3,179799646113292E+004	1,3685842E+000	1,3681258E+000	-4,800664695307839E-001	1,000000000000000E+000	-1,4463267E-001	40	-6,5679132E-004
2	0	0	1	0	3,182655636078713E+004	1,3485922E+000	1,3481181E+000	-5,119544838586552E-001	1,000000000000000E+000	-1,5881415E-001	40	-6,9017510E-004
2	0	0	1	0	3,185511606044136E+004	1,3286003E+000	1,3281471E+000	-5,388827777820735E-001	1,000000000000000E+000	-1,7383760E-001	40	-7,1571558E-004
2	0	0	1	0	3,188367596009556E+004	1,3086084E+000	1,3081424E+000	-5,601139667599363E-001	1,000000000000000E+000	-1,8954998E-001	40	-7,3270884E-004
2	0	0	1	0	3,191223575974978E+004	1,2886164E+000	1,2881587E+000	-5,751045488436217E-001	1,000000000000000E+000	-2,0578128E-001	40	-7,4082590E-004
2	0	0	1	0	3,194079545940401E+004	1,2686248E+000	1,2681388E+000	-5,838569538240348E-001	1,000000000000000E+000	-2,2234660E-001	40	-7,4041163E-004
2	0	0	1	0	3,196935505905823E+004	1,2486330E+000	1,2481852E+000	-5,861575572816213E-001	1,000000000000000E+000	-2,3907213E-001	40	-7,3163316E-004
2	0	0	1	0	3,199791485871247E+004	1,2286412E+000	1,2281704E+000	-5,835522284179673E-001	1,000000000000000E+000	-2,5579199E-001	40	-7,1670156E-004
2	0	0	1	0	3,202647475836668E+004	1,2086492E+000	1,2082068E+000	-5,765337165246773E-001	1,000000000000000E+000	-2,7237120E-001	40	-6,9657195E-004
2	0	0	1	0	3,205503455802088E+004	1,1886573E+000	1,1881995E+000	-5,660459457094658E-001	1,000000000000000E+000	-2,8869757E-001	40	-6,7257549E-004
2	0	0	1	0	3,208359425767511E+004	1,1686656E+000	1,1682129E+000	-5,529211854499003E-001	1,000000000000000E+000	-3,0468559E-001	40	-6,4592966E-004
2	0	0	1	0	3,211215395732934E+004	1,1486738E+000	1,1481695E+000	-5,379839045812327E-001	1,000000000000000E+000	-3,2027188E-001	40	-6,1769673E-004
2	0	0	1	0	3,214071375698358E+004	1,1286819E+000	1,1282122E+000	-5,216091335226598E-001	1,000000000000000E+000	-3,3540702E-001	40	-5,8848580E-004
2	0	0	1	0	3,216927355663778E+004	1,1086900E+000	1,1082064E+000	-5,049329483370535E-001	1,000000000000000E+000	-3,5006925E-001	40	-5,5956992E-004
2	0	0	1	0	3,219783325629198E+004	1,0886983E+000	1,0882255E+000	-4,881260017905422E-001	1,000000000000000E+000	-3,6425307E-001	40	-5,3119118E-004
2	0	0	1	0	3,222639305594622E+004	1,0687065E+000	1,0682429E+000	-4,716083059864200E-001	1,000000000000000E+000	-3,7795874E-001	40	-5,0379225E-004
2	0	0	1	0	3,225495275560045E+004	1,0487145E+000	1,0482366E+000	-4,560797491382782E-001	1,000000000000000E+000	-3,9120653E-001	40	-4,7807948E-004
2	0	0	1	0	3,228351255525468E+004	1,0287228E+000	1,0282342E+000	-4,415857056336527E-001	1,000000000000000E+000	-4,0402472E-001	40	-4,5405354E-004
2	0	0	1	0	3,231207245490889E+004	1,0087309E+000	1,0082073E+000	-4,284614253943211E-001	1,000000000000000E+000	-4,1644818E-001	40	-4,3197794E-004
2	0	0	1	0	3,233820535459250E+004	1,0095305E+000	1,0090415E+000	-3,772497566660125E-001	1,000000000000000E+000	-4,2718932E-001	40	-3,8066067E-004
2	0	0	1	0	3,236676515424671E+004	1,0295224E+000	1,0290221E+000	-3,142336979811340E-001	1,000000000000000E+000	-4,3700537E-001	40	-3,2335342E-004
2	0	0	1	0	3,239532485390094E+004	1,0495142E+000	1,0490031E+000	-2,673416690166479E-001	1,000000000000000E+000	-4,4527692E-001	40	-2,8044224E-004
2	0	0	1	0	3,242388455355515E+004	1,0695060E+000	1,0689827E+000	-2,300978165478642E-001	1,000000000000000E+000	-4,5235747E-001	40	-2,4597059E-004
2	0	0	1	0	3,245244435320940E+004	1,0894978E+000	1,0889826E+000	-1,996203691203280E-001	1,000000000000000E+000	-4,5847458E-001	40	-2,1738310E-004
2	0	0	1	0	3,248100425286361E+004	1,1094897E+000	1,1089822E+000	-1,740482188249235E-001	1,000000000000000E+000	-4,6379605E-001	40	-1,9301637E-004
2	0	0	1	0	3,250956395251781E+004	1,1294814E+000	1,1289527E+000	-1,523221133790729E-001	1,000000000000000E+000	-4,6844509E-001	40	-1,7196446E-004
2	0	0	1	0	3,253812385217205E+004	1,1494735E+000	1,1489096E+000	-1,336295589468585E-001	1,000000000000000E+000	-4,7251874E-001	40	-1,5352828E-004
2	0	0	1	0	3,256668355182626E+004	1,1694652E+000	1,1689483E+000	-1,173458600268349E-001	1,000000000000000E+000	-4,7609341E-001	40	-1,3717124E-004
2	0	0	0	0	3,259524335148046E+004	1,1894571E+000	1,1889392E+000	-1,029927398257819E-001	1,000000000000000E+000	-4,7923207E-001	40	-1,2245211E-004
2	0	0	1	0	3,262380315113469E+004	1,2094489E+000	1,2089137E+000	-9,019917218839021E-002	1,000000000000000E+000	-4,8198423E-001	40	-1,0904302E-004
2	0	0	0	0	3,265236295078893E+004	1,2294408E+000	1,2288879E+000	-7,871664390281674E-002	1,000000000000000E+000	-4,8439038E-001	40	-9,6733929E-005
2	0	0	1	0	3,268092275044316E+004	1,2494327E+000	1,2488753E+000	-6,824106533317864E-002	1,000000000000000E+000	-4,8648310E-001	40	-8,5224579E-005
2	0	0	0	0	3,270948255009737E+004	1,2694244E+000	1,2688322E+000	-5,862327308839325E-002	1,000000000000000E+000	-4,8828959E-001	40	-7,4383097E-005
2	0	0	1	0	3,273804234975157E+004	1,2894162E+000	1,2888620E+000	-4,972528430549783E-002	1,000000000000000E+000	-4,8983186E-001	40	-6,4089028E-005
2	0	0	1	0	3,276660214940581E+004	1,3094082E+000	1,3089179E+000	-4,131446722779292E-002	1,000000000000000E+000	-4,9112684E-001	41	-5,4077245E-005
2	0	0	1	0	3,279516184943961E+004	1,3294001E+000	1,3288807E+000	-3,353864469394552E-002	1,000000000000000E+000	-4,9219194E-001	41	-4,4568857E-005
2	0	0	1	0	3,282372164949274E+004	1,3493919E+000	1,3488430E+000	-2,601390566537609E-002	1,000000000000000E+000	-4,9303880E-001	41	-3,5088673E-005
2	0	0	1	0	3,285228144954611E+004	1,3693837E+000	1,3688408E+000	-1,877334669983124E-002	1,000000000000000E+000	-4,9367511E-001	41	-2,5697724E-005
2	0	0	1	0	3,288084134959918E+004	1,3893757E+000	1,3888581E+000	-1,161990866105520E-002	1,000000000000000E+000	-4,9410605E-001	41	-1,6138403E-005
2	0	0	1	0	3,290940104965237E+004	1,4093676E+000	1,4088576E+000	-4,417479542477870E-003	1,000000000000000E+000	-4,9433300E-001	42	-6,2235995E-006
2	1	0	1	0	3,293810374970583E+004	1,4294593E+000	1,4288367E+000	2,810545298988987E-003	1,000000000000000E+000	-4,9435425E-001	42	4,0158102E-006
2	1	0	1	0	3,296666354975908E+004	1,4494511E+000	1,4489176E+000	1,050502169967760E-002	1,000000000000000E+000	-4,9416348E-001	41	1,5220911E-005
2	1	0	1	0	3,299522324981238E+004	1,4694431E+000	1,4688700E+000	1,847492392084488E-002	1,000000000000000E+000	-4,9374822E-001	41	2,7137263E-005
2	1	0	1	0	3,302378294986556E+004	1,4894346E+000	1,4888593E+000	2,699919314479043E-002	1,000000000000000E+000	-4,9309704E-001	41	4,0198000E-005
2	1	0	1	0	3,305234274991869E+004	1,5094265E+000	1,5088214E+000	3,611447550177094E-002	1,000000000000000E+000	-4,9219477E-001	41	5,4490294E-005
2	1	0	1	0	3,308090254997183E+004	1,5294185E+000	1,5288068E+000	4,595948151775131E-002	1,000000000000000E+000	-4,9102205E-001	41	7,0263166E-005
2	1	0	1	0	3,310946245002490E+004	1,5494103E+000	1,5487796E+000	5,688455695191195E-002	1,000000000000000E+000	-4,8955348E-001	41	8,8101639E-005
2	1	0	1	0	3,313802225007815E+004	1,5694021E+000	1,5687585E+000	6,960723679079173E-002	1,000000000000000E+000	-4,8774931E-001	41	1,0919695E-004
2	1	0	1	0	3,316658195013145E+004	1,5893940E+000	1,5887707E+000	8,452584493707260E-002	1,000000000000000E+000	-4,8555163E-001	41	1,3429219E-004
2	1	0	0	0	3,319514175018459E+004	1,6093857E+000	1,6088480E+000	1,034546512851771E-001	1,000000000000000E+000	-4,8288003E-001	40	1,6644281E-004
2	1	0	1	0	3,322370155023772E+004	1,6293775E+000	1,6287804E+000	1,318139735017490E-001	1,000000000000000E+000	-4,7954476E-001	40	2,1469602E-004
2	1	0	0	0	3,325226135029097E+004	1,6493694E+000	1,6487895E+000	1,698129666380788E-001	1,000000000000000E+000	-4,7524938E-001	40	2,7998583E-004
2	1	0	1	0	3,328082115034433E+004	1,6693612E+000	1,6687762E+000	2,124685541350049E-001	1,000000000000000E+000	-4,6979332E-001	40	3,5456245E-004
2	1	0	1	0	3,330938105039741E+004	1,6893533E+000	1,6887764E+000	2,573150368996553E-001	1,000000000000000E+000	-4,6308357E-001	40	4,3454755E-004
2	1	0	1	0	3,333794075045065E+004	1,7093450E+000	1,7087641E+000	3,034852768629730E-001	1,000000000000000E+000	-4,5507261E-001	40	5,1858474E-004
2	1	0	0	0	3,336650055050384E+004	1,7293367E+000	1,7287114E+000	3,503791160620811E-001	1,000000000000000E+000	-4,4573188E-001	40	6,0570438E-004
2	1	0	1	0	3,339506035055686E+004	1,7493287E+000	1,7486897E+000	3,974630957427081E-001	1,000000000000000E+000	-4,3504849E-001	40	6,9503958E-004
2	1	0	1	0	3,342362025061017E+004	1,7693204E+000	1,7687031E+000	4,440485816807702E-001	1,000000000000000E+000	-4,2302409E-001	40	7,8539009E-004
2	1	0	1	0	3,345217995066335E+004	1,7893122E+000	1,7886857E+000	4,891141231907561E-001	1,000000000000000E+000	-4,0968865E-001	40	8,7487145E-004
2	1	0	0	0	3,348073975071660E+004	1,8093041E+000	1,8086910E+000	5,317097210979984E-001	1,000000000000000E+000	-3,9509824E-001	40	9,6169859E-004
2	1	0	1	0	3,350929955076973E+004	1,8292959E+000	1,8286780E+000	5,710330702545763E-001	1,000000000000000E+000	-3,7933674E-001	40	1,0442357E-003
2	1	0	0	0	3,353785935082298E+004	1,8492876E+000	1,8486682E+000	6,057343673630520E-001	1,000000000000000E+000	-3,6251676E-001	40	1,1198019E-003
2	1	0	1	0	3,356641915087635E+004	1,8692796E+000	1,8686279E+000	6,347281534884957E-001	1,000000000000000E+000	-3,4478563E-001	40	1,1860707E-003
2	1	0	0	0	3,359497895092936E+004	1,8892714E+000	1,8886309E+000	6,574337374484029E-001	1,000000000000000E+000	-3,2631260E-001	40	1,2416496E-003
2	1	0	1	0	3,362353875098255E+004	1,9092634E+000	1,9086369E+000	6,730878583621056E-001	1,000000000000000E+000	-3,0728948E-001	40	1,2846803E-003
2	1	0	0	0	3,365209855103586E+004	1,9292551E+000	1,9286444E+000	6,810389581007534E-001	1,000000000000000E+000	-2,8792822E-001	40	1,3134819E-003
2	1	0	1	0	3,368065835108899E+004	1,9492471E+000	1,9486098E+000	6,806146027429980E-001	1,000000000000000E+000	-2,6846153E-001	40	1,3262524E-003
2	1	0	0	0	3,370921815114218E+004	1,9692389E+000	1,9685943E+000	6,723619829165637E-001	1,000000000000000E+000	-2,4911973E-001	40	1,3236080E-003
2	1	0	1	0	3,373777785119531E+004	1,9892306E+000	1,9886273E+000	6,551893925701615E-001	1,000000000000000E+000	-2,3013723E-001	40	1,3029275E-003
2	1	0	1	0	3,376633775124862E+004	2,0092225E+000	2,0086205E+000	6,298631483114305E-001	1,000000000000000E+000	-2,1176575E-001	40	1,2651561E-003
2	1	0	1	0	3,379489765130176E+004	2,0292146E+000	2,0286036E+000	5,971517709208447E-001	1,000000000000000E+000	-1,9422548E-001	40	1,2113842E-003
2	1	0	1	0	3,382345725135482E+004	2,0492065E+000	2,0485995E+000	5,585100649767849E-001	1,000000000000000E+000	-1,7770837E-001	40	1,1441634E-003
2	1	0	1	0	3,385201705140830E+004	2,0691984E+000	2,0685918E+000	5,152835674918066E-001	1,000000000000000E+000	-1,6236544E-001	40	1,0659114E-003
2	1	0	1	0	3,388057685146132E+004	2,0891902E+000	2,0885789E+000	4,701635710416019E-001	1,000000000000000E+000	-1,4828870E-001	40	9,8197372E-004
2	1	0	1	0	3,390913685151446E+004	2,1091819E+000	2,1086130E+000	4,249115804584296E-001	1,000000000000000E+000	-1,3550690E-001	40	8,9597411E-004
2	1	0	1	0	3,393769675156777E+004	2,1291738E+000	2,1285648E+000	3,820815618544668E-001	1,000000000000000E+000	-1,2398987E-001	40	8,1328535E-004
2	1	0	1	0	3,396625655162090E+004	2,1491656E+000	2,1485748E+000	3,431670147369310E-001	1,000000000000000E+000	-1,1364176E-001	40	7,3731999E-004
2	1	0	1	0	3,399481635167415E+004	2,1691575E+000	2,1685867E+000	3,087554072033667E-001	1,000000000000000E+000	-1,0434227E-001	40	6,6956290E-004
2	1	0	1	0	3,402337625172734E+004	2,1891496E+000	2,1885710E+000	2,789211890082421E-001	1,000000000000000E+000	-9,5959604E-002	40	6,1043882E-004
2	1	0	1	0	3,405193585178046E+004	2,2091410E+000	2,2085595E+000	2,528455619844343E-001	1,000000000000000E+000	-8,8374823E-002	40	5,5842445E-004
2	1	0	1	0	3,408049565183371E+004	2,2291329E+000	2,2286026E+000	2,298893443412400E-001	1,000000000000000E+000	-8,1486568E-002	40	5,1233202E-004
2	1	0	1	0	3,410905545188696E+004	2,2491248E+000	2,2485633E+000	2,092275151378775E-001	1,000000000000000E+000	-7,5219207E-002	40	4,7046132E-004
2	1	0	1	0	3,413761515194015E+004	2,2691166E+000	2,2685628E+000	1,905044133823326E-001	1,000000000000000E+000	-6,9512703E-002	40	4,3217122E-004
2	1	0	1	0	3,416617505199334E+004	2,2891085E+000	2,2885618E+000	1,730509200907067E-001	1,000000000000000E+000	-6,4322546E-002	40	3,9603774E-004
2	1	0	1	0	3,419473485204647E+004	2,3091004E+000	2,3085775E+000	1,568041760492960E-001	1,000000000000000E+000	-5,9613686E-002	40	3,6199461E-004
2	1	0	1	0	3,422329465209972E+004	2,3290923E+000	2,3285511E+000	1,419849266427919E-001	1,000000000000000E+000	-5,5347960E-002	40	3,3061916E-004
2	1	0	1	0	3,425185445215297E+004	2,3490839E+000	2,3485482E+000	1,286362224780337E-001	1,000000000000000E+000	-5,1485173E-002	40	3,0210835E-004
2	1	0	1	0	3,428041425220598E+004	2,3690763E+000	2,3685160E+000	1,168708446980238E-001	1,000000000000000E+000	-4,7981326E-002	40	2,7681046E-004
2	1	0	1	0	3,430897405225923E+004	2,3890674E+000	2,3885140E+000	1,066743681325897E-001	1,000000000000000E+000	-4,4791095E-002	40	2,5479324E-004
2	1	0	1	0	3,433753385231248E+004	2,4090595E+000	2,4085367E+000	9,787954073940996E-002	1,000000000000000E+000	-4,1871853E-002	40	2,3574647E-004
2	1	0	1	0	3,436609365236567E+004	2,4290514E+000	2,4285109E+000	9,030089647181738E-002	1,000000000000000E+000	-3,9185520E-002	40	2,1929671E-004
2	1	0	1	0	3,439465345241898E+004	2,4490433E+000	2,4485281E+000	8,376306196070649E-002	1,000000000000000E+000	-3,6699995E-002	40	2,0509621E-004
2	1	0	1	0	3,442321305247210E+004	2,4690351E+000	2,4685152E+000	7,807002320523793E-002	1,000000000000000E+000	-3,4389071E-002	40	1,9271704E-004
2	1	0	1	0	3,445177295252529E+004	2,4890270E+000	2,4885249E+000	7,310759322882771E-002	1,000000000000000E+000	-3,2229993E-002	40	1,8193007E-004
2	1	0	1	0	3,448033275257843E+004	2,5090189E+000	2,5085456E+000	6,875206337768969E-002	1,000000000000000E+000	-3,0203596E-002	40	1,7246768E-004
2	1	0	1	0	3,450889265263162E+004	2,5290110E+000	2,5285099E+000	6,502497158616410E-002	1,000000000000000E+000	-2,8292324E-002	40	1,6441628E-004
2	1	0	1	0	3,453745245268487E+004	2,5490029E+000	2,5485194E+000	6,178372613922667E-002	1,000000000000000E+000	-2,6480522E-002	40	1,5745702E-004
2	1	0	1	0	3,456601225273800E+004	2,5689945E+000	2,5684881E+000	5,897764517387935E-002	1,000000000000000E+000	-2,4754962E-002	40	1,5148339E-004
2	1	0	1	0	3,459457185279136E+004	2,5889859E+000	2,5884953E+000	5,656997719633594E-002	1,000000000000000E+000	-2,3103898E-002	40	1,4643112E-004
2	1	0	1	0	3,462313165284449E+004	2,6089780E+000	2,6084774E+000	5,448489133929313E-002	1,000000000000000E+000	-2,1516681E-002	40	1,4212260E-004
2	1	0	1	0	3,465169155289762E+004	2,6289697E+000	2,6284802E+000	5,264172923039201E-002	1,000000000000000E+000	-1,9985383E-002	40	1,3836774E-004
2	1	0	1	0	3,468025125295087E+004	2,6489618E+000	2,6484642E+000	5,104315093205059E-002	1,000000000000000E+000	-1,8503303E-002	40	1,3518595E-004
2	1	0	1	0	3,470881105300400E+004	2,6689537E+000	2,6684532E+000	4,952140807302352E-002	1,000000000000000E+000	-1,7065147E-002	40	1,3214556E-004
2	1	0	1	0	3,473751385305752E+004	2,6890454E+000	2,6884742E+000	4,817347834273966E-002	1,000000000000000E+000	-1,5662152E-002	41	1,2951315E-004
2	1	0	1	1	3,476393175310676E+004	2,6924441E+000	2,6919475E+000	3,847146718099603E-002	1,000000000000000E+000	-1,4468764E-002	41	1,0356316E-004
2	1	0	1	1	3,479249165315990E+004	2,6724524E+000	2,6719117E+000	3,046422476471655E-002	1,000000000000000E+000	-1,3497370E-002	41	8,1397717E-005
2	1	0	1	1	3,482105145321297E+004	2,6524606E+000	2,6519570E+000	2,511023851542116E-002	1,000000000000000E+000	-1,2710311E-002	41	6,6591274E-005
2	1	0	1	1	3,484961125326622E+004	2,6324687E+000	2,6319225E+000	2,101413836891908E-002	1,000000000000000E+000	-1,2056374E-002	41	5,5307584E-005
2	1	0	1	1	3,487817085331946E+004	2,6124766E+000	2,6119726E+000	1,777264054407374E-002	1,000000000000000E+000	-1,1505988E-002	41	4,6421650E-005
2	1	0	1	1	3,490673065337259E+004	2,5924847E+000	2,5919721E+000	1,516300838791773E-002	1,000000000000000E+000	-1,1038912E-002	41	3,9302096E-005
2	1	0	1	1	3,493529045342607E+004	2,5724931E+000	2,5719736E+000	1,298007642819743E-002	1,000000000000000E+000	-1,0640187E-002	41	3,3384415E-005
2	1	0	1	1	3,496385045347910E+004	2,5525007E+000	2,5519867E+000	1,113789699056161E-002	1,000000000000000E+000	-1,0298853E-002	41	2,8423765E-005
2	1	0	1	1	3,499241005353228E+004	2,5325096E+000	2,5319858E+000	9,542678414329271E-003	1,000000000000000E+000	-1,0006348E-002	41	2,4161925E-005
2	1	0	1	1	3,501868485358125E+004	2,5141170E+000	2,5136149E+000	8,267361668457858E-003	2,000000000000000E+000	-9,7748656E-003	41	2,0780963E-005
2	1	0	1	1	3,504724465363438E+004	2,4941249E+000	2,4935927E+000	6,983031851998306E-003	2,000000000000000E+000	-9,5600132E-003	41	1,7412838E-005
2	1	0	1	1	3,507580445368763E+004	2,4741330E+000	2,4736006E+000	5,826369702704379E-003	2,000000000000000E+000	-9,3793366E-003	41	1,4412111E-005
2	1	0	1	1	3,510436405374086E+004	2,4541411E+000	2,4535615E+000	4,796614706786356E-003	2,000000000000000E+000	-9,2299609E-003	42	1,1768790E-005
2	1	0	1	1	3,513292385379411E+004	2,4341493E+000	2,4335771E+000	3,814415452447456E-003	2,000000000000000E+000	-9,1091730E-003	42	9,2826740E-006
2	1	0	1	1	3,516148375384719E+004	2,4141576E+000	2,4136255E+000	2,906425591876070E-003	2,000000000000000E+000	-9,0154838E-003	42	7,0150227E-006
2	1	0	1	1	3,519004365390050E+004	2,3941655E+000	2,3936434E+000	1,993602573229489E-003	2,000000000000000E+000	-8,9478251E-003	42	4,7719736E-006
2	1	0	1	1	3,521860295395367E+004	2,3741736E+000	2,3736780E+000	1,128931284258430E-003	2,000000000000000E+000	-8,9055086E-003	42	2,6797193E-006
2	1	0	1	1	3,524716275400680E+004	2,3541818E+000	2,3536389E+000	2,420871457259485E-004	2,000000000000000E+000	-8,8881170E-003	43	5,6978570E-007
2	0	0	1	1	3,527572255406005E+004	2,3341901E+000	2,3337438E+000	-6,172993241102976E-004	2,000000000000000E+000	-8,8951606E-003	43	-1,4406185E-006
2	0	0	1	1	3,530428235411318E+004	2,3141983E+000	2,3137350E+000	-1,499253102322446E-003	2,000000000000000E+000	-8,9276405E-003	42	-3,4688744E-006
2	0	0	1	1	3,533284225416637E+004	2,2942064E+000	2,2937386E+000	-2,417247788435620E-003	2,000000000000000E+000	-8,9857215E-003	42	-5,5445344E-006
2	0	0	1	1	3,536140205421962E+004	2,2742145E+000	2,2737660E+000	-3,363223975616500E-003	2,000000000000000E+000	-9,0704085E-003	42	-7,6471842E-006
2	0	0	1	1	3,538996185427275E+004	2,2542229E+000	2,2537541E+000	-4,371120688431186E-003	2,000000000000000E+000	-9,1827614E-003	42	-9,8514311E-006
2	0	0	1	1	3,541852125432622E+004	2,2342308E+000	2,2338138E+000	-5,392421206233483E-003	2,000000000000000E+000	-9,3241995E-003	42	-1,2045664E-005
2	0	0	1	1	3,544708105437923E+004	2,2142389E+000	2,2137926E+000	-6,524721754264259E-003	2,000000000000000E+000	-9,4964616E-003	42	-1,4444380E-005
2	0	0	1	1	3,547564085443225E+004	2,1942472E+000	2,1938400E+000	-7,677036913651222E-003	2,000000000000000E+000	-9,7011365E-003	42	-1,6842190E-005
2	0	0	1	1	3,550420045448560E+004	2,1742556E+000	2,1738534E+000	-8,925322386692074E-003	2,000000000000000E+000	-9,9404063E-003	42	-1,9402343E-005
2	0	0	1	1	3,553276035453880E+004	2,1542635E+000	2,1537614E+000	-1,028146004509170E-002	2,000000000000000E+000	-1,0217436E-002	41	-2,2143811E-005
2	0	0	1	1	3,556132015459199E+004	2,1342716E+000	2,1337466E+000	-1,170655871532281E-002	2,000000000000000E+000	-1,0534023E-002	41	-2,4978830E-005
2	0	0	1	1	3,558987995464518E+004	2,1142800E+000	2,1137676E+000	-1,324730326239326E-002	2,000000000000000E+000	-1,0892668E-002	41	-2,8001721E-005
2	0	0	1	1	3,561843945469835E+004	2,0942879E+000	2,0937941E+000	-1,489805184682205E-002	2,000000000000000E+000	-1,1296665E-002	41	-3,1193453E-005
2	0	0	1	1	3,564699935475161E+004	2,0742960E+000	2,0738182E+000	-1,669802326816588E-002	2,000000000000000E+000	-1,1749735E-002	41	-3,4628665E-005
2	0	0	1	1	3,567555915480480E+004	2,0543041E+000	2,0538256E+000	-1,861693555962157E-002	2,000000000000000E+000	-1,2255874E-002	41	-3,8235939E-005
2	0	0	1	1	3,570411885485798E+004	2,0343125E+000	2,0338151E+000	-2,072526664807423E-002	2,000000000000000E+000	-1,2819499E-002	41	-4,2151361E-005
2	0	0	1	1	3,573267865491111E+004	2,0143204E+000	2,0138347E+000	-2,296989981945990E-002	2,000000000000000E+000	-1,3445545E-002	41	-4,6257581E-005
2	0	0	1	1	3,576123855496431E+004	1,9943286E+000	1,9938344E+000	-2,546434721572477E-002	2,000000000000000E+000	-1,4138828E-002	41	-5,0771690E-005
2	0	0	1	1	3,578979825501773E+004	1,9743371E+000	1,9738584E+000	-2,810401190982414E-002	2,000000000000000E+000	-1,4905572E-002	41	-5,5473338E-005
2	0	0	1	1	3,581835785507073E+004	1,9543450E+000	1,9538867E+000	-3,104478075195927E-002	2,000000000000000E+000	-1,5752574E-002	41	-6,0657985E-005
2	0	0	1	1	3,584691775512398E+004	1,9343531E+000	1,9338641E+000	-3,426410744451303E-002	2,000000000000000E+000	-1,6687013E-002	41	-6,6262131E-005
2	0	0	1	1	3,587547755517717E+004	1,9143614E+000	1,9138907E+000	-3,775312070480163E-002	2,000000000000000E+000	-1,7717440E-002	41	-7,2255345E-005
2	0	0	1	1	3,590403735523031E+004	1,8943692E+000	1,8938860E+000	-4,167253157098740E-002	2,000000000000000E+000	-1,8853677E-002	41	-7,8923025E-005
2	0	0	1	1	3,593259705528355E+004	1,8743777E+000	1,8739203E+000	-4,589955085134229E-002	2,000000000000000E+000	-2,0105710E-002	41	-8,6012100E-005
2	0	0	1	1	3,596115675533679E+004	1,8543857E+000	1,8539155E+000	-5,060525128141702E-002	2,000000000000000E+000	-2,1484967E-002	41	-9,3817856E-005
2	0	0	1	1	3,598971655538981E+004	1,8343940E+000	1,8339365E+000	-5,579363752266220E-002	2,000000000000000E+000	-2,3005562E-002	41	-1,0232199E-004
2	0	0	1	1	3,601827635544317E+004	1,8144020E+000	1,8139383E+000	-6,146617400569132E-002	2,000000000000000E+000	-2,4681361E-002	41	-1,1149584E-004
2	0	0	1	1	3,604683605549647E+004	1,7944105E+000	1,7939663E+000	-6,774846533271367E-002	2,000000000000000E+000	-2,6527623E-002	41	-1,2153846E-004
2	0	0	1	1	3,607539585554949E+004	1,7744186E+000	1,7739693E+000	-7,466329872156763E-002	2,000000000000000E+000	-2,8562229E-002	41	-1,3245040E-004
2	0	0	1	1	3,610395555560279E+004	1,7544265E+000	1,7539607E+000	-8,220068984224715E-002	2,000000000000000E+000	-3,0803077E-002	41	-1,4417678E-004
2	0	0	1	1	3,613251545565599E+004	1,7344347E+000	1,7340217E+000	-9,039669273304018E-002	2,000000000000000E+000	-3,3268772E-002	41	-1,5674983E-004
2	0	0	1	1	3,616107525570923E+004	1,7144427E+000	1,7140620E+000	-9,930839097991595E-002	2,000000000000000E+000	-3,5979148E-002	41	-1,7022074E-004
2	0	0	1	1	3,618963505576225E+004	1,6944511E+000	1,6939313E+000	-1,090447647001571E-001	2,000000000000000E+000	-3,8957398E-002	40	-1,8471434E-004
2	0	0	1	1	3,621819475581549E+004	1,6744592E+000	1,6739268E+000	-1,193597417625745E-001	2,000000000000000E+000	-4,2220585E-002	40	-1,9979947E-004
2	0	0	0	1	3,624675455586868E+004	1,6544673E+000	1,6539207E+000	-1,302586962897931E-001	2,000000000000000E+000	-4,5786090E-002	40	-2,1543755E-004
2	0	0	1	1	3,627531425592210E+004	1,6344756E+000	1,6339191E+000	-1,419055033653971E-001	2,000000000000000E+000	-4,9673073E-002	40	-2,3186211E-004
2	0	0	1	1	3,630387415597506E+004	1,6144836E+000	1,6139532E+000	-1,543135289135016E-001	2,000000000000000E+000	-5,3903021E-002	40	-2,4905481E-004
2	0	0	1	1	3,633243395602820E+004	1,5944916E+000	1,5939631E+000	-1,677764911577579E-001	2,000000000000000E+000	-5,8502551E-002	40	-2,6742954E-004
2	0	0	1	1	3,636099365608138E+004	1,5745002E+000	1,5739574E+000	-1,826206881667307E-001	2,000000000000000E+000	-6,3505888E-002	40	-2,8743720E-004
2	0	0	1	1	3,638955345613463E+004	1,5545084E+000	1,5539671E+000	-1,990091738283022E-001	2,000000000000000E+000	-6,8953961E-002	40	-3,0925372E-004
2	0	0	1	1	3,641811305618787E+004	1,5345163E+000	1,5340004E+000	-2,175834014398138E-001	2,000000000000000E+000	-7,4901268E-002	40	-3,3377303E-004
2	0	0	1	1	3,644667295624106E+004	1,5145245E+000	1,5140133E+000	-2,384916450567354E-001	2,000000000000000E+000	-8,1409976E-002	40	-3,6107952E-004
2	0	0	1	1	3,647523275629419E+004	1,4945326E+000	1,4940110E+000	-2,623528839238808E-001	2,000000000000000E+000	-8,8559628E-002	40	-3,9195811E-004
2	0	0	1	1	3,650379245634744E+004	1,4745411E+000	1,4740361E+000	-2,899714622223204E-001	2,000000000000000E+000	-9,6441552E-002	40	-4,2742840E-004
2	0	0	1	1	3,653235225640074E+004	1,4545492E+000	1,4540321E+000	-3,220594494511988E-001	2,000000000000000E+000	-1,0517501E-001	40	-4,6828476E-004
2	0	0	1	1	3,656091195645370E+004	1,4345572E+000	1,4340702E+000	-3,585461463995987E-001	2,000000000000000E+000	-1,1488781E-001	40	-5,1418034E-004
2	0	0	1	1	3,658947175650706E+004	1,4145652E+000	1,4140888E+000	-3,984168661028775E-001	2,000000000000000E+000	-1,2569650E-001	40	-5,6339684E-004
2	0	0	1	1	3,661803155656019E+004	1,3945733E+000	1,3940949E+000	-4,395521445145913E-001	2,000000000000000E+000	-1,3766831E-001	40	-6,1277742E-004
2	0	0	1	1	3,664659125661361E+004	1,3745817E+000	1,3741012E+000	-4,793465028129553E-001	2,000000000000000E+000	-1,5080158E-001	40	-6,5867061E-004
2	0	0	1	1	3,667515095666668E+004	1,3545898E+000	1,3541005E+000	-5,158657831705984E-001	2,000000000000000E+000	-1,6502818E-001	40	-6,9853407E-004
2	0	0	1	1	3,670371075671987E+004	1,3345979E+000	1,3341163E+000	-5,478075822392645E-001	2,000000000000000E+000	-1,8023480E-001	40	-7,3083903E-004
2	0	0	1	1	3,673227065677312E+004	1,3146060E+000	1,3141227E+000	-5,737702899330142E-001	2,000000000000000E+000	-1,9627102E-001	40	-7,5400458E-004
2	0	0	1	1	3,676083035682619E+004	1,2946142E+000	1,2941487E+000	-5,929768091804820E-001	2,000000000000000E+000	-2,1295238E-001	40	-7,6740014E-004
2	0	0	1	1	3,678939025687950E+004	1,2746224E+000	1,2741776E+000	-6,047657734417634E-001	2,000000000000000E+000	-2,3007897E-001	40	-7,7057898E-004
2	0	0	1	1	3,681794975693268E+004	1,2546307E+000	1,2541733E+000	-6,096231531813743E-001	2,000000000000000E+000	-2,4744108E-001	40	-7,6457305E-004
2	0	0	1	1	3,684650965698576E+004	1,2346388E+000	1,2341629E+000	-6,077931711124975E-001	2,000000000000000E+000	-2,6484394E-001	40	-7,5011578E-004
2	0	0	1	1	3,687506945703900E+004	1,2146468E+000	1,2142104E+000	-6,003881314592103E-001	2,000000000000000E+000	-2,8211099E-001	40	-7,2899752E-004
2	0	0	1	1	3,690362915709219E+004	1,1946549E+000	1,1941868E+000	-5,885551942770615E-001	2,000000000000000E+000	-2,9910222E-001	40	-7,0284487E-004
2	0	0	1	1	3,693218895714544E+004	1,1746631E+000	1,1742402E+000	-5,730363152392082E-001	2,000000000000000E+000	-3,1569988E-001	40	-6,7288231E-004
2	0	0	1	1	3,696074875719857E+004	1,1546713E+000	1,1542245E+000	-5,553297840579852E-001	2,000000000000000E+000	-3,3182099E-001	40	-6,4097525E-004
2	0	0	0	1	3,698930855725182E+004	1,1346794E+000	1,1342285E+000	-5,363340815448101E-001	2,000000000000000E+000	-3,4741557E-001	40	-6,0832541E-004
2	0	0	1	1	3,701786825730512E+004	1,1146876E+000	1,1142133E+000	-5,167119104486400E-001	2,000000000000000E+000	-3,6245745E-001	40	-5,7572732E-004
2	0	0	1	1	3,704642805735813E+004	1,0946958E+000	1,0942426E+000	-4,972558800798197E-001	2,000000000000000E+000	-3,7693855E-001	40	-5,4411858E-004
2	0	0	1	1	3,707498775741144E+004	1,0747038E+000	1,0742286E+000	-4,784767723927441E-001	2,000000000000000E+000	-3,9087403E-001	40	-5,1399344E-004
2	0	0	1	1	3,710354755746457E+004	1,0547119E+000	1,0542299E+000	-4,609139115106835E-001	2,000000000000000E+000	-4,0428934E-001	40	-4,8590920E-004
2	0	0	0	1	3,713210735751782E+004	1,0347201E+000	1,0342379E+000	-4,446687466870642E-001	2,000000000000000E+000	-4,1722178E-001	40	-4,5989326E-004
2	0	0	1	1	3,716066715757095E+004	1,0147283E+000	1,0142572E+000	-4,303619617028827E-001	2,000000000000000E+000	-4,2971602E-001	40	-4,3649771E-004
2	0	0	1	1	3,718680015761970E+004	1,0035329E+000	1,0030329E+000	-3,998223360177438E-001	2,000000000000000E+000	-4,4075477E-001	40	-4,0103498E-004
2	0	0	1	1	3,721535985767306E+004	1,0235249E+000	1,0230191E+000	-3,276249849559232E-001	2,000000000000000E+000	-4,5105889E-001	40	-3,3516661E-004
2	0	0	1	1	3,724391965772607E+004	1,0435168E+000	1,0429945E+000	-2,765950348626296E-001	2,000000000000000E+000	-4,5964858E-001	40	-2,8848709E-004
2	0	0	1	1	3,727247935777926E+004	1,0635084E+000	1,0629659E+000	-2,368286026932198E-001	2,000000000000000E+000	-4,6695399E-001	40	-2,5174071E-004
2	0	0	1	1	3,730103925783234E+004	1,0835004E+000	1,0829519E+000	-2,045571279492018E-001	2,000000000000000E+000	-4,7323725E-001	40	-2,2152554E-004
2	0	0	1	1	3,732959905788582E+004	1,1034923E+000	1,1029540E+000	-1,778256793456476E-001	2,000000000000000E+000	-4,7868246E-001	40	-1,9613355E-004
2	0	0	1	1	3,735815885793883E+004	1,1234843E+000	1,1229142E+000	-1,551884214017227E-001	2,000000000000000E+000	-4,8342553E-001	40	-1,7426329E-004
2	0	0	1	1	3,738671855799208E+004	1,1434759E+000	1,1429278E+000	-1,357394121231232E-001	2,000000000000000E+000	-4,8756886E-001	40	-1,5514034E-004
2	0	0	1	1	3,741527835804527E+004	1,1634676E+000	1,1629140E+000	-1,188879964091885E-001	2,000000000000000E+000	-4,9119580E-001	40	-1,3825652E-004
2	0	0	0	1	3,744383815809840E+004	1,1834595E+000	1,1829138E+000	-1,040819416990584E-001	2,000000000000000E+000	-4,9437219E-001	40	-1,2311996E-004
2	0	0	1	1	3,747239785815164E+004	1,2034515E+000	1,2029002E+000	-9,095354114451815E-002	2,000000000000000E+000	-4,9715033E-001	40	-1,0940803E-004
2	0	0	0	1	3,750095775820478E+004	1,2234432E+000	1,2228695E+000	-7,919745766220676E-002	2,000000000000000E+000	-4,9957359E-001	40	-9,6848154E-005
2	0	0	1	1	3,752951745825796E+004	1,2434350E+000	1,2428685E+000	-6,853849971840598E-002	2,000000000000000E+000	-5,0167739E-001	40	-8,5184343E-005
2	0	0	1	1	3,755807735831116E+004	1,2634270E+000	1,2628627E+000	-5,880661181116420E-002	2,000000000000000E+000	-5,0349051E-001	40	-7,4264673E-005
2	0	0	1	1	3,758663715836452E+004	1,2834189E+000	1,2828699E+000	-4,975972612698631E-002	2,000000000000000E+000	-5,0503606E-001	40	-6,3835258E-005
2	0	0	1	1	3,761519685841771E+004	1,3034106E+000	1,3028718E+000	-4,134012865134873E-002	2,000000000000000E+000	-5,0633150E-001	41	-5,3860887E-005
2	0	0	1	1	3,764375675847090E+004	1,3234025E+000	1,3228917E+000	-3,344214712539973E-002	2,000000000000000E+000	-5,0739551E-001	41	-4,4240340E-005
2	0	0	1	1	3,767231645852397E+004	1,3433944E+000	1,3428630E+000	-2,599393950772980E-002	2,000000000000000E+000	-5,0824046E-001	41	-3,4906298E-005
2	0	0	1	1	3,770087625857722E+004	1,3633862E+000	1,3628439E+000	-1,874522522478475E-002	2,000000000000000E+000	-5,0887603E-001	41	-2,5546815E-005
2	0	0	1	1	3,772943615863041E+004	1,3833781E+000	1,3828208E+000	-1,167337701231165E-002	2,000000000000000E+000	-5,0930721E-001	41	-1,6142189E-005
2	0	0	1	1	3,775799585868360E+004	1,4033700E+000	1,4028708E+000	-4,532439568753530E-003	2,000000000000000E+000	-5,0953650E-001	42	-6,3584271E-006
2	1	0	1	1	3,778655555873690E+004	1,4233615E+000	1,4227622E+000	2,553326732268272E-003	2,000000000000000E+000	-5,0956309E-001	42	3,6327767E-006
2	1	0	1	1	3,781511545878998E+004	1,4433537E+000	1,4428210E+000	1,011096020886107E-002	2,000000000000000E+000	-5,0938249E-001	42	1,4588306E-005
2	1	0	1	1	3,784367525884323E+004	1,4633453E+000	1,4627683E+000	1,785670478754109E-002	2,000000000000000E+000	-5,0898194E-001	41	2,6120222E-005
2	1	0	1	1	3,787223505889648E+004	1,4833374E+000	1,4827641E+000	2,618718978496015E-002	2,000000000000000E+000	-5,0835133E-001	41	3,8829425E-005
2	1	0	1	1	3,790079485894949E+004	1,5033294E+000	1,5027344E+000	3,507864886814829E-002	2,000000000000000E+000	-5,0747460E-001	41	5,2713895E-005
2	1	0	1	1	3,792935455900279E+004	1,5233209E+000	1,5227128E+000	4,470786000023813E-002	2,000000000000000E+000	-5,0633389E-001	41	6,8077235E-005
2	1	0	1	1	3,795791435905593E+004	1,5433128E+000	1,5427146E+000	5,526197995245319E-002	2,000000000000000E+000	-5,0490588E-001	41	8,5253465E-005
2	1	0	1	1	3,798647425910924E+004	1,5633047E+000	1,5626795E+000	6,730491761816004E-002	2,000000000000000E+000	-5,0315732E-001	41	1,0517602E-004
2	1	0	1	1	3,801503395916231E+004	1,5832963E+000	1,5826422E+000	8,147002083217836E-002	2,000000000000000E+000	-5,0103450E-001	41	1,2893790E-004
2	1	0	1	1	3,804359385921550E+004	1,6032884E+000	1,6026387E+000	9,857704853183824E-002	2,000000000000000E+000	-4,9846968E-001	41	1,5798339E-004
2	1	0	1	1	3,807215355926892E+004	1,6232799E+000	1,6227127E+000	1,228813509446376E-001	2,000000000000000E+000	-4,9532822E-001	40	1,9940113E-004
2	1	0	0	1	3,810071335932193E+004	1,6432719E+000	1,6427250E+000	1,581016430909212E-001	2,000000000000000E+000	-4,9133563E-001	40	2,5971752E-004
2	1	0	1	1	3,812927315937524E+004	1,6632639E+000	1,6626753E+000	1,999337394143221E-001	2,000000000000000E+000	-4,8622802E-001	40	3,3242488E-004
2	1	0	1	1	3,815783295942843E+004	1,6832554E+000	1,6827124E+000	2,448660982937390E-001	2,000000000000000E+000	-4,7987673E-001	40	4,1203923E-004
2	1	0	1	1	3,818639285948151E+004	1,7032474E+000	1,7026818E+000	2,913994503321159E-001	2,000000000000000E+000	-4,7221786E-001	40	4,9616053E-004
2	1	0	1	1	3,821495265953470E+004	1,7232394E+000	1,7226495E+000	3,390751172958667E-001	2,000000000000000E+000	-4,6321201E-001	40	5,8410759E-004
2	1	0	1	1	3,824351235958794E+004	1,7432312E+000	1,7426305E+000	3,875498693112807E-001	2,000000000000000E+000	-4,5283252E-001	40	6,7535619E-004
2	1	0	0	1	3,827207215964119E+004	1,7632229E+000	1,7625946E+000	4,359529849325643E-001	2,000000000000000E+000	-4,4106656E-001	40	7,6840835E-004
2	1	0	1	1	3,830063195969432E+004	1,7832147E+000	1,7825820E+000	4,838631077670446E-001	2,000000000000000E+000	-4,2792219E-001	40	8,6252566E-004
2	1	0	0	1	3,832919175974745E+004	1,8032066E+000	1,8025694E+000	5,300495757229404E-001	2,000000000000000E+000	-4,1343358E-001	40	9,5545116E-004
2	1	0	1	1	3,835775155980070E+004	1,8231983E+000	1,8225613E+000	5,735686544942746E-001	2,000000000000000E+000	-3,9766079E-001	40	1,0453640E-003
2	1	0	0	1	3,838631135985383E+004	1,8431903E+000	1,8425713E+000	6,130812105382182E-001	2,000000000000000E+000	-3,8069990E-001	40	1,1296459E-003
2	1	0	1	1	3,841487115990720E+004	1,8631821E+000	1,8625243E+000	6,475716367521915E-001	2,000000000000000E+000	-3,6268017E-001	40	1,2061179E-003
2	1	0	1	1	3,844343095996045E+004	1,8831741E+000	1,8825091E+000	6,759388959994990E-001	2,000000000000000E+000	-3,4376210E-001	40	1,2724611E-003
2	1	0	1	1	3,847199066001351E+004	1,9031659E+000	1,9025135E+000	6,974409421787513E-001	2,000000000000000E+000	-3,2412848E-001	40	1,3268908E-003
2	1	0	1	1	3,850055046006670E+004	1,9231576E+000	1,9225438E+000	7,116566302377195E-001	2,000000000000000E+000	-3,0398253E-001	40	1,3681910E-003
2	1	0	1	1	3,852911026011989E+004	1,9431497E+000	1,9424750E+000	7,167248906556125E-001	2,000000000000000E+000	-2,8356248E-001	40	1,3922201E-003
2	1	0	1	1	3,855767016017309E+004	1,9631413E+000	1,9625148E+000	7,132571407506800E-001	2,000000000000000E+000	-2,6311630E-001	40	1,3997777E-003
2	1	0	1	1	3,858622986022633E+004	1,9831333E+000	1,9824927E+000	7,005978057303448E-001	2,000000000000000E+000	-2,4290252E-001	40	1,3889300E-003
2	1	0	1	1	3,861478986027953E+004	2,0031254E+000	2,0024843E+000	6,784708715209806E-001	2,000000000000000E+000	-2,2318429E-001	40	1,3586272E-003
2	1	0	1	1	3,864334946033265E+004	2,0231168E+000	2,0224822E+000	6,474417384333941E-001	2,000000000000000E+000	-2,0422621E-001	40	1,3094393E-003
2	1	0	1	1	3,867190926038590E+004	2,0431087E+000	2,0424821E+000	6,080579245079969E-001	2,000000000000000E+000	-1,8627717E-001	40	1,2419474E-003
2	1	0	1	1	3,870046916043921E+004	2,0631006E+000	2,0625002E+000	5,620141113525197E-001	2,000000000000000E+000	-1,6955265E-001	40	1,1591542E-003
2	1	0	1	1	3,872902886049240E+004	2,0830925E+000	2,0824897E+000	5,113140164866010E-001	2,000000000000000E+000	-1,5421678E-001	40	1,0648062E-003
2	1	0	1	1	3,875758866054553E+004	2,1030843E+000	2,1025043E+000	4,592536608341034E-001	2,000000000000000E+000	-1,4035521E-001	40	9,6558279E-004
2	1	0	1	1	3,878614866059856E+004	2,1230762E+000	2,1225083E+000	4,086140295850864E-001	2,000000000000000E+000	-1,2796873E-001	40	8,6728664E-004
2	1	0	1	1	3,881470846065204E+004	2,1430683E+000	2,1425159E+000	3,614656906663970E-001	2,000000000000000E+000	-1,1698138E-001	40	7,7444600E-004
2	1	0	1	1	3,884326826070505E+004	2,1630602E+000	2,1625214E+000	3,192204798300717E-001	2,000000000000000E+000	-1,0727235E-001	40	6,9032109E-004
2	1	0	1	1	3,887182816075836E+004	2,1830518E+000	2,1825302E+000	2,819094027058355E-001	2,000000000000000E+000	-9,8698735E-002	40	6,1527576E-004
2	1	0	1	1	3,890038796081161E+004	2,2030437E+000	2,2024939E+000	2,493926317941944E-001	2,000000000000000E+000	-9,1121294E-002	40	5,4928573E-004
2	1	0	1	1	3,892894766086468E+004	2,2230353E+000	2,2225034E+000	2,212400343231287E-001	2,000000000000000E+000	-8,4408075E-002	40	4,9170671E-004
2	1	0	1	1	3,895750746091787E+004	2,2430272E+000	2,2424736E+000	1,965904646581293E-001	2,000000000000000E+000	-7,8448527E-002	40	4,4084893E-004
2	1	0	1	1	3,898606726097106E+004	2,2630191E+000	2,2624719E+000	1,752079754278506E-001	2,000000000000000E+000	-7,3145241E-002	40	3,9640313E-004
2	1	0	1	1	3,901462696102425E+004	2,2830107E+000	2,2824633E+000	1,567424566299296E-001	2,000000000000000E+000	-6,8409443E-002	40	3,5775889E-004
2	1	0	1	1	3,904318676107738E+004	2,3030026E+000	2,3024702E+000	1,408805267201025E-001	2,000000000000000E+000	-6,4163283E-002	40	3,2437322E-004
2	1	0	1	1	3,907174656113074E+004	2,3229945E+000	2,3224514E+000	1,272643334736527E-001	2,000000000000000E+000	-6,0337771E-002	40	2,9556523E-004
2	1	0	1	1	3,910030646118405E+004	2,3429868E+000	2,3424561E+000	1,156103283371914E-001	2,000000000000000E+000	-5,6872122E-002	40	2,7081213E-004
2	1	0	1	1	3,912886626123707E+004	2,3629785E+000	2,3624249E+000	1,057325171232391E-001	2,000000000000000E+000	-5,3712588E-002	40	2,4978514E-004
2	1	0	1	1	3,915742606129008E+004	2,3829703E+000	2,3824563E+000	9,730620333553586E-002	2,000000000000000E+000	-5,0814368E-002	40	2,3182778E-004
2	1	0	1	1	3,918598596134363E+004	2,4029620E+000	2,4024742E+000	9,001398872449606E-002	2,000000000000000E+000	-4,8140023E-002	40	2,1625629E-004
2	1	0	1	1	3,921454566139670E+004	2,4229538E+000	2,4224508E+000	8,374497945769277E-002	2,000000000000000E+000	-4,5658682E-002	40	2,0286809E-004
2	1	0	1	1	3,924310546144977E+004	2,4429457E+000	2,4424510E+000	7,827836459436743E-002	2,000000000000000E+000	-4,3344777E-002	40	1,9119107E-004
2	1	0	1	1	3,927166526150308E+004	2,4629378E+000	2,4624286E+000	7,342746285920165E-002	2,000000000000000E+000	-4,1178282E-002	40	1,8080989E-004
2	1	0	1	1	3,930022506155621E+004	2,4829295E+000	2,4824064E+000	6,917017044203244E-002	2,000000000000000E+000	-3,9141040E-002	40	1,7170847E-004
2	1	0	1	1	3,932878466160939E+004	2,5029213E+000	2,5024211E+000	6,541603132081314E-002	2,000000000000000E+000	-3,7218265E-002	40	1,6369845E-004
2	1	0	1	1	3,935734446166246E+004	2,5229132E+000	2,5224082E+000	6,211588365358767E-002	2,000000000000000E+000	-3,5396270E-002	40	1,5668162E-004
2	1	0	1	1	3,938590436171577E+004	2,5429049E+000	2,5424397E+000	5,926734206663885E-002	2,000000000000000E+000	-3,3661783E-002	40	1,5068364E-004
2	1	0	1	1	3,941446426176903E+004	2,5628972E+000	2,5624087E+000	5,674961008097756E-002	2,000000000000000E+000	-3,2004315E-002	40	1,4541569E-004
2	1	0	1	1	3,944302406182210E+004	2,5828891E+000	2,5824041E+000	5,460928860011105E-002	2,000000000000000E+000	-3,0412922E-002	40	1,4102325E-004
2	1	0	1	1	3,947158386187535E+004	2,6028807E+000	2,6023591E+000	5,273889547250188E-002	2,000000000000000E+000	-2,8878568E-002	40	1,3724554E-004
2	1	0	1	1	3,950014346192859E+004	2,6228721E+000	2,6223810E+000	5,109113631362461E-002	2,000000000000000E+000	-2,7393943E-002	40	1,3398043E-004
2	1	0	1	1	3,952870326198172E+004	2,6428640E+000	2,6423860E+000	4,962255165133300E-002	2,000000000000000E+000	-2,5953755E-002	40	1,3112194E-004
2	1	0	1	1	3,955740586203529E+004	2,6629560E+000	2,6624198E+000	4,833254663025971E-002	2,000000000000000E+000	-2,4547240E-002	41	1,2868152E-004
2	1	0	1	1	3,958596566208848E+004	2,6829476E+000	2,6823931E+000	4,703338734186036E-002	2,000000000000000E+000	-2,3183329E-002	41	1,2616203E-004
2	1	0	1	0	3,961252666213788E+004	2,6984415E+000	2,6979120E+000	4,184838324549461E-002	2,000000000000000E+000	-2,1954676E-002	41	1,1290325E-004
2	1	0	1	0	3,964108666219120E+004	2,6784494E+000	2,6779187E+000	3,126486523894467E-002	2,000000000000000E+000	-2,0943746E-002	41	8,3724764E-005
2	1	0	1	0	3,966964626224455E+004	2,6584580E+000	2,6579502E+000	2,558347590411889E-002	2,000000000000000E+000	-2,0139011E-002	41	6,7999601E-005
2	1	0	1	0	3,969820606229757E+004	2,6384661E+000	2,6379688E+000	2,135791511552665E-002	2,000000000000000E+000	-1,9473586E-002	41	5,6341512E-005
2	1	0	1	0	3,972676586235058E+004	2,6184742E+000	2,6179671E+000	1,804344894006207E-002	2,000000000000000E+000	-1,8915227E-002	41	4,7237158E-005
2	1	0	1	0	3,975532566240407E+004	2,5984824E+000	2,5979702E+000	1,535789423859962E-002	2,000000000000000E+000	-1,8441861E-002	41	3,9899351E-005
2	1	0	1	0	3,978388546245708E+004	2,5784905E+000	2,5779831E+000	1,313348065170866E-002	2,000000000000000E+000	-1,8038077E-002	41	3,3857890E-005
2	1	0	1	0	3,981244536251039E+004	2,5584984E+000	2,5579987E+000	1,128257168408098E-002	2,000000000000000E+000	-1,7692376E-002	41	2,8860803E-005
2	1	0	1	0	3,984100506256358E+004	2,5385065E+000	2,5380330E+000	9,675493164277127E-003	2,000000000000000E+000	-1,7396046E-002	41	2,4556721E-005
2	1	0	1	0	3,985628416259191E+004	2,5277619E+000	2,5272379E+000	8,731572721362782E-003	2,000000000000000E+000	-1,7255584E-002	41	2,2066761E-005