File: Dati/201117/CV_LTO-CB_10 layer_grafite_cu_05_1mVs_02_CV_C03.mpt
EC-Lab ASCII FILE
Nb header lines : 57

Cyclic Voltammetry

Run on channel : 3 (SN 6807)
User :
Electrode connection : standard
Ewe ctrl range : min = 0,00 V, max = 5,00 V
Ewe,I filtering : 50 kHz
Safety Limits :
	Do not start on E overload
Channel : Grounded
Acquisition started on : 11/17/2020 16:29:06
Saved on :
	File : CV_LTO-CB_10 layer_grafite_cu_05_1mVs_02_CV_C03.mpr
	Directory : C:\Users\labsuperfici\Desktop\Biologic\Users\Prisca Viviani\201117\
	Host : 10.78.33.0
Device : VSP-300 (SN 0638)
Address : USB
EC-Lab for windows v11.31 (software)
Internet server v11.30 (firmware)
Command interpretor v11.31 (firmware)
Electrode material :
Initial state :
Electrolyte :
Comments :
Cable : standard
Reference electrode : SCE Saturated Calomel Electrode (0,241 V)
Electrode surface area : 0,001 cm²
Characteristic mass : 0,001 g
Equivalent Weight : 0,000 g/eq.
Density : 0,000 g/cm3
Cycle Definition : Charge/Discharge alternance
Ei (V)              0,000
vs.                 Eoc
dE/dt               0,500
dE/dt unit          mV/s
E1 (V)              1,000
vs.                 Ref
Step percent        50
N                   10
E range min (V)     0,000
E range max (V)     5,000
I Range             Auto
I Range min         Unset
I Range max         Unset
I Range init        Unset
Bandwidth           8
E2 (V)              2,700
vs.                 Ref
nc cycles           1
Reverse Scan        1
Ef (V)              0,000
vs.                 Eoc

mode	ox/red	error	control changes	counter inc.	time/s	control/V	Ewe/V	<I>/mA	cycle number	(Q-Qo)/C	I Range	P/W
2	0	0	1	0	5,208252683060069E+003	2,5277619E+000	2,5273371E+000	-1,800074125640094E-003	1,000000000000000E+000	0,0000000E+000	42	-4,5493939E-006
2	0	0	1	0	5,247336382586880E+003	2,5082188E+000	2,5077600E+000	-2,596363275388744E-003	1,000000000000000E+000	-9,7032942E-005	42	-6,5110562E-006
2	0	0	1	0	5,287320182102791E+003	2,4882271E+000	2,4877779E+000	-2,806188352496561E-003	1,000000000000000E+000	-2,1075763E-004	42	-6,9811736E-006
2	0	0	1	0	5,327303881618718E+003	2,4682355E+000	2,4677906E+000	-2,995509739615855E-003	1,000000000000000E+000	-3,3283039E-004	42	-7,3922906E-006
2	0	0	1	0	5,367287681134621E+003	2,4482436E+000	2,4477980E+000	-3,199588505713604E-003	1,000000000000000E+000	-4,6258952E-004	42	-7,8319463E-006
2	0	0	1	0	5,407271380650513E+003	2,4282515E+000	2,4278066E+000	-3,388638649112527E-003	1,000000000000000E+000	-6,0031383E-004	42	-8,2269589E-006
2	0	0	1	0	5,447255080166447E+003	2,4082596E+000	2,4078133E+000	-3,642264440169976E-003	1,000000000000000E+000	-7,4659247E-004	42	-8,7698927E-006
2	0	0	1	0	5,487238779682339E+003	2,3882678E+000	2,3878117E+000	-3,897241522498514E-003	1,000000000000000E+000	-9,0276019E-004	42	-9,3058788E-006
2	0	0	1	0	5,527222279198242E+003	2,3682761E+000	2,3678319E+000	-4,141920268619759E-003	1,000000000000000E+000	-1,0696329E-003	42	-9,8073715E-006
2	0	0	1	0	5,567206078714160E+003	2,3482842E+000	2,3478765E+000	-4,496496405968511E-003	1,000000000000000E+000	-1,2488182E-003	42	-1,0557218E-005
2	0	0	1	0	5,607189778230080E+003	2,3282924E+000	2,3278542E+000	-4,864509433547187E-003	1,000000000000000E+000	-1,4418921E-003	42	-1,1323868E-005
2	0	0	1	0	5,647173277745977E+003	2,3083007E+000	2,3078976E+000	-5,291714886397694E-003	1,000000000000000E+000	-1,6507475E-003	42	-1,2212736E-005
2	0	0	1	0	5,687156977261911E+003	2,2883086E+000	2,2878866E+000	-5,784369311073345E-003	1,000000000000000E+000	-1,8777538E-003	42	-1,3233981E-005
2	0	0	1	0	5,727140776777800E+003	2,2683167E+000	2,2678926E+000	-6,362042472776032E-003	1,000000000000000E+000	-2,1261559E-003	42	-1,4428429E-005
2	0	0	1	0	5,767124476293706E+003	2,2483251E+000	2,2479312E+000	-7,007368661527902E-003	1,000000000000000E+000	-2,3990874E-003	42	-1,5752083E-005
2	0	0	1	0	5,807108275809616E+003	2,2283332E+000	2,2279232E+000	-7,794352486365869E-003	1,000000000000000E+000	-2,7006203E-003	42	-1,7365219E-005
2	0	0	1	0	5,847091875325539E+003	2,2083414E+000	2,2079558E+000	-8,638415520977050E-003	1,000000000000000E+000	-3,0346862E-003	42	-1,9073241E-005
2	0	0	1	0	5,887075474841433E+003	2,1883495E+000	2,1879790E+000	-9,658225059624020E-003	1,000000000000000E+000	-3,4059291E-003	42	-2,1131993E-005
2	0	0	1	0	5,927059174357360E+003	2,1683578E+000	2,1678786E+000	-1,070301555637743E-002	1,000000000000000E+000	-3,8194575E-003	41	-2,3202838E-005
2	0	0	1	0	5,967042873873252E+003	2,1483657E+000	2,1478841E+000	-1,187260940737411E-002	1,000000000000000E+000	-4,2774035E-003	41	-2,5500989E-005
2	0	0	1	0	6,007026473389182E+003	2,1283741E+000	2,1278980E+000	-1,318255315491437E-002	1,000000000000000E+000	-4,7839060E-003	41	-2,8051129E-005
2	0	0	1	0	6,047010072905090E+003	2,1083822E+000	2,1079419E+000	-1,455486517135451E-002	1,000000000000000E+000	-5,3436137E-003	41	-3,0680811E-005
2	0	0	1	0	6,086993872421008E+003	2,0883904E+000	2,0879328E+000	-1,611523691066961E-002	1,000000000000000E+000	-5,9619308E-003	41	-3,3647531E-005
2	0	0	1	0	6,126977571936899E+003	2,0683985E+000	2,0679135E+000	-1,775005979523223E-002	1,000000000000000E+000	-6,6446844E-003	41	-3,6705587E-005
2	0	0	1	0	6,166961371452802E+003	2,0484064E+000	2,0479226E+000	-1,963511387827122E-002	1,000000000000000E+000	-7,3978039E-003	41	-4,0211195E-005
2	0	0	1	0	6,206945070968723E+003	2,0284150E+000	2,0279541E+000	-2,167909762296422E-002	1,000000000000000E+000	-8,2290936E-003	41	-4,3964214E-005
2	0	0	1	0	6,246928770484621E+003	2,0084229E+000	2,0079417E+000	-2,394300195824978E-002	1,000000000000000E+000	-9,1469651E-003	41	-4,8076152E-005
2	0	0	1	0	6,286912470000534E+003	1,9884312E+000	1,9879812E+000	-2,644355128629933E-002	1,000000000000000E+000	-1,0159639E-002	41	-5,2569281E-005
2	0	0	1	0	6,326896169516462E+003	1,9684395E+000	1,9679244E+000	-2,925121131017783E-002	1,000000000000000E+000	-1,1278627E-002	41	-5,7564172E-005
2	0	0	1	0	6,366879869032346E+003	1,9484475E+000	1,9479786E+000	-3,242653907368864E-002	1,000000000000000E+000	-1,2517146E-002	41	-6,3166204E-005
2	0	0	1	0	6,406863568548273E+003	1,9284557E+000	1,9279904E+000	-3,602647897098166E-002	1,000000000000000E+000	-1,3891132E-002	41	-6,9458707E-005
2	0	0	1	0	6,446847168064174E+003	1,9084637E+000	1,9079896E+000	-4,004681090436917E-002	1,000000000000000E+000	-1,5417402E-002	41	-7,6408898E-005
2	0	0	1	0	6,486830767580104E+003	1,8884721E+000	1,8880221E+000	-4,460095915592582E-002	1,000000000000000E+000	-1,7114226E-002	41	-8,4207597E-005
2	0	0	1	0	6,526814567096008E+003	1,8684802E+000	1,8679987E+000	-4,971672903495727E-002	1,000000000000000E+000	-1,9004034E-002	41	-9,2870789E-005
2	0	0	1	0	6,566798366611896E+003	1,8484883E+000	1,8480411E+000	-5,547324749230875E-002	1,000000000000000E+000	-2,1111105E-002	41	-1,0251684E-004
2	0	0	1	0	6,606781966127834E+003	1,8284962E+000	1,8280314E+000	-6,200558555646296E-002	1,000000000000000E+000	-2,3463072E-002	41	-1,1334816E-004
2	0	0	1	0	6,646765565643720E+003	1,8085045E+000	1,8080710E+000	-6,924007791099210E-002	1,000000000000000E+000	-2,6090749E-002	41	-1,2519099E-004
2	0	0	1	0	6,686749165159650E+003	1,7885129E+000	1,7880729E+000	-7,738716506175791E-002	1,000000000000000E+000	-2,9026376E-002	41	-1,3837390E-004
2	0	0	1	0	6,726732964675553E+003	1,7685210E+000	1,7680969E+000	-8,639911715056603E-002	1,000000000000000E+000	-3,2304112E-002	41	-1,5276202E-004
2	0	0	1	0	6,766716764191442E+003	1,7485290E+000	1,7481114E+000	-9,623539800323799E-002	1,000000000000000E+000	-3,5958529E-002	41	-1,6823020E-004
2	0	0	1	0	6,806700363707379E+003	1,7285370E+000	1,7280240E+000	-1,070560729482133E-001	1,000000000000000E+000	-4,0027108E-002	40	-1,8499546E-004
2	0	0	1	0	6,846684063223263E+003	1,7085452E+000	1,7080473E+000	-1,183680303288288E-001	1,000000000000000E+000	-4,4539340E-002	40	-2,0217820E-004
2	0	0	1	0	6,886667662739172E+003	1,6885535E+000	1,6880438E+000	-1,304028362595380E-001	1,000000000000000E+000	-4,9518429E-002	40	-2,2012570E-004
2	0	0	1	0	6,926651362255085E+003	1,6685618E+000	1,6680171E+000	-1,427046048648258E-001	1,000000000000000E+000	-5,4982875E-002	40	-2,3803372E-004
2	0	0	1	0	6,966635161771002E+003	1,6485698E+000	1,6480656E+000	-1,554490714212911E-001	1,000000000000000E+000	-6,0950115E-002	40	-2,5619025E-004
2	0	0	1	0	7,006618961286920E+003	1,6285781E+000	1,6280648E+000	-1,690023771213829E-001	1,000000000000000E+000	-6,7441434E-002	40	-2,7514683E-004
2	0	0	1	0	7,046602560802814E+003	1,6085861E+000	1,6080991E+000	-1,837537818499531E-001	1,000000000000000E+000	-7,4493624E-002	40	-2,9549430E-004
2	0	0	1	0	7,086586160318751E+003	1,5885942E+000	1,5880824E+000	-2,005087361450553E-001	1,000000000000000E+000	-8,2173511E-002	40	-3,1842440E-004
2	0	0	1	0	7,126569759834645E+003	1,5686026E+000	1,5681075E+000	-2,203824801963695E-001	1,000000000000000E+000	-9,0582013E-002	40	-3,4558342E-004
2	0	0	1	0	7,166553559350563E+003	1,5486106E+000	1,5481317E+000	-2,446504227014453E-001	1,000000000000000E+000	-9,9872939E-002	40	-3,7875108E-004
2	0	0	1	0	7,206537358866466E+003	1,5286189E+000	1,5281248E+000	-2,743544799884505E-001	1,000000000000000E+000	-1,1023694E-001	40	-4,1924790E-004
2	0	0	1	0	7,246520858382370E+003	1,5086269E+000	1,5081037E+000	-3,121345355747061E-001	1,000000000000000E+000	-1,2193526E-001	40	-4,7073126E-004
2	0	0	1	0	7,286504657898287E+003	1,4886351E+000	1,4881703E+000	-3,621200093585935E-001	1,000000000000000E+000	-1,3537472E-001	40	-5,3889625E-004
2	0	0	1	0	7,326488257414181E+003	1,4686433E+000	1,4682014E+000	-4,228565086154110E-001	1,000000000000000E+000	-1,5105937E-001	40	-6,2083855E-004
2	0	0	1	0	7,366471956930109E+003	1,4486514E+000	1,4482082E+000	-4,840639035739640E-001	1,000000000000000E+000	-1,6921987E-001	40	-7,0102530E-004
2	0	0	1	0	7,406455756446027E+003	1,4286596E+000	1,4282141E+000	-5,367649818094586E-001	1,000000000000000E+000	-1,8967570E-001	40	-7,6661533E-004
2	0	0	1	0	7,446439255961930E+003	1,4086677E+000	1,4082377E+000	-5,758780531750372E-001	1,000000000000000E+000	-2,1197298E-001	40	-8,1097317E-004
2	0	0	1	0	7,486422955477843E+003	1,3886760E+000	1,3882211E+000	-5,999655329030578E-001	1,000000000000000E+000	-2,3553640E-001	40	-8,3288486E-004
2	0	0	1	0	7,526406654993734E+003	1,3686841E+000	1,3682712E+000	-6,091521230630530E-001	1,000000000000000E+000	-2,5976062E-001	40	-8,3348533E-004
2	0	0	1	0	7,566390354509669E+003	1,3486923E+000	1,3482730E+000	-6,060728425518889E-001	1,000000000000000E+000	-2,8409749E-001	40	-8,1715168E-004
2	0	0	1	0	7,606374154025572E+003	1,3287004E+000	1,3282424E+000	-5,937805086853816E-001	1,000000000000000E+000	-3,0811411E-001	40	-7,8868447E-004
2	0	0	1	0	7,646357653541490E+003	1,3087084E+000	1,3082548E+000	-5,749319952542180E-001	1,000000000000000E+000	-3,3149913E-001	40	-7,5215759E-004
2	0	0	1	0	7,686341353057389E+003	1,2887167E+000	1,2882729E+000	-5,530104574703434E-001	1,000000000000000E+000	-3,5406429E-001	40	-7,1242836E-004
2	0	0	1	0	7,726325052573287E+003	1,2687248E+000	1,2682911E+000	-5,302089450837777E-001	1,000000000000000E+000	-3,7572709E-001	40	-6,7245931E-004
2	0	0	1	0	7,766308752089186E+003	1,2487332E+000	1,2482880E+000	-5,079239618163154E-001	1,000000000000000E+000	-3,9648306E-001	40	-6,3403539E-004
2	0	0	1	0	7,806292451605099E+003	1,2287410E+000	1,2282832E+000	-4,862282895929928E-001	1,000000000000000E+000	-4,1636008E-001	40	-5,9722603E-004
2	0	0	1	0	7,846276151121012E+003	1,2087492E+000	1,2082980E+000	-4,659593180396087E-001	1,000000000000000E+000	-4,3540016E-001	40	-5,6301767E-004
2	0	0	1	0	7,886259750636920E+003	1,1887575E+000	1,1882887E+000	-4,465858302505321E-001	1,000000000000000E+000	-4,5364875E-001	40	-5,3067290E-004
2	0	0	1	0	7,926243550152838E+003	1,1687657E+000	1,1683068E+000	-4,283223556258466E-001	1,000000000000000E+000	-4,7114354E-001	40	-5,0041196E-004
2	0	0	1	0	7,966227249668766E+003	1,1487738E+000	1,1483018E+000	-4,116304929204455E-001	1,000000000000000E+000	-4,8793647E-001	40	-4,7267604E-004
2	0	0	1	0	8,006210849184652E+003	1,1287819E+000	1,1283076E+000	-3,969539794212409E-001	1,000000000000000E+000	-5,0410044E-001	40	-4,4788618E-004
2	0	0	1	0	8,046194348700563E+003	1,1087903E+000	1,1083491E+000	-3,848890523563639E-001	1,000000000000000E+000	-5,1973069E-001	40	-4,2659143E-004
2	0	0	1	0	8,086178148216481E+003	1,0887983E+000	1,0883271E+000	-3,737967674919354E-001	1,000000000000000E+000	-5,3489947E-001	40	-4,0681314E-004
2	0	0	1	0	8,126161947732398E+003	1,0688065E+000	1,0683194E+000	-3,644415610185519E-001	1,000000000000000E+000	-5,4965830E-001	40	-3,8934001E-004
2	0	0	1	0	8,166145547248299E+003	1,0488144E+000	1,0483333E+000	-3,568383851860197E-001	1,000000000000000E+000	-5,6407541E-001	40	-3,7408556E-004
2	0	0	1	0	8,206129246764234E+003	1,0288227E+000	1,0283427E+000	-3,515517525046814E-001	1,000000000000000E+000	-5,7823628E-001	40	-3,6151567E-004
2	0	0	1	0	8,246112846280128E+003	1,0088309E+000	1,0083224E+000	-3,487275987449001E-001	1,000000000000000E+000	-5,9223425E-001	40	-3,5162983E-004
2	0	0	1	0	8,282898545834723E+003	1,0095307E+000	1,0090493E+000	-3,005960487791599E-001	1,000000000000000E+000	-6,0452503E-001	40	-3,0331622E-004
2	0	0	1	0	8,322882345350634E+003	1,0295225E+000	1,0290354E+000	-2,400597819710453E-001	1,000000000000000E+000	-6,1523980E-001	40	-2,4703002E-004
2	0	0	1	0	8,362865944866557E+003	1,0495142E+000	1,0490122E+000	-1,976352347020858E-001	1,000000000000000E+000	-6,2393826E-001	40	-2,0732176E-004
2	0	0	1	0	8,402849544382458E+003	1,0695062E+000	1,0689820E+000	-1,654725270451114E-001	1,000000000000000E+000	-6,3116288E-001	40	-1,7688716E-004
2	0	0	1	0	8,442833343898412E+003	1,0894980E+000	1,0889726E+000	-1,400737874006430E-001	1,000000000000000E+000	-6,3724601E-001	40	-1,5253651E-004
2	0	0	1	0	8,482817043414310E+003	1,1094897E+000	1,1089721E+000	-1,195173604841904E-001	1,000000000000000E+000	-6,4241326E-001	40	-1,3254142E-004
2	0	0	1	0	8,522800842930192E+003	1,1294816E+000	1,1289643E+000	-1,024851611252304E-001	1,000000000000000E+000	-6,4683414E-001	40	-1,1570209E-004
2	0	0	1	0	8,562784642446146E+003	1,1494735E+000	1,1489259E+000	-8,815275287356339E-002	1,000000000000000E+000	-6,5063143E-001	40	-1,0128098E-004
2	0	0	1	0	8,602768241962040E+003	1,1694653E+000	1,1689397E+000	-7,588783401133159E-002	1,000000000000000E+000	-6,5389746E-001	40	-8,8708301E-005
2	0	0	1	0	8,642751941477924E+003	1,1894572E+000	1,1889386E+000	-6,521628055134135E-002	1,000000000000000E+000	-6,5670383E-001	40	-7,7538156E-005
2	0	0	1	0	8,682735740993870E+003	1,2094491E+000	1,2089156E+000	-5,596828852317363E-002	1,000000000000000E+000	-6,5911621E-001	40	-6,7660934E-005
2	0	0	1	0	8,722719540509745E+003	1,2294407E+000	1,2289382E+000	-4,749864588931496E-002	1,000000000000000E+000	-6,6117603E-001	41	-5,8372902E-005
2	0	0	1	0	8,762703240025650E+003	1,2494327E+000	1,2489539E+000	-3,992785086390360E-002	1,000000000000000E+000	-6,6291362E-001	41	-4,9868046E-005
2	0	0	1	0	8,802686939541600E+003	1,2694246E+000	1,2689078E+000	-3,303765420259192E-002	1,000000000000000E+000	-6,6436368E-001	41	-4,1921736E-005
2	0	0	1	0	8,842670639057469E+003	1,2894163E+000	1,2889385E+000	-2,663216430208876E-002	1,000000000000000E+000	-6,6554773E-001	41	-3,4327222E-005
2	0	0	1	0	8,882654338573382E+003	1,3094083E+000	1,3088845E+000	-2,058047064268293E-002	1,000000000000000E+000	-6,6648388E-001	41	-2,6937460E-005
2	0	0	1	0	8,922638138089271E+003	1,3293998E+000	1,3288870E+000	-1,488550869201599E-002	1,000000000000000E+000	-6,6718566E-001	41	-1,9781159E-005
2	0	0	1	0	8,962621737605194E+003	1,3493919E+000	1,3488741E+000	-9,418826477720577E-003	1,000000000000000E+000	-6,6766542E-001	41	-1,2704811E-005
2	0	0	1	0	9,002605537121104E+003	1,3693838E+000	1,3689345E+000	-4,147288403550995E-003	1,000000000000000E+000	-6,6793120E-001	42	-5,6773661E-006
2	1	0	1	0	9,042789236634577E+003	1,3894755E+000	1,3889676E+000	1,283482732348615E-003	1,000000000000000E+000	-6,6798466E-001	42	1,7827160E-006
2	1	0	1	0	9,082772836150485E+003	1,4094673E+000	1,4088978E+000	6,749099171155175E-003	1,000000000000000E+000	-6,6782010E-001	42	9,5087908E-006
2	1	0	1	0	9,122756735666400E+003	1,4294593E+000	1,4289223E+000	1,255128083876129E-002	1,000000000000000E+000	-6,6742933E-001	41	1,7934804E-005
2	1	0	1	0	9,162740535182355E+003	1,4494512E+000	1,4489144E+000	1,875501923453926E-002	1,000000000000000E+000	-6,6679877E-001	41	2,7174417E-005
2	1	0	1	0	9,202724134698219E+003	1,4694427E+000	1,4688795E+000	2,555750058155032E-002	1,000000000000000E+000	-6,6590875E-001	41	3,7540889E-005
2	1	0	1	0	9,242707734214142E+003	1,4894348E+000	1,4888763E+000	3,295776272596890E-002	1,000000000000000E+000	-6,6473579E-001	41	4,9070033E-005
2	1	0	1	0	9,282691533730045E+003	1,5094267E+000	1,5088530E+000	4,107232950587469E-002	1,000000000000000E+000	-6,6325194E-001	41	6,1972103E-005
2	1	0	1	0	9,322675333245948E+003	1,5294183E+000	1,5288271E+000	5,008674741527458E-002	1,000000000000000E+000	-6,6142678E-001	41	7,6573975E-005
2	1	0	1	0	9,362659032761861E+003	1,5494103E+000	1,5488007E+000	6,047954509458997E-002	1,000000000000000E+000	-6,5921694E-001	41	9,3670766E-005
2	1	0	1	0	9,402642732277774E+003	1,5694019E+000	1,5687581E+000	7,328700007231448E-002	1,000000000000000E+000	-6,5654594E-001	41	1,1496957E-004
2	1	0	1	0	9,442626431793731E+003	1,5893940E+000	1,5887631E+000	9,015406228914680E-002	1,000000000000000E+000	-6,5329200E-001	41	1,4323345E-004
2	1	0	1	0	9,482610131309615E+003	1,6093860E+000	1,6088340E+000	1,195353176372596E-001	1,000000000000000E+000	-6,4915687E-001	40	1,9231248E-004
2	1	0	1	0	9,522594130825542E+003	1,6293777E+000	1,6288046E+000	1,661872444304200E-001	1,000000000000000E+000	-6,4347643E-001	40	2,7068655E-004
2	1	0	1	0	9,562577730341407E+003	1,6493695E+000	1,6487963E+000	2,201235498578646E-001	1,000000000000000E+000	-6,3575774E-001	40	3,6293891E-004
2	1	0	1	0	9,602561429857320E+003	1,6693614E+000	1,6687537E+000	2,759132939559965E-001	1,000000000000000E+000	-6,2583506E-001	40	4,6043133E-004
2	1	0	1	0	9,642545229373267E+003	1,6893531E+000	1,6887627E+000	3,315072174823115E-001	1,000000000000000E+000	-6,1368006E-001	40	5,5983703E-004
2	1	0	1	0	9,682528828889161E+003	1,7093451E+000	1,7087615E+000	3,856962794576084E-001	1,000000000000000E+000	-5,9932655E-001	40	6,5906293E-004
2	1	0	1	0	9,722512728405054E+003	1,7293370E+000	1,7287326E+000	4,372574062924854E-001	1,000000000000000E+000	-5,8285666E-001	40	7,5590110E-004
2	1	0	1	0	9,762496527921001E+003	1,7493287E+000	1,7487274E+000	4,855227328561291E-001	1,000000000000000E+000	-5,6438786E-001	40	8,4904692E-004
2	1	0	1	0	9,802480227436870E+003	1,7693206E+000	1,7687066E+000	5,288535864442823E-001	1,000000000000000E+000	-5,4408211E-001	40	9,3538681E-004
2	1	0	1	0	9,842463826952771E+003	1,7893121E+000	1,7886882E+000	5,651394532804499E-001	1,000000000000000E+000	-5,2217144E-001	40	1,0108582E-003
2	1	0	1	0	9,882447526468663E+003	1,8093045E+000	1,8086644E+000	5,922319208437541E-001	1,000000000000000E+000	-4,9899364E-001	40	1,0711488E-003
2	1	0	1	0	9,922431325984595E+003	1,8292960E+000	1,8286620E+000	6,077415025316988E-001	1,000000000000000E+000	-4,7496364E-001	40	1,1113539E-003
2	1	0	1	0	9,962415125500491E+003	1,8492880E+000	1,8486633E+000	6,111845144362142E-001	1,000000000000000E+000	-4,5054802E-001	40	1,1298744E-003
2	1	0	1	0	1,000239872501639E+004	1,8692796E+000	1,8686619E+000	6,033922836239451E-001	1,000000000000000E+000	-4,2622340E-001	40	1,1275362E-003
2	1	0	1	0	1,004238252453232E+004	1,8892713E+000	1,8886869E+000	5,851288973504167E-001	1,000000000000000E+000	-4,0242308E-001	40	1,1051253E-003
2	1	0	1	0	1,008236612404823E+004	1,9092637E+000	1,9086879E+000	5,573486527074571E-001	1,000000000000000E+000	-3,7955561E-001	40	1,0638046E-003
2	1	0	1	0	1,012235002356413E+004	1,9292552E+000	1,9286429E+000	5,226290687260420E-001	1,000000000000000E+000	-3,5794482E-001	40	1,0079648E-003
2	1	0	1	0	1,016233372308005E+004	1,9492472E+000	1,9486603E+000	4,837875153018460E-001	1,000000000000000E+000	-3,3780587E-001	40	9,4273750E-004
2	1	0	1	0	1,020231742259595E+004	1,9692390E+000	1,9686352E+000	4,418184566493411E-001	1,000000000000000E+000	-3,1929633E-001	40	8,6977938E-004
2	1	0	1	0	1,024230102211186E+004	1,9892309E+000	1,9886798E+000	4,013103044056967E-001	1,000000000000000E+000	-3,0243933E-001	40	7,9807767E-004
2	1	0	1	0	1,028228482162781E+004	2,0092225E+000	2,0086622E+000	3,625534934782912E-001	1,000000000000000E+000	-2,8717327E-001	40	7,2824751E-004
2	1	0	1	0	1,032226882114372E+004	2,0292144E+000	2,0286803E+000	3,267699373464588E-001	1,000000000000000E+000	-2,7340150E-001	40	6,6291174E-004
2	1	0	1	0	1,036225232065961E+004	2,0492060E+000	2,0486414E+000	2,944898480312359E-001	1,000000000000000E+000	-2,6098770E-001	40	6,0330413E-004
2	1	0	1	0	1,040223602017554E+004	2,0691981E+000	2,0686593E+000	2,656237847745251E-001	1,000000000000000E+000	-2,4979700E-001	40	5,4948509E-004
2	1	0	1	0	1,044221981969142E+004	2,0891898E+000	2,0886371E+000	2,403174328015596E-001	1,000000000000000E+000	-2,3968761E-001	40	5,0193589E-004
2	1	0	1	0	1,048220361920734E+004	2,1091819E+000	2,1086557E+000	2,180033133332158E-001	1,000000000000000E+000	-2,3052891E-001	40	4,5969393E-004
2	1	0	1	0	1,052218771872323E+004	2,1291735E+000	2,1286423E+000	1,982719291269739E-001	1,000000000000000E+000	-2,2221091E-001	40	4,2205001E-004
2	1	0	1	0	1,056217141823916E+004	2,1491654E+000	2,1486378E+000	1,806339838082245E-001	1,000000000000000E+000	-2,1463996E-001	40	3,8811701E-004
2	1	0	1	0	1,060215521775504E+004	2,1691573E+000	2,1686175E+000	1,648313804448027E-001	1,000000000000000E+000	-2,0773447E-001	40	3,5745621E-004
2	1	0	1	0	1,064213891727096E+004	2,1891491E+000	2,1886034E+000	1,505788737180134E-001	1,000000000000000E+000	-2,0142962E-001	40	3,2955743E-004
2	1	0	1	0	1,068212241678691E+004	2,2091408E+000	2,2086136E+000	1,374668217411779E-001	1,000000000000000E+000	-1,9566905E-001	40	3,0361110E-004
2	1	0	1	0	1,072210661630280E+004	2,2291329E+000	2,2286186E+000	1,254038621306832E-001	1,000000000000000E+000	-1,9041342E-001	40	2,7947739E-004
2	1	0	1	0	1,076209041581868E+004	2,2491245E+000	2,2485995E+000	1,142505656315047E-001	1,000000000000000E+000	-1,8562235E-001	40	2,5690376E-004
2	1	0	1	0	1,080207381533459E+004	2,2691166E+000	2,2686360E+000	1,041635909592789E-001	1,000000000000000E+000	-1,8125518E-001	40	2,3630926E-004
2	1	0	1	0	1,084205761485049E+004	2,2891085E+000	2,2886083E+000	9,495143989231725E-002	1,000000000000000E+000	-1,7727399E-001	40	2,1730666E-004
2	1	0	1	0	1,088204131436639E+004	2,3091002E+000	2,3086061E+000	8,671020475650981E-002	1,000000000000000E+000	-1,7364086E-001	40	2,0017971E-004
2	1	0	1	0	1,092202551388231E+004	2,3290918E+000	2,3285842E+000	7,928451528341363E-002	1,000000000000000E+000	-1,7031989E-001	40	1,8462067E-004
2	1	0	1	0	1,096200921339821E+004	2,3490841E+000	2,3485849E+000	7,280136114708835E-002	1,000000000000000E+000	-1,6727734E-001	40	1,7098017E-004
2	1	0	1	0	1,100199301291413E+004	2,3690758E+000	2,3685520E+000	6,705310992513336E-002	1,000000000000000E+000	-1,6447920E-001	40	1,5881877E-004
2	1	0	1	0	1,104197651243004E+004	2,3890679E+000	2,3885458E+000	6,209083673873225E-002	1,000000000000000E+000	-1,6189478E-001	40	1,4830680E-004
2	1	0	1	0	1,108196021194599E+004	2,4090593E+000	2,4085729E+000	5,778091300319976E-002	1,000000000000000E+000	-1,5949570E-001	40	1,3916954E-004
2	1	0	1	0	1,112194441146187E+004	2,4290514E+000	2,4285467E+000	5,398337426305055E-002	1,000000000000000E+000	-1,5725851E-001	40	1,3110114E-004
2	1	0	1	0	1,116192821097776E+004	2,4490430E+000	2,4485183E+000	5,068724808138381E-002	1,000000000000000E+000	-1,5516341E-001	40	1,2410866E-004
2	1	0	1	0	1,120211161049124E+004	2,4691350E+000	2,4685814E+000	4,788147214655386E-002	1,000000000000000E+000	-1,5318128E-001	41	1,1819931E-004
2	1	0	1	0	1,124209541000720E+004	2,4891269E+000	2,4885683E+000	4,533964541137925E-002	1,000000000000000E+000	-1,5131426E-001	41	1,1283081E-004
2	1	0	1	0	1,128207890952309E+004	2,5091186E+000	2,5085831E+000	4,311685208701688E-002	1,000000000000000E+000	-1,4954247E-001	41	1,0816220E-004
2	1	0	1	0	1,132206310903898E+004	2,5291102E+000	2,5285616E+000	4,115253796933338E-002	1,000000000000000E+000	-1,4785384E-001	41	1,0405673E-004
2	1	0	1	0	1,136204680855489E+004	2,5491021E+000	2,5485654E+000	3,949075518529238E-002	1,000000000000000E+000	-1,4623778E-001	41	1,0064477E-004
2	1	0	1	0	1,140203060807084E+004	2,5690942E+000	2,5685573E+000	3,802632336156764E-002	1,000000000000000E+000	-1,4468455E-001	41	9,7672790E-005
2	1	0	1	0	1,144201430758671E+004	2,5890858E+000	2,5885506E+000	3,672285110227591E-002	1,000000000000000E+000	-1,4318660E-001	41	9,5058960E-005
2	1	0	1	0	1,148199810710261E+004	2,6090777E+000	2,6085336E+000	3,560468995939653E-002	1,000000000000000E+000	-1,4173704E-001	41	9,2876027E-005
2	1	0	1	0	1,152198220661852E+004	2,6290696E+000	2,6285512E+000	3,460391671650653E-002	1,000000000000000E+000	-1,4032955E-001	41	9,0958165E-005
2	1	0	1	0	1,156196580613442E+004	2,6490612E+000	2,6485322E+000	3,369229999528395E-002	1,000000000000000E+000	-1,3896017E-001	41	8,9235138E-005
2	1	0	1	0	1,160194940565032E+004	2,6690531E+000	2,6685386E+000	3,275265595035365E-002	1,000000000000000E+000	-1,3762774E-001	41	8,7401728E-005
2	1	0	1	0	1,164193320516625E+004	2,6890450E+000	2,6884897E+000	3,178285405058640E-002	1,000000000000000E+000	-1,3633318E-001	41	8,5447879E-005
2	1	0	1	1	1,167891830471848E+004	2,6924436E+000	2,6919549E+000	2,420064417320267E-002	1,000000000000000E+000	-1,3524602E-001	41	6,5147040E-005
2	1	0	1	1	1,171890200423441E+004	2,6724522E+000	2,6719387E+000	1,838566803964631E-002	1,000000000000000E+000	-1,3441037E-001	41	4,9125378E-005
2	1	0	1	1	1,175888580375029E+004	2,6524601E+000	2,6519771E+000	1,460939391333574E-002	1,000000000000000E+000	-1,3375933E-001	41	3,8743776E-005
2	1	0	1	1	1,179886950326621E+004	2,6324680E+000	2,6319711E+000	1,183864558602783E-002	1,000000000000000E+000	-1,3323760E-001	41	3,1158972E-005
2	1	0	1	1	1,183885300278210E+004	2,6124766E+000	2,6119971E+000	9,681372725816234E-003	1,000000000000000E+000	-1,3281351E-001	41	2,5287718E-005
2	1	0	1	1	1,187883680229804E+004	2,5924845E+000	2,5919800E+000	7,994106161386794E-003	1,000000000000000E+000	-1,3246587E-001	41	2,0720563E-005
2	1	0	1	1	1,191882060181390E+004	2,5724926E+000	2,5719750E+000	6,623209231537225E-003	1,000000000000000E+000	-1,3217917E-001	41	1,7034728E-005
2	1	0	1	1	1,195880430132986E+004	2,5525010E+000	2,5519977E+000	5,474633181026631E-003	1,000000000000000E+000	-1,3194241E-001	41	1,3971251E-005
2	1	0	1	1	1,199878780084575E+004	2,5325091E+000	2,5319548E+000	4,517634611142435E-003	1,000000000000000E+000	-1,3174756E-001	42	1,1438447E-005
2	1	0	1	1	1,203557280040041E+004	2,5141168E+000	2,5135715E+000	3,715480146859296E-003	2,000000000000000E+000	-1,3160013E-001	42	9,3391254E-006
2	1	0	1	1	1,207555659991629E+004	2,4941249E+000	2,4935970E+000	2,963673829388534E-003	2,000000000000000E+000	-1,3147065E-001	42	7,3902083E-006
2	1	0	1	1	1,211554029943221E+004	2,4741328E+000	2,4736404E+000	2,270881486103840E-003	2,000000000000000E+000	-1,3137016E-001	42	5,6173444E-006
2	1	0	1	1	1,215552379894810E+004	2,4541411E+000	2,4536226E+000	1,633573221416886E-003	2,000000000000000E+000	-1,3129650E-001	42	4,0081723E-006
2	1	0	1	1	1,219550759846401E+004	2,4341493E+000	2,4336519E+000	1,007729534843408E-003	2,000000000000000E+000	-1,3124764E-001	42	2,4524629E-006
2	1	0	1	1	1,223549119797992E+004	2,4141572E+000	2,4135895E+000	4,113155753969989E-004	2,000000000000000E+000	-1,3122286E-001	43	9,9274689E-007
2	0	0	1	1	1,227547499749582E+004	2,3941653E+000	2,3936841E+000	-1,801413950683777E-004	2,000000000000000E+000	-1,3122092E-001	43	-4,3120161E-007
2	0	0	1	1	1,231545849701174E+004	2,3741736E+000	2,3737421E+000	-7,230806202616277E-004	2,000000000000000E+000	-1,3124140E-001	43	-1,7164069E-006
2	0	0	1	1	1,235544229652765E+004	2,3541820E+000	2,3536818E+000	-1,267701714049429E-003	2,000000000000000E+000	-1,3128546E-001	42	-2,9837665E-006
2	0	0	1	1	1,239542599604356E+004	2,3341901E+000	2,3337181E+000	-1,851317479091989E-003	2,000000000000000E+000	-1,3135186E-001	42	-4,3204532E-006
2	0	0	1	1	1,243540969555947E+004	2,3141980E+000	2,3137233E+000	-2,449239923519232E-003	2,000000000000000E+000	-1,3144171E-001	42	-5,6668637E-006
2	0	0	1	1	1,247539339507539E+004	2,2942064E+000	2,2937489E+000	-3,063312406216809E-003	2,000000000000000E+000	-1,3155560E-001	42	-7,0264691E-006
2	0	0	1	1	1,251537719459129E+004	2,2742145E+000	2,2737541E+000	-3,721106211984168E-003	2,000000000000000E+000	-1,3169508E-001	42	-8,4608810E-006
2	0	0	1	1	1,255536089410723E+004	2,2542224E+000	2,2537596E+000	-4,401098091913268E-003	2,000000000000000E+000	-1,3186149E-001	42	-9,9190174E-006
2	0	0	1	1	1,259534439362315E+004	2,2342308E+000	2,2337840E+000	-5,137111864418439E-003	2,000000000000000E+000	-1,3205655E-001	42	-1,1475198E-005
2	0	0	1	1	1,263532819313904E+004	2,2142389E+000	2,2137914E+000	-5,945219434019017E-003	2,000000000000000E+000	-1,3228245E-001	42	-1,3161475E-005
2	0	0	1	1	1,267531179265497E+004	2,1942472E+000	2,1938248E+000	-6,790176732939787E-003	2,000000000000000E+000	-1,3254148E-001	42	-1,4896458E-005
2	0	0	1	1	1,271529539217090E+004	2,1742554E+000	2,1738281E+000	-7,729684279998372E-003	2,000000000000000E+000	-1,3283628E-001	42	-1,6803006E-005
2	0	0	1	1	1,275527909168677E+004	2,1542633E+000	2,1538477E+000	-8,739715606696924E-003	2,000000000000000E+000	-1,3316965E-001	42	-1,8824016E-005
2	0	0	1	1	1,279526289120267E+004	2,1342714E+000	2,1337571E+000	-9,911618940514649E-003	2,000000000000000E+000	-1,3354492E-001	41	-2,1148988E-005
2	0	0	1	1	1,283524649071859E+004	2,1142795E+000	2,1137736E+000	-1,100618829608349E-002	2,000000000000000E+000	-1,3396589E-001	41	-2,3264591E-005
2	0	0	1	1	1,287523029023450E+004	2,0942879E+000	2,0937984E+000	-1,226895173713272E-002	2,000000000000000E+000	-1,3443528E-001	41	-2,5688712E-005
2	0	0	1	1	1,291521398975041E+004	2,0742960E+000	2,0738039E+000	-1,366270309979908E-002	2,000000000000000E+000	-1,3495828E-001	41	-2,8333767E-005
2	0	0	1	1	1,295519778926633E+004	2,0543041E+000	2,0538039E+000	-1,518599193796127E-002	2,000000000000000E+000	-1,3553895E-001	41	-3,1189051E-005
2	0	0	1	1	1,299518128878225E+004	2,0343125E+000	2,0338204E+000	-1,684022166254884E-002	2,000000000000000E+000	-1,3618341E-001	41	-3,4249988E-005
2	0	0	1	1	1,303516498829813E+004	2,0143204E+000	2,0138156E+000	-1,865468753046465E-002	2,000000000000000E+000	-1,3689731E-001	41	-3,7567101E-005
2	0	0	1	1	1,307514888781402E+004	1,9943289E+000	1,9938440E+000	-2,064863200818710E-002	2,000000000000000E+000	-1,3768725E-001	41	-4,1170151E-005
2	0	0	1	1	1,311513248732995E+004	1,9743366E+000	1,9738308E+000	-2,283483339821363E-002	2,000000000000000E+000	-1,3856123E-001	41	-4,5072098E-005
2	0	0	1	1	1,315511608684585E+004	1,9543452E+000	1,9538549E+000	-2,526379241094057E-002	2,000000000000000E+000	-1,3952723E-001	41	-4,9361784E-005
2	0	0	1	1	1,319509988636174E+004	1,9343532E+000	1,9338464E+000	-2,795356617209022E-002	2,000000000000000E+000	-1,4059512E-001	41	-5,4057902E-005
2	0	0	1	1	1,323508348587767E+004	1,9143615E+000	1,9138703E+000	-3,092798640671890E-002	2,000000000000000E+000	-1,4177546E-001	41	-5,9192156E-005
2	0	0	1	1	1,327506728539358E+004	1,8943697E+000	1,8938897E+000	-3,421159138431640E-002	2,000000000000000E+000	-1,4308101E-001	41	-6,4792977E-005
2	0	0	1	1	1,331505088490948E+004	1,8743775E+000	1,8739103E+000	-3,792157054997125E-002	2,000000000000000E+000	-1,4452653E-001	41	-7,1061622E-005
2	0	0	1	1	1,335503448442544E+004	1,8543861E+000	1,8538975E+000	-4,205866585999873E-002	2,000000000000000E+000	-1,4612845E-001	41	-7,7972451E-005
2	0	0	1	1	1,339501828394132E+004	1,8343940E+000	1,8339156E+000	-4,667611464073021E-002	2,000000000000000E+000	-1,4790553E-001	41	-8,5600055E-005
2	0	0	1	1	1,343500188345722E+004	1,8144021E+000	1,8139341E+000	-5,187653226871991E-002	2,000000000000000E+000	-1,4987825E-001	41	-9,4100607E-005
2	0	0	1	1	1,347498558297312E+004	1,7944102E+000	1,7939312E+000	-5,767588112330746E-002	2,000000000000000E+000	-1,5207174E-001	41	-1,0346656E-004
2	0	0	1	1	1,351496928248907E+004	1,7744182E+000	1,7739582E+000	-6,412447137117949E-002	2,000000000000000E+000	-1,5450943E-001	41	-1,1375413E-004
2	0	0	1	1	1,355495288200497E+004	1,7544268E+000	1,7539668E+000	-7,129911324706295E-002	2,000000000000000E+000	-1,5721932E-001	41	-1,2505628E-004
2	0	0	1	1	1,359493668152086E+004	1,7344347E+000	1,7340132E+000	-7,902553269849122E-002	2,000000000000000E+000	-1,6022618E-001	41	-1,3703131E-004
2	0	0	1	1	1,363492028103682E+004	1,7144430E+000	1,7140098E+000	-8,746882681537305E-002	2,000000000000000E+000	-1,6355760E-001	41	-1,4992242E-004
2	0	0	1	1	1,367490398055271E+004	1,6944510E+000	1,6940176E+000	-9,655663002447623E-002	2,000000000000000E+000	-1,6723999E-001	41	-1,6356863E-004
2	0	0	1	1	1,371488788006861E+004	1,6744591E+000	1,6739271E+000	-1,064429028025953E-001	2,000000000000000E+000	-1,7130280E-001	40	-1,7817765E-004
2	0	0	1	1	1,375487147958452E+004	1,6544673E+000	1,6539124E+000	-1,168847267437676E-001	2,000000000000000E+000	-1,7577052E-001	40	-1,9331710E-004
2	0	0	1	1	1,379485507910044E+004	1,6344757E+000	1,6339347E+000	-1,280594936711728E-001	2,000000000000000E+000	-1,8066944E-001	40	-2,0924085E-004
2	0	0	1	1	1,383483867861632E+004	1,6144838E+000	1,6139476E+000	-1,402833805482726E-001	2,000000000000000E+000	-1,8603514E-001	40	-2,2641003E-004
2	0	0	1	1	1,387482247813221E+004	1,5944921E+000	1,5939734E+000	-1,541110429650807E-001	2,000000000000000E+000	-1,9192216E-001	40	-2,4564890E-004
2	0	0	1	1	1,391480617764816E+004	1,5744998E+000	1,5739625E+000	-1,701899880814823E-001	2,000000000000000E+000	-1,9840159E-001	40	-2,6787265E-004
2	0	0	1	1	1,395478987716406E+004	1,5545081E+000	1,5539371E+000	-1,890969653594672E-001	2,000000000000000E+000	-2,0557712E-001	40	-2,9384479E-004
2	0	0	1	1	1,399477347667997E+004	1,5345165E+000	1,5339680E+000	-2,112418840173085E-001	2,000000000000000E+000	-2,1357369E-001	40	-3,2403829E-004
2	0	0	1	1	1,403475717619591E+004	1,5145246E+000	1,5139998E+000	-2,382150622687753E-001	2,000000000000000E+000	-2,2254944E-001	40	-3,6065755E-004
2	0	0	1	1	1,407474087571181E+004	1,4945327E+000	1,4939963E+000	-2,711735994154185E-001	2,000000000000000E+000	-2,3272085E-001	40	-4,0513233E-004
2	0	0	1	1	1,411472457522769E+004	1,4745407E+000	1,4740107E+000	-3,089996490516063E-001	2,000000000000000E+000	-2,4431638E-001	40	-4,5546878E-004
2	0	0	1	1	1,415470827474361E+004	1,4545490E+000	1,4540378E+000	-3,463550519459410E-001	2,000000000000000E+000	-2,5743449E-001	40	-5,0361332E-004
2	0	0	1	1	1,419469187425950E+004	1,4345572E+000	1,4340440E+000	-3,792141335399353E-001	2,000000000000000E+000	-2,7196550E-001	40	-5,4380973E-004
2	0	0	1	1	1,423467557377541E+004	1,4145652E+000	1,4140805E+000	-4,077413876843217E-001	2,000000000000000E+000	-2,8772092E-001	40	-5,7657913E-004
2	0	0	1	1	1,427465927329132E+004	1,3945735E+000	1,3940768E+000	-4,317089696302903E-001	2,000000000000000E+000	-3,0452698E-001	40	-6,0183549E-004
2	0	0	1	1	1,431464297280723E+004	1,3745816E+000	1,3741140E+000	-4,511894445641129E-001	2,000000000000000E+000	-3,2219940E-001	40	-6,1998575E-004
2	0	0	1	1	1,435462657232315E+004	1,3545898E+000	1,3540835E+000	-4,650773184129058E-001	2,000000000000000E+000	-3,4054658E-001	40	-6,2975351E-004
2	0	0	1	1	1,439461027183905E+004	1,3345979E+000	1,3341043E+000	-4,728143650652781E-001	2,000000000000000E+000	-3,5932323E-001	40	-6,3078367E-004
2	0	0	1	1	1,443459407135501E+004	1,3146061E+000	1,3141184E+000	-4,745868842303480E-001	2,000000000000000E+000	-3,7828821E-001	40	-6,2366336E-004
2	0	0	1	1	1,447457767087087E+004	1,2946141E+000	1,2941242E+000	-4,709702817059434E-001	2,000000000000000E+000	-3,9721251E-001	40	-6,0949405E-004
2	0	0	1	1	1,451456137038679E+004	1,2746223E+000	1,2741340E+000	-4,630997051906549E-001	2,000000000000000E+000	-4,1590312E-001	40	-5,9005112E-004
2	0	0	1	1	1,455454506990270E+004	1,2546306E+000	1,2541494E+000	-4,519389139967407E-001	2,000000000000000E+000	-4,3421066E-001	40	-5,6679896E-004
2	0	0	1	1	1,459452876941866E+004	1,2346387E+000	1,2341560E+000	-4,385710536882010E-001	2,000000000000000E+000	-4,5202455E-001	40	-5,4126512E-004
2	0	0	1	1	1,463451246893454E+004	1,2146471E+000	1,2141659E+000	-4,238987050160601E-001	2,000000000000000E+000	-4,6927541E-001	40	-5,1468337E-004
2	0	0	1	1	1,467449606845043E+004	1,1946549E+000	1,1941590E+000	-4,085084551271576E-001	2,000000000000000E+000	-4,8592335E-001	40	-4,8782406E-004
2	0	0	1	1	1,471447966796636E+004	1,1746633E+000	1,1742216E+000	-3,931464095082200E-001	2,000000000000000E+000	-5,0195479E-001	40	-4,6164103E-004
2	0	0	1	1	1,475446346748227E+004	1,1546712E+000	1,1541693E+000	-3,781213846044720E-001	2,000000000000000E+000	-5,1737714E-001	40	-4,3641610E-004
2	0	0	1	1	1,479444716699816E+004	1,1346794E+000	1,1341904E+000	-3,639356467190000E-001	2,000000000000000E+000	-5,3221470E-001	40	-4,1277232E-004
2	0	0	1	1	1,483443086651410E+004	1,1146876E+000	1,1141714E+000	-3,507900759640843E-001	2,000000000000000E+000	-5,4650366E-001	40	-3,9084026E-004
2	0	0	1	1	1,487441446603002E+004	1,0946957E+000	1,0942037E+000	-3,389164636533089E-001	2,000000000000000E+000	-5,6029254E-001	40	-3,7084366E-004
2	0	0	1	1	1,491439806554592E+004	1,0747041E+000	1,0741959E+000	-3,285532015751631E-001	2,000000000000000E+000	-5,7363576E-001	40	-3,5293048E-004
2	0	0	1	1	1,495438186506181E+004	1,0547121E+000	1,0542248E+000	-3,198400411448996E-001	2,000000000000000E+000	-5,8659691E-001	40	-3,3718333E-004
2	0	0	1	1	1,499436566457775E+004	1,0347203E+000	1,0342224E+000	-3,128444288680012E-001	2,000000000000000E+000	-5,9924358E-001	40	-3,2355072E-004
2	0	0	1	1	1,503434916409364E+004	1,0147283E+000	1,0142404E+000	-3,075669265503347E-001	2,000000000000000E+000	-6,1164564E-001	40	-3,1194679E-004
2	0	0	1	1	1,507093506365066E+004	1,0035330E+000	1,0030302E+000	-2,874984171279320E-001	2,000000000000000E+000	-6,2276989E-001	40	-2,8836960E-004
2	0	0	1	1	1,511091866316658E+004	1,0235246E+000	1,0230111E+000	-2,304936905308246E-001	2,000000000000000E+000	-6,3302153E-001	40	-2,3579760E-004
2	0	0	1	1	1,515090246268248E+004	1,0435166E+000	1,0429720E+000	-1,913985909380132E-001	2,000000000000000E+000	-6,4141047E-001	40	-1,9962336E-004
2	0	0	1	1	1,519088606219844E+004	1,0635086E+000	1,0629728E+000	-1,613239118201752E-001	2,000000000000000E+000	-6,4843243E-001	40	-1,7148293E-004
2	0	0	1	1	1,523086986171431E+004	1,0835005E+000	1,0829372E+000	-1,372425880668606E-001	2,000000000000000E+000	-6,5437871E-001	40	-1,4862511E-004
2	0	0	1	1	1,527085356123021E+004	1,1034923E+000	1,1029354E+000	-1,175537962646132E-001	2,000000000000000E+000	-6,5945482E-001	40	-1,2965425E-004
2	0	0	1	1	1,531083716074613E+004	1,1234840E+000	1,1229259E+000	-1,010891391590076E-001	2,000000000000000E+000	-6,6381055E-001	40	-1,1351561E-004
2	0	0	1	1	1,535082096026206E+004	1,1434759E+000	1,1429312E+000	-8,710988408820142E-002	2,000000000000000E+000	-6,6756064E-001	40	-9,9560610E-005
2	0	0	1	1	1,539080465977795E+004	1,1634676E+000	1,1629177E+000	-7,517494703690453E-002	2,000000000000000E+000	-6,7079455E-001	40	-8,7422282E-005
2	0	0	1	1	1,543078845929389E+004	1,1834596E+000	1,1829159E+000	-6,474596319547049E-002	2,000000000000000E+000	-6,7358220E-001	40	-7,6589029E-005
2	0	0	1	1	1,547077205880976E+004	1,2034514E+000	1,2028836E+000	-5,559364562751379E-002	2,000000000000000E+000	-6,7597979E-001	40	-6,6872686E-005
2	0	0	1	1	1,551075585832567E+004	1,2234433E+000	1,2229180E+000	-4,729926216503254E-002	2,000000000000000E+000	-6,7803019E-001	41	-5,7843121E-005
2	0	0	1	1	1,555073965784162E+004	1,2434351E+000	1,2428740E+000	-3,997597093783383E-002	2,000000000000000E+000	-6,7976820E-001	41	-4,9685095E-005
2	0	0	1	1	1,559072335735749E+004	1,2634269E+000	1,2628736E+000	-3,325842719825492E-002	2,000000000000000E+000	-6,8122542E-001	41	-4,2001193E-005
2	0	0	1	1	1,563070705687341E+004	1,2834189E+000	1,2829036E+000	-2,703662932367257E-002	2,000000000000000E+000	-6,8242478E-001	41	-3,4685389E-005
2	0	0	1	1	1,567069075638935E+004	1,3034105E+000	1,3028523E+000	-2,127581785035459E-002	2,000000000000000E+000	-6,8338460E-001	41	-2,7719248E-005
2	0	0	1	1	1,571067445590522E+004	1,3234024E+000	1,3228366E+000	-1,580970773372190E-002	2,000000000000000E+000	-6,8412024E-001	41	-2,0913662E-005
2	0	0	1	1	1,575065825542113E+004	1,3433944E+000	1,3428174E+000	-1,055871886805924E-002	2,000000000000000E+000	-6,8464243E-001	41	-1,4178432E-005
2	0	0	1	1	1,579064205493702E+004	1,3633864E+000	1,3628281E+000	-5,436864210953069E-003	2,000000000000000E+000	-6,8495792E-001	41	-7,4095115E-006
2	0	0	1	1	1,583062575445294E+004	1,3833780E+000	1,3828807E+000	-3,281367791513688E-004	2,000000000000000E+000	-6,8506986E-001	43	-4,5377402E-007
2	1	0	1	1	1,587060945396884E+004	1,4033698E+000	1,4027865E+000	4,714789365290566E-003	2,000000000000000E+000	-6,8498093E-001	42	6,6138427E-006
2	1	0	1	1	1,591059305348480E+004	1,4233618E+000	1,4228234E+000	1,012989115235868E-002	2,000000000000000E+000	-6,8468386E-001	41	1,4413046E-005
2	1	0	1	1	1,595057695300067E+004	1,4433535E+000	1,4427959E+000	1,569516169222257E-002	2,000000000000000E+000	-6,8416560E-001	41	2,2644914E-005
2	1	0	1	1	1,599056065251657E+004	1,4633455E+000	1,4627711E+000	2,180258568736090E-002	2,000000000000000E+000	-6,8341380E-001	41	3,1892192E-005
2	1	0	1	1	1,603054435203248E+004	1,4833370E+000	1,4827324E+000	2,838131142996692E-002	2,000000000000000E+000	-6,8240827E-001	41	4,2081891E-005
2	1	0	1	1	1,607052805154840E+004	1,5033290E+000	1,5027251E+000	3,559682008000153E-002	2,000000000000000E+000	-6,8112689E-001	41	5,3492236E-005
2	1	0	1	1	1,611051165106431E+004	1,5233209E+000	1,5227008E+000	4,342630546032500E-002	2,000000000000000E+000	-6,7954499E-001	41	6,6125271E-005
2	1	0	1	1	1,615049565058024E+004	1,5433129E+000	1,5426950E+000	5,225908007981667E-002	2,000000000000000E+000	-6,7763168E-001	41	8,0619822E-005
2	1	0	1	1	1,619047935009612E+004	1,5633047E+000	1,5626788E+000	6,283021093739627E-002	2,000000000000000E+000	-6,7533469E-001	41	9,8183438E-005
2	1	0	1	1	1,623046294961204E+004	1,5832964E+000	1,5826544E+000	7,586716795178078E-002	2,000000000000000E+000	-6,7256713E-001	41	1,2007151E-004
2	1	0	1	1	1,627044674912799E+004	1,6032883E+000	1,6026585E+000	9,465082405705316E-002	2,000000000000000E+000	-6,6918737E-001	41	1,5169295E-004
2	1	0	1	1	1,631043034864389E+004	1,6232799E+000	1,6227018E+000	1,269977255902497E-001	2,000000000000000E+000	-6,6479850E-001	40	2,0607944E-004
2	1	0	1	1	1,635041424815978E+004	1,6432722E+000	1,6426790E+000	1,692216008643199E-001	2,000000000000000E+000	-6,5888959E-001	40	2,7797677E-004
2	1	0	1	1	1,639039804767570E+004	1,6632640E+000	1,6626406E+000	2,150373582075000E-001	2,000000000000000E+000	-6,5120620E-001	40	3,5752985E-004
2	1	0	1	1	1,643038174719166E+004	1,6832556E+000	1,6826881E+000	2,622362083451805E-001	2,000000000000000E+000	-6,4166123E-001	40	4,4126174E-004
2	1	0	1	1	1,647036544670750E+004	1,7032475E+000	1,7026598E+000	3,095901653621747E-001	2,000000000000000E+000	-6,3022202E-001	40	5,2712671E-004
2	1	0	1	1	1,651034914622342E+004	1,7232393E+000	1,7226318E+000	3,564375450908042E-001	2,000000000000000E+000	-6,1689830E-001	40	6,1401067E-004
2	1	0	1	1	1,655033294573927E+004	1,7432312E+000	1,7426096E+000	4,022486887069023E-001	2,000000000000000E+000	-6,0171765E-001	40	7,0096244E-004
2	1	0	1	1	1,659031664525523E+004	1,7632231E+000	1,7626039E+000	4,459089361296742E-001	2,000000000000000E+000	-5,8474362E-001	40	7,8596082E-004
2	1	0	1	1	1,663030044477116E+004	1,7832149E+000	1,7825888E+000	4,856115658677860E-001	2,000000000000000E+000	-5,6609738E-001	40	8,6564576E-004
2	1	0	1	1	1,667028404428693E+004	1,8032066E+000	1,8025659E+000	5,198443369807730E-001	2,000000000000000E+000	-5,4596323E-001	40	9,3705370E-004
2	1	0	1	1	1,671026774380295E+004	1,8231984E+000	1,8225474E+000	5,464205307469676E-001	2,000000000000000E+000	-5,2460968E-001	40	9,9587732E-004
2	1	0	1	1	1,675025164331889E+004	1,8431906E+000	1,8425570E+000	5,636081459467999E-001	2,000000000000000E+000	-5,0237823E-001	40	1,0384801E-003
2	1	0	1	1	1,679023534283473E+004	1,8631823E+000	1,8625172E+000	5,708290371399007E-001	2,000000000000000E+000	-4,7965646E-001	40	1,0631789E-003
2	1	0	1	1	1,683021904235065E+004	1,8831743E+000	1,8825469E+000	5,679094389473942E-001	2,000000000000000E+000	-4,5685214E-001	40	1,0691162E-003
2	1	0	1	1	1,687020274186661E+004	1,9031659E+000	1,9025328E+000	5,555872889117524E-001	2,000000000000000E+000	-4,3435529E-001	40	1,0570231E-003
2	1	0	1	1	1,691018634138245E+004	1,9231577E+000	1,9225402E+000	5,347880141618212E-001	2,000000000000000E+000	-4,1252658E-001	40	1,0281515E-003
2	1	0	1	1	1,695017024089850E+004	1,9431498E+000	1,9425255E+000	5,068502537182047E-001	2,000000000000000E+000	-3,9168033E-001	40	9,8456955E-004
2	1	0	1	1	1,699015404041429E+004	1,9631417E+000	1,9625072E+000	4,735785101034469E-001	2,000000000000000E+000	-3,7206110E-001	40	9,2940126E-004
2	1	0	1	1	1,703013763993024E+004	1,9831332E+000	1,9824924E+000	4,370244788755602E-001	2,000000000000000E+000	-3,5384744E-001	40	8,6639775E-004
2	1	0	1	1	1,707012163944612E+004	2,0031250E+000	2,0025313E+000	3,990014842389291E-001	2,000000000000000E+000	-3,3713031E-001	40	7,9901295E-004
2	1	0	1	1	1,711010513896204E+004	2,0231171E+000	2,0225027E+000	3,613022660066738E-001	2,000000000000000E+000	-3,2193100E-001	40	7,3073478E-004
2	1	0	1	1	1,715008893847797E+004	2,0431087E+000	2,0425053E+000	3,255119757344538E-001	2,000000000000000E+000	-3,0820659E-001	40	6,6485995E-004
2	1	0	1	1	1,719007273799391E+004	2,0631006E+000	2,0625272E+000	2,923652589762233E-001	2,000000000000000E+000	-2,9586411E-001	40	6,0301129E-004
2	1	0	1	1	1,723005623750979E+004	2,0830922E+000	2,0825155E+000	2,627736960696154E-001	2,000000000000000E+000	-2,8477585E-001	40	5,4723030E-004
2	1	0	1	1	1,727004003702570E+004	2,1030841E+000	2,1025202E+000	2,367090817185491E-001	2,000000000000000E+000	-2,7479866E-001	40	4,9768563E-004
2	1	0	1	1	1,731002373654163E+004	2,1230762E+000	2,1224961E+000	2,140504296236998E-001	2,000000000000000E+000	-2,6579344E-001	40	4,5432121E-004
2	1	0	1	1	1,735000793605749E+004	2,1430681E+000	2,1424987E+000	1,944695137507106E-001	2,000000000000000E+000	-2,5763252E-001	40	4,1665070E-004
2	1	0	1	1	1,738999163557345E+004	2,1630597E+000	2,1625047E+000	1,774246015715768E-001	2,000000000000000E+000	-2,5020283E-001	40	3,8368153E-004
2	1	0	1	1	1,742997543508932E+004	2,1830516E+000	2,1825213E+000	1,624643518344032E-001	2,000000000000000E+000	-2,4341187E-001	40	3,5458192E-004
2	1	0	1	1	1,746995913460522E+004	2,2030437E+000	2,2024810E+000	1,490009577079379E-001	2,000000000000000E+000	-2,3718649E-001	40	3,2817179E-004
2	1	0	1	1	1,750994273412117E+004	2,2230353E+000	2,2225080E+000	1,368739792705456E-001	2,000000000000000E+000	-2,3147099E-001	40	3,0420351E-004
2	1	0	1	1	1,754992673363700E+004	2,2430272E+000	2,2424965E+000	1,258377397862331E-001	2,000000000000000E+000	-2,2621931E-001	40	2,8219068E-004
2	1	0	1	1	1,758991053315296E+004	2,2630191E+000	2,2624781E+000	1,157960235925688E-001	2,000000000000000E+000	-2,2138803E-001	40	2,6198596E-004
2	1	0	1	1	1,762989403266890E+004	2,2830107E+000	2,2824852E+000	1,066153573214429E-001	2,000000000000000E+000	-2,1694155E-001	40	2,4334798E-004
2	1	0	1	1	1,766987783218478E+004	2,3030026E+000	2,3024907E+000	9,810943944486597E-002	2,000000000000000E+000	-2,1284713E-001	40	2,2589607E-004
2	1	0	1	1	1,770986153170071E+004	2,3229947E+000	2,3224709E+000	9,014665499270480E-002	2,000000000000000E+000	-2,0908193E-001	40	2,0936299E-004
2	1	0	1	1	1,774984573121657E+004	2,3429863E+000	2,3424888E+000	8,266725686266185E-002	2,000000000000000E+000	-2,0562512E-001	40	1,9364712E-004
2	1	0	1	1	1,778982943073253E+004	2,3629780E+000	2,3624716E+000	7,563246341453667E-002	2,000000000000000E+000	-2,0245934E-001	40	1,7867955E-004
2	1	0	1	1	1,782981323024840E+004	2,3829699E+000	2,3824537E+000	6,935999508333146E-002	2,000000000000000E+000	-1,9956060E-001	40	1,6524698E-004
2	1	0	1	1	1,786979692976430E+004	2,4029620E+000	2,4024577E+000	6,378485442494375E-002	2,000000000000000E+000	-1,9689775E-001	40	1,5324041E-004
2	1	0	1	1	1,790978052928025E+004	2,4229536E+000	2,4224412E+000	5,899288674617353E-002	2,000000000000000E+000	-1,9444199E-001	40	1,4290681E-004
2	1	0	1	1	1,794976452879608E+004	2,4429455E+000	2,4424391E+000	5,487409986463764E-002	2,000000000000000E+000	-1,9216435E-001	40	1,3402665E-004
2	1	0	1	1	1,798974832831204E+004	2,4629374E+000	2,4624512E+000	5,132545265825694E-002	2,000000000000000E+000	-1,9003946E-001	40	1,2638643E-004
2	1	0	1	1	1,802973212782794E+004	2,4829295E+000	2,4823811E+000	4,827025853548783E-002	2,000000000000000E+000	-1,8804677E-001	40	1,1982518E-004
2	1	0	1	1	1,806971562734386E+004	2,5029209E+000	2,5023925E+000	4,572048844625437E-002	2,000000000000000E+000	-1,8616402E-001	41	1,1441061E-004
2	1	0	1	1	1,810969932685976E+004	2,5229132E+000	2,5223682E+000	4,345431051366577E-002	2,000000000000000E+000	-1,8437910E-001	41	1,0960777E-004
2	1	0	1	1	1,814968352637565E+004	2,5429046E+000	2,5423641E+000	4,151514725804506E-002	2,000000000000000E+000	-1,8267816E-001	41	1,0554662E-004
2	1	0	1	1	1,818966722589161E+004	2,5628963E+000	2,5623443E+000	3,986583696803447E-002	2,000000000000000E+000	-1,8104881E-001	41	1,0215000E-004
2	1	0	1	1	1,822965102540748E+004	2,5828886E+000	2,5823398E+000	3,841500456851998E-002	2,000000000000000E+000	-1,7948122E-001	41	9,9200595E-005
2	1	0	1	1	1,826963472492338E+004	2,6028807E+000	2,6023431E+000	3,718487505924920E-002	2,000000000000000E+000	-1,7796671E-001	41	9,6767799E-005
2	1	0	1	1	1,830961832443933E+004	2,6228721E+000	2,6223297E+000	3,610485220730897E-002	2,000000000000000E+000	-1,7649813E-001	41	9,4678828E-005
2	1	0	1	1	1,834960232395516E+004	2,6428640E+000	2,6423388E+000	3,514515662962264E-002	2,000000000000000E+000	-1,7506994E-001	41	9,2865412E-005
2	1	0	1	1	1,838958612347112E+004	2,6628559E+000	2,6623213E+000	3,421488391286338E-002	2,000000000000000E+000	-1,7367956E-001	41	9,1091017E-005
2	1	0	1	1	1,842956962298707E+004	2,6828475E+000	2,6822948E+000	3,331023806260522E-002	2,000000000000000E+000	-1,7232592E-001	41	8,9347879E-005
2	1	0	1	0	1,846695472253437E+004	2,6984413E+000	2,6979296E+000	2,904765917217983E-002	2,000000000000000E+000	-1,7110145E-001	41	7,8368539E-005
2	1	0	1	0	1,850693852205039E+004	2,6784494E+000	2,6779513E+000	2,115647351236871E-002	2,000000000000000E+000	-1,7013110E-001	41	5,6656005E-005
2	1	0	1	0	1,854692192156622E+004	2,6584578E+000	2,6579728E+000	1,684137653696199E-002	2,000000000000000E+000	-1,6938087E-001	41	4,4763921E-005
2	1	0	1	0	1,858690572108218E+004	2,6384656E+000	2,6379480E+000	1,368840056697702E-002	2,000000000000000E+000	-1,6877699E-001	41	3,6109290E-005
2	1	0	1	0	1,862688942059805E+004	2,6184740E+000	2,6179762E+000	1,130121658726366E-002	2,000000000000000E+000	-1,6828287E-001	41	2,9586316E-005
2	1	0	1	0	1,866687322011404E+004	2,5984821E+000	2,5979545E+000	9,376879691616158E-003	2,000000000000000E+000	-1,6787456E-001	41	2,4360706E-005
2	1	0	1	0	1,870685691962991E+004	2,5784905E+000	2,5779774E+000	7,841123194935594E-003	2,000000000000000E+000	-1,6753492E-001	41	2,0214238E-005
2	1	0	1	0	1,874684071914584E+004	2,5584984E+000	2,5579963E+000	6,563292782888978E-003	2,000000000000000E+000	-1,6725133E-001	41	1,6788879E-005
2	1	0	1	0	1,878682411866167E+004	2,5385063E+000	2,5380273E+000	5,490858808149091E-003	2,000000000000000E+000	-1,6701467E-001	41	1,3935949E-005
2	1	0	0	0	1,880821531840271E+004	2,5277619E+000	2,5272150E+000	4,819440502367295E-003	2,000000000000000E+000	-1,6690509E-001	42	1,2179762E-005