File: Dati/201117/CV_LTO-CB_10 layer_grafite_cu_05_1mVs_07_CV_C03.mpt
EC-Lab ASCII FILE
Nb header lines : 57

Cyclic Voltammetry

Run on channel : 3 (SN 6807)
User :
Electrode connection : standard
Ewe ctrl range : min = 0,00 V, max = 5,00 V
Ewe,I filtering : 50 kHz
Safety Limits :
	Do not start on E overload
Channel : Grounded
Acquisition started on : 11/17/2020 16:29:06
Saved on :
	File : CV_LTO-CB_10 layer_grafite_cu_05_1mVs_07_CV_C03.mpr
	Directory : C:\Users\labsuperfici\Desktop\Biologic\Users\Prisca Viviani\201117\
	Host : 10.78.33.0
Device : VSP-300 (SN 0638)
Address : USB
EC-Lab for windows v11.31 (software)
Internet server v11.30 (firmware)
Command interpretor v11.31 (firmware)
Electrode material :
Initial state :
Electrolyte :
Comments :
Cable : standard
Reference electrode : SCE Saturated Calomel Electrode (0,241 V)
Electrode surface area : 0,001 cm²
Characteristic mass : 0,001 g
Equivalent Weight : 0,000 g/eq.
Density : 0,000 g/cm3
Cycle Definition : Charge/Discharge alternance
Ei (V)              0,000
vs.                 Eoc
dE/dt               1,000
dE/dt unit          mV/s
E1 (V)              1,000
vs.                 Ref
Step percent        50
N                   10
E range min (V)     0,000
E range max (V)     5,000
I Range             Auto
I Range min         Unset
I Range max         Unset
I Range init        Unset
Bandwidth           8
E2 (V)              2,700
vs.                 Ref
nc cycles           1
Reverse Scan        1
Ef (V)              0,000
vs.                 Eoc

mode	ox/red	error	control changes	counter inc.	time/s	control/V	Ewe/V	<I>/mA	cycle number	(Q-Qo)/C	I Range	P/W
2	1	0	0	0	5,591242919249891E+004	2,5277619E+000	2,5271845E+000	1,338818203657866E-002	1,000000000000000E+000	0,0000000E+000	41	3,3834407E-005
2	1	0	1	0	5,593197099253535E+004	2,5082190E+000	2,5076821E+000	9,743598332311726E-003	1,000000000000000E+000	2,0749822E-004	41	2,4433846E-005
2	1	0	1	0	5,595196289257251E+004	2,4882274E+000	2,4877007E+000	8,211700260640947E-003	1,000000000000000E+000	3,8483963E-004	41	2,0428253E-005
2	1	0	1	0	5,597195479260967E+004	2,4682355E+000	2,4677165E+000	6,759123090339964E-003	1,000000000000000E+000	5,3242908E-004	41	1,6679600E-005
2	1	0	1	0	5,599194659264700E+004	2,4482436E+000	2,4477293E+000	5,488572805015121E-003	1,000000000000000E+000	6,5300439E-004	41	1,3434541E-005
2	1	0	1	0	5,601203839268442E+004	2,4281518E+000	2,4276037E+000	4,231439806346535E-003	1,000000000000000E+000	7,4865605E-004	42	1,0272259E-005
2	1	0	1	0	5,603203029272164E+004	2,4081600E+000	2,4075935E+000	3,067998800603364E-003	1,000000000000000E+000	8,1989827E-004	42	7,3864940E-006
2	1	0	1	0	5,605202219275886E+004	2,3881681E+000	2,3876429E+000	1,959350446316510E-003	1,000000000000000E+000	8,6826092E-004	42	4,6782293E-006
2	1	0	1	0	5,607201399279619E+004	2,3681760E+000	2,3676693E+000	8,349264088233655E-004	1,000000000000000E+000	8,9424587E-004	42	1,9768297E-006
2	0	0	1	0	5,609200589283335E+004	2,3481843E+000	2,3477094E+000	-2,938650696824503E-004	1,000000000000000E+000	8,9780486E-004	42	-6,8990977E-007
2	0	0	1	0	5,611199759287061E+004	2,3281929E+000	2,3277063E+000	-1,409895540486240E-003	1,000000000000000E+000	8,7884057E-004	42	-3,2818227E-006
2	0	0	1	0	5,613198949290789E+004	2,3082006E+000	2,3077354E+000	-2,588084724748509E-003	1,000000000000000E+000	8,3720085E-004	42	-5,9726149E-006
2	0	0	1	0	5,615198129294510E+004	2,2882090E+000	2,2877207E+000	-3,812823330086756E-003	1,000000000000000E+000	7,7153119E-004	42	-8,7226745E-006
2	0	0	1	0	5,617197329298232E+004	2,2682171E+000	2,2677565E+000	-5,072320038472619E-003	1,000000000000000E+000	6,8088371E-004	42	-1,1502787E-005
2	0	0	1	0	5,619196499301956E+004	2,2482250E+000	2,2477853E+000	-6,404344445099494E-003	1,000000000000000E+000	5,6443556E-004	42	-1,4395591E-005
2	0	0	1	0	5,621195679305679E+004	2,2282336E+000	2,2278216E+000	-7,841473442194226E-003	1,000000000000000E+000	4,2043853E-004	42	-1,7469403E-005
2	0	0	1	0	5,623194869309402E+004	2,2082415E+000	2,2078598E+000	-9,322428718992387E-003	1,000000000000000E+000	2,4719836E-004	42	-2,0582615E-005
2	0	0	1	0	5,625194059313124E+004	2,1882496E+000	2,1877627E+000	-1,096577705611232E-002	1,000000000000000E+000	4,2007523E-005	41	-2,3990518E-005
2	0	0	1	0	5,627193239316845E+004	2,1682580E+000	2,1677487E+000	-1,269888604576541E-002	1,000000000000000E+000	-1,9618108E-004	41	-2,7527994E-005
2	0	0	1	0	5,629192439320579E+004	2,1482658E+000	2,1477554E+000	-1,451763813523299E-002	1,000000000000000E+000	-4,6980107E-004	41	-3,1180334E-005
2	0	0	1	0	5,631191609324305E+004	2,1282740E+000	2,1277833E+000	-1,645451592150058E-002	1,000000000000000E+000	-7,8097958E-004	41	-3,5011642E-005
2	0	0	1	0	5,633190789328027E+004	2,1082823E+000	2,1077909E+000	-1,858621455317692E-002	1,000000000000000E+000	-1,1331211E-003	41	-3,9175855E-005
2	0	0	1	0	5,635189969331748E+004	2,0882902E+000	2,0878093E+000	-2,086738945609268E-002	1,000000000000000E+000	-1,5291448E-003	41	-4,3567132E-005
2	0	0	1	0	5,637189169335470E+004	2,0682986E+000	2,0678031E+000	-2,334513702485562E-002	1,000000000000000E+000	-1,9727778E-003	41	-4,8273148E-005
2	0	0	1	0	5,639188339339191E+004	2,0483067E+000	2,0478077E+000	-2,599146413512755E-002	1,000000000000000E+000	-2,4677103E-003	41	-5,3225522E-005
2	0	0	1	0	5,641187519342915E+004	2,0283151E+000	2,0278485E+000	-2,883234987496616E-002	1,000000000000000E+000	-3,0172805E-003	41	-5,8467638E-005
2	0	0	1	0	5,643186719346637E+004	2,0083230E+000	2,0078409E+000	-3,196492867678874E-002	1,000000000000000E+000	-3,6268372E-003	41	-6,4180487E-005
2	0	0	1	0	5,645185909350359E+004	1,9883311E+000	1,9878644E+000	-3,533468181844168E-002	1,000000000000000E+000	-4,3010898E-003	41	-7,0240552E-005
2	0	0	1	0	5,647185099354089E+004	1,9683393E+000	1,9678243E+000	-3,901420894165182E-002	1,000000000000000E+000	-5,0457413E-003	41	-7,6773111E-005
2	0	0	1	0	5,649184279357811E+004	1,9483477E+000	1,9478685E+000	-4,298737004319075E-002	1,000000000000000E+000	-5,8667804E-003	41	-8,3733743E-005
2	0	0	1	0	5,651183459361538E+004	1,9283557E+000	1,9278640E+000	-4,731652496636257E-002	1,000000000000000E+000	-6,7709652E-003	41	-9,1219823E-005
2	0	0	1	0	5,653182639365259E+004	1,9083639E+000	1,9078771E+000	-5,207916090208597E-002	1,000000000000000E+000	-7,7657360E-003	41	-9,9360637E-005
2	0	0	1	0	5,655181819368992E+004	1,8883721E+000	1,8879138E+000	-5,724691622790125E-002	1,000000000000000E+000	-8,8596772E-003	41	-1,0807724E-004
2	0	0	1	0	5,657180999372713E+004	1,8683802E+000	1,8679107E+000	-6,293550084822375E-002	1,000000000000000E+000	-1,0062439E-002	41	-1,1755789E-004
2	0	0	1	0	5,659180199376424E+004	1,8483883E+000	1,8479365E+000	-6,915236926284868E-002	1,000000000000000E+000	-1,1384011E-002	41	-1,2778919E-004
2	0	0	1	0	5,661179379380151E+004	1,8283964E+000	1,8279271E+000	-7,601854615325232E-002	1,000000000000000E+000	-1,2836441E-002	41	-1,3895635E-004
2	0	0	1	0	5,663178559383878E+004	1,8084048E+000	1,8079619E+000	-8,348683430880255E-002	1,000000000000000E+000	-1,4431943E-002	41	-1,5094102E-004
2	0	0	1	0	5,665177749387603E+004	1,7884128E+000	1,7879857E+000	-9,167899980196717E-002	1,000000000000000E+000	-1,6184127E-002	41	-1,6392073E-004
2	0	0	1	0	5,667176929391325E+004	1,7684209E+000	1,7679859E+000	-1,007300175080522E-001	1,000000000000000E+000	-1,8108137E-002	41	-1,7808925E-004
2	0	0	1	0	5,669176109395054E+004	1,7484291E+000	1,7478925E+000	-1,106468551998965E-001	1,000000000000000E+000	-2,0223783E-002	40	-1,9339881E-004
2	0	0	1	0	5,671175299398776E+004	1,7284373E+000	1,7279284E+000	-1,212656617450913E-001	1,000000000000000E+000	-2,2542546E-002	40	-2,0953838E-004
2	0	0	1	0	5,673174479402497E+004	1,7084453E+000	1,7079438E+000	-1,326997565263611E-001	1,000000000000000E+000	-2,5082022E-002	40	-2,2664372E-004
2	0	0	1	0	5,675173659406218E+004	1,6884536E+000	1,6879504E+000	-1,450422159243883E-001	1,000000000000000E+000	-2,7859660E-002	40	-2,4482407E-004
2	0	0	1	0	5,677172849409957E+004	1,6684616E+000	1,6679409E+000	-1,581733617002654E-001	1,000000000000000E+000	-3,0891327E-002	40	-2,6382381E-004
2	0	0	1	0	5,679172039413662E+004	1,6484698E+000	1,6479695E+000	-1,721663895546499E-001	1,000000000000000E+000	-3,4195207E-002	40	-2,8372495E-004
2	0	0	1	0	5,681171219417395E+004	1,6284779E+000	1,6279559E+000	-1,870917596032782E-001	1,000000000000000E+000	-3,7787255E-002	40	-3,0457714E-004
2	0	0	1	0	5,683170399421122E+004	1,6084864E+000	1,6079565E+000	-2,030290137382895E-001	1,000000000000000E+000	-4,1687768E-002	40	-3,2646183E-004
2	0	0	1	0	5,685169589424843E+004	1,5884943E+000	1,5879687E+000	-2,200728436562507E-001	1,000000000000000E+000	-4,5917064E-002	40	-3,4946878E-004
2	0	0	1	0	5,687168779428568E+004	1,5685025E+000	1,5679880E+000	-2,386886564714779E-001	1,000000000000000E+000	-5,0503340E-002	40	-3,7426097E-004
2	0	0	1	0	5,689167959432291E+004	1,5485106E+000	1,5479789E+000	-2,591491079672443E-001	1,000000000000000E+000	-5,5479128E-002	40	-4,0115733E-004
2	0	0	1	0	5,691167139436014E+004	1,5285189E+000	1,5280093E+000	-2,817341674159011E-001	1,000000000000000E+000	-6,0885139E-002	40	-4,3049242E-004
2	0	0	1	0	5,693166319439735E+004	1,5085270E+000	1,5080006E+000	-3,070833877622370E-001	1,000000000000000E+000	-6,6768564E-002	40	-4,6308193E-004
2	0	0	1	0	5,695165509443462E+004	1,4885349E+000	1,4880213E+000	-3,354156608881858E-001	1,000000000000000E+000	-7,3187023E-002	40	-4,9910560E-004
2	0	0	1	0	5,697164699447190E+004	1,4685433E+000	1,4680120E+000	-3,672724610413698E-001	1,000000000000000E+000	-8,0207527E-002	40	-5,3916039E-004
2	0	0	1	0	5,699163879450911E+004	1,4485513E+000	1,4480450E+000	-4,037924996809132E-001	1,000000000000000E+000	-8,7909490E-002	40	-5,8470969E-004
2	0	0	1	0	5,701163059454621E+004	1,4285597E+000	1,4280871E+000	-4,453007519024839E-001	1,000000000000000E+000	-9,6392021E-002	40	-6,3592824E-004
2	0	0	1	0	5,703162239458354E+004	1,4085678E+000	1,4081033E+000	-4,910301569986892E-001	1,000000000000000E+000	-1,0574894E-001	40	-6,9142121E-004
2	0	0	1	0	5,705161429462081E+004	1,3885759E+000	1,3881216E+000	-5,390759745350984E-001	1,000000000000000E+000	-1,1604983E-001	40	-7,4830302E-004
2	0	0	1	0	5,707160619465803E+004	1,3685839E+000	1,3681391E+000	-5,862483698268477E-001	1,000000000000000E+000	-1,2730624E-001	40	-8,0206932E-004
2	0	0	1	0	5,709159799469527E+004	1,3485923E+000	1,3481178E+000	-6,313473193869594E-001	1,000000000000000E+000	-1,3948353E-001	40	-8,5113058E-004
2	0	0	1	0	5,711158979473248E+004	1,3286005E+000	1,3281641E+000	-6,736502187220585E-001	1,000000000000000E+000	-1,5253858E-001	40	-8,9471805E-004
2	0	0	1	0	5,713158159476973E+004	1,3086085E+000	1,3081756E+000	-7,109923778592879E-001	1,000000000000000E+000	-1,6639325E-001	40	-9,3010283E-004
2	0	0	1	0	5,715157349480694E+004	1,2886165E+000	1,2882199E+000	-7,416285581279443E-001	1,000000000000000E+000	-1,8093000E-001	40	-9,5538067E-004
2	0	0	1	0	5,717156529484421E+004	1,2686249E+000	1,2682284E+000	-7,644499167678411E-001	1,000000000000000E+000	-1,9600064E-001	40	-9,6949708E-004
2	0	0	1	0	5,719155709488154E+004	1,2486330E+000	1,2482427E+000	-7,788615907374874E-001	1,000000000000000E+000	-2,1144357E-001	40	-9,7220833E-004
2	0	0	1	0	5,721154899491870E+004	1,2286412E+000	1,2282460E+000	-7,858679898560541E-001	1,000000000000000E+000	-2,2710107E-001	40	-9,6523919E-004
2	0	0	1	0	5,723154089495586E+004	1,2086493E+000	1,2082595E+000	-7,862682768367026E-001	1,000000000000000E+000	-2,4282879E-001	40	-9,5001608E-004
2	0	0	1	0	5,725153279499314E+004	1,1886574E+000	1,1882712E+000	-7,798444316826050E-001	1,000000000000000E+000	-2,5849757E-001	40	-9,2666666E-004
2	0	0	1	0	5,727152459503035E+004	1,1686656E+000	1,1682774E+000	-7,697886924891018E-001	1,000000000000000E+000	-2,7399677E-001	40	-8,9932670E-004
2	0	0	1	0	5,729151639506762E+004	1,1486738E+000	1,1482615E+000	-7,559636975425956E-001	1,000000000000000E+000	-2,8926730E-001	40	-8,6804404E-004
2	0	0	1	0	5,731150819510486E+004	1,1286820E+000	1,1282740E+000	-7,374246909075062E-001	1,000000000000000E+000	-3,0420101E-001	40	-8,3201710E-004
2	0	0	1	0	5,733149999514208E+004	1,1086903E+000	1,1082828E+000	-7,169810168920865E-001	1,000000000000000E+000	-3,1874672E-001	40	-7,9461775E-004
2	0	0	1	0	5,735149179517929E+004	1,0886984E+000	1,0882720E+000	-6,954525670067584E-001	1,000000000000000E+000	-3,3286950E-001	40	-7,5684156E-004
2	0	0	1	0	5,737148379521654E+004	1,0687064E+000	1,0682714E+000	-6,730802802172295E-001	1,000000000000000E+000	-3,4655365E-001	40	-7,1903242E-004
2	0	0	1	0	5,739147559525381E+004	1,0487145E+000	1,0482529E+000	-6,512480212002245E-001	1,000000000000000E+000	-3,5979235E-001	40	-6,8267266E-004
2	0	0	1	0	5,741146739529108E+004	1,0287228E+000	1,0282774E+000	-6,302992668822944E-001	1,000000000000000E+000	-3,7260234E-001	40	-6,4812251E-004
2	0	0	1	0	5,743145929532824E+004	1,0087308E+000	1,0082618E+000	-6,108333169193401E-001	1,000000000000000E+000	-3,8501021E-001	40	-6,1587989E-004
2	0	0	1	0	5,744975259536237E+004	1,0095307E+000	1,0090443E+000	-5,430604794706153E-001	1,000000000000000E+000	-3,9575315E-001	40	-5,4797210E-004
2	0	0	1	0	5,746974439539958E+004	1,0295224E+000	1,0290381E+000	-4,599122597695509E-001	1,000000000000000E+000	-4,0572807E-001	40	-4,7326722E-004
2	0	0	1	0	5,748973619543691E+004	1,0495143E+000	1,0490167E+000	-3,967171301080090E-001	1,000000000000000E+000	-4,1426218E-001	40	-4,1616289E-004
2	0	0	1	0	5,750972809547419E+004	1,0695060E+000	1,0689878E+000	-3,456607453219810E-001	1,000000000000000E+000	-4,2166206E-001	40	-3,6950715E-004
2	0	0	1	0	5,752971999551135E+004	1,0894980E+000	1,0889884E+000	-3,032675589877432E-001	1,000000000000000E+000	-4,2813283E-001	40	-3,3025487E-004
2	0	0	1	0	5,754971179554856E+004	1,1094898E+000	1,1089693E+000	-2,673098741130325E-001	1,000000000000000E+000	-4,3382320E-001	40	-2,9643846E-004
2	0	0	1	0	5,756970359558583E+004	1,1294816E+000	1,1289716E+000	-2,365491795835410E-001	1,000000000000000E+000	-4,3884924E-001	40	-2,6705730E-004
2	0	0	1	0	5,758969549562308E+004	1,1494735E+000	1,1489331E+000	-2,097335766856949E-001	1,000000000000000E+000	-4,4330117E-001	40	-2,4096984E-004
2	0	0	1	0	5,760968729566030E+004	1,1694653E+000	1,1689587E+000	-1,860717224772401E-001	1,000000000000000E+000	-4,4725019E-001	40	-2,1751015E-004
2	0	0	1	0	5,762967919569754E+004	1,1894572E+000	1,1889402E+000	-1,651687545657841E-001	1,000000000000000E+000	-4,5075458E-001	40	-1,9637577E-004
2	0	0	1	0	5,764967109573475E+004	1,2094491E+000	1,2088823E+000	-1,464036133142450E-001	1,000000000000000E+000	-4,5386326E-001	40	-1,7698474E-004
2	0	0	1	0	5,766966289577202E+004	1,2294409E+000	1,2288706E+000	-1,294351670684904E-001	1,000000000000000E+000	-4,5661482E-001	40	-1,5905907E-004
2	0	0	1	0	5,768965479580930E+004	1,2494328E+000	1,2488892E+000	-1,140286545557968E-001	1,000000000000000E+000	-4,5904356E-001	40	-1,4240916E-004
2	0	0	1	0	5,770964659584651E+004	1,2694247E+000	1,2688614E+000	-9,982265213470276E-002	1,000000000000000E+000	-4,6117687E-001	40	-1,2666111E-004
2	0	0	1	0	5,772963839588361E+004	1,2894162E+000	1,2888703E+000	-8,671567786166734E-002	1,000000000000000E+000	-4,6303713E-001	40	-1,1176526E-004
2	0	0	1	0	5,774963029592088E+004	1,3094081E+000	1,3088450E+000	-7,448348838301855E-002	1,000000000000000E+000	-4,6464503E-001	40	-9,7487347E-005
2	0	0	1	0	5,776962219595816E+004	1,3294001E+000	1,3288496E+000	-6,294206545615963E-002	1,000000000000000E+000	-4,6601486E-001	40	-8,3640538E-005
2	0	0	1	0	5,778961399599543E+004	1,3493918E+000	1,3488272E+000	-5,191613325677902E-002	1,000000000000000E+000	-4,6715963E-001	40	-7,0025897E-005
2	0	0	1	0	5,780960589603265E+004	1,3693837E+000	1,3688779E+000	-4,109393069015601E-002	1,000000000000000E+000	-4,6808594E-001	41	-5,6252575E-005
2	0	0	1	0	5,782959779606989E+004	1,3893757E+000	1,3888702E+000	-3,064609942811375E-002	1,000000000000000E+000	-4,6880078E-001	41	-4,2563457E-005
2	0	0	1	0	5,784958959610714E+004	1,4093674E+000	1,4088336E+000	-2,020686428542146E-002	1,000000000000000E+000	-4,6930680E-001	41	-2,8468110E-005
2	0	0	1	0	5,786958139614435E+004	1,4293592E+000	1,4288210E+000	-9,625378525103923E-003	1,000000000000000E+000	-4,6960256E-001	41	-1,3752942E-005
2	1	0	1	0	5,788957319618156E+004	1,4493511E+000	1,4487867E+000	1,266380134921849E-003	1,000000000000000E+000	-4,6968347E-001	42	1,8347148E-006
2	1	0	1	0	5,790956509621884E+004	1,4693429E+000	1,4687704E+000	1,268365213378030E-002	1,000000000000000E+000	-4,6954355E-001	41	1,8629373E-005
2	1	0	1	0	5,792955699625611E+004	1,4893349E+000	1,4887331E+000	2,459592724817357E-002	1,000000000000000E+000	-4,6916988E-001	41	3,6616770E-005
2	1	0	1	0	5,794954879629333E+004	1,5093266E+000	1,5087119E+000	3,727114930565870E-002	1,000000000000000E+000	-4,6855029E-001	41	5,6231427E-005
2	1	0	1	0	5,796954059633054E+004	1,5293183E+000	1,5287007E+000	5,093147020754840E-002	1,000000000000000E+000	-4,6766797E-001	41	7,7858975E-005
2	1	0	1	0	5,798953249636781E+004	1,5493102E+000	1,5486921E+000	6,585609846616952E-002	1,000000000000000E+000	-4,6650094E-001	41	1,0199082E-004
2	1	0	1	0	5,800952439640503E+004	1,5693021E+000	1,5686574E+000	8,272461012303056E-002	1,000000000000000E+000	-4,6501759E-001	41	1,2976657E-004
2	1	0	1	0	5,802951629644225E+004	1,5892941E+000	1,5886841E+000	1,020825430381465E-001	1,000000000000000E+000	-4,6317247E-001	41	1,6217690E-004
2	1	0	1	0	5,804950809647949E+004	1,6092860E+000	1,6087042E+000	1,246196963267068E-001	1,000000000000000E+000	-4,6091115E-001	40	2,0047624E-004
2	1	0	1	0	5,806949989651670E+004	1,6292776E+000	1,6286763E+000	1,548297471909295E-001	1,000000000000000E+000	-4,5813331E-001	40	2,5216755E-004
2	1	0	1	0	5,808949179655392E+004	1,6492696E+000	1,6486567E+000	1,970406510384675E-001	1,000000000000000E+000	-4,5463014E-001	40	3,2485239E-004
2	1	0	1	0	5,810948359659116E+004	1,6692615E+000	1,6686693E+000	2,466301961481618E-001	1,000000000000000E+000	-4,5019922E-001	40	4,1154426E-004
2	1	0	1	0	5,812947549662844E+004	1,6892532E+000	1,6886224E+000	2,994804837365592E-001	1,000000000000000E+000	-4,4474086E-001	40	5,0570944E-004
2	1	0	1	0	5,814946739666571E+004	1,7092451E+000	1,7086095E+000	3,547213552047346E-001	1,000000000000000E+000	-4,3820104E-001	40	6,0608028E-004
2	1	0	1	0	5,816945919670293E+004	1,7292371E+000	1,7286108E+000	4,118318767049427E-001	1,000000000000000E+000	-4,3053699E-001	40	7,1189704E-004
2	1	0	1	0	5,818945119674027E+004	1,7492290E+000	1,7485707E+000	4,704773713969753E-001	1,000000000000000E+000	-4,2171547E-001	40	8,2266296E-004
2	1	0	1	0	5,820944299677736E+004	1,7692206E+000	1,7685515E+000	5,303724377101622E-001	1,000000000000000E+000	-4,1171044E-001	40	9,3799096E-004
2	1	0	1	0	5,822943479681457E+004	1,7892123E+000	1,7885221E+000	5,911007322120838E-001	1,000000000000000E+000	-4,0049824E-001	40	1,0571968E-003
2	1	0	1	0	5,824942669685185E+004	1,8092043E+000	1,8085387E+000	6,525391066750625E-001	1,000000000000000E+000	-3,8806382E-001	40	1,1801422E-003
2	1	0	1	0	5,826941849688912E+004	1,8291962E+000	1,8285317E+000	7,150150741107719E-001	1,000000000000000E+000	-3,7439141E-001	40	1,3074278E-003
2	1	0	1	0	5,828941029692636E+004	1,8491880E+000	1,8485268E+000	7,784543276437628E-001	1,000000000000000E+000	-3,5946003E-001	40	1,4389937E-003
2	1	0	1	0	5,830940219696358E+004	1,8691798E+000	1,8685267E+000	8,394947744552050E-001	1,000000000000000E+000	-3,4327456E-001	40	1,5686183E-003
2	1	0	1	0	5,832939409700088E+004	1,8891718E+000	1,8885357E+000	8,949112019682968E-001	1,000000000000000E+000	-3,2591945E-001	40	1,6900718E-003
2	1	0	1	0	5,834938589703810E+004	1,9091637E+000	1,9085481E+000	9,416193038311746E-001	1,000000000000000E+000	-3,0754107E-001	40	1,7971258E-003
2	1	0	1	0	5,836937779707531E+004	1,9291555E+000	1,9284905E+000	9,772184759366382E-001	1,000000000000000E+000	-2,8833717E-001	40	1,8845566E-003
2	1	0	1	0	5,838936959711264E+004	1,9491473E+000	1,9484642E+000	9,998581079075723E-001	1,000000000000000E+000	-2,6854935E-001	40	1,9481877E-003
2	1	0	1	0	5,840936149714980E+004	1,9691390E+000	1,9684561E+000	1,008292443885551E+000	1,000000000000000E+000	-2,4844715E-001	40	1,9847795E-003
2	1	0	1	0	5,842935339718708E+004	1,9891310E+000	1,9884908E+000	1,002143947177441E+000	1,000000000000000E+000	-2,2832513E-001	40	1,9927539E-003
2	1	0	1	0	5,844934519722429E+004	2,0091228E+000	2,0084858E+000	9,802574025565036E-001	1,000000000000000E+000	-2,0847854E-001	40	1,9688332E-003
2	1	0	1	0	5,846933699726150E+004	2,0291145E+000	2,0284617E+000	9,430917463904516E-001	1,000000000000000E+000	-1,8922567E-001	40	1,9130255E-003
2	1	0	1	0	5,848932899729878E+004	2,0491064E+000	2,0484571E+000	8,922514339423175E-001	1,000000000000000E+000	-1,7085780E-001	40	1,8277388E-003
2	1	0	1	0	5,850932079733600E+004	2,0690982E+000	2,0684609E+000	8,293864694257143E-001	1,000000000000000E+000	-1,5362801E-001	40	1,7155536E-003
2	1	0	1	0	5,852931269737324E+004	2,0890901E+000	2,0884392E+000	7,576919473002697E-001	1,000000000000000E+000	-1,3775027E-001	40	1,5823935E-003
2	1	0	1	0	5,854930459741046E+004	2,1090820E+000	2,1084700E+000	6,810243756276577E-001	1,000000000000000E+000	-1,2336348E-001	40	1,4359194E-003
2	1	0	1	0	5,856929659744771E+004	2,1290736E+000	2,1284635E+000	6,042469983483780E-001	1,000000000000000E+000	-1,1051624E-001	40	1,2861177E-003
2	1	0	1	0	5,858928829748492E+004	2,1490653E+000	2,1484501E+000	5,305563309372427E-001	1,000000000000000E+000	-9,9182144E-002	40	1,1398739E-003
2	1	0	1	0	5,860928029752214E+004	2,1690574E+000	2,1684420E+000	4,631577519190886E-001	1,000000000000000E+000	-8,9260407E-002	40	1,0043307E-003
2	1	0	1	0	5,862927209755941E+004	2,1890492E+000	2,1884456E+000	4,037985988604618E-001	1,000000000000000E+000	-8,0607429E-002	40	8,8369125E-004
2	1	0	1	0	5,864926379759668E+004	2,2090411E+000	2,2084525E+000	3,526026583721242E-001	1,000000000000000E+000	-7,3059395E-002	40	7,7870622E-004
2	1	0	1	0	5,866925569763384E+004	2,2290330E+000	2,2284830E+000	3,090233536557434E-001	1,000000000000000E+000	-6,6456832E-002	40	6,8865326E-004
2	1	0	1	0	5,868924759767111E+004	2,2490249E+000	2,2484524E+000	2,723372806254409E-001	1,000000000000000E+000	-6,0650237E-002	40	6,1233743E-004
2	1	0	1	0	5,870923939770833E+004	2,2690167E+000	2,2684455E+000	2,411833397845130E-001	1,000000000000000E+000	-5,5524539E-002	40	5,4711127E-004
2	1	0	1	0	5,872923139774561E+004	2,2890086E+000	2,2884567E+000	2,144388843986565E-001	1,000000000000000E+000	-5,0978333E-002	40	4,9073412E-004
2	1	0	1	0	5,874922319778282E+004	2,3090003E+000	2,3084755E+000	1,922830865608907E-001	1,000000000000000E+000	-4,6917379E-002	40	4,4388080E-004
2	1	0	1	0	5,876921519782007E+004	2,3289924E+000	2,3284574E+000	1,734822175431159E-001	1,000000000000000E+000	-4,3263830E-002	40	4,0394595E-004
2	1	0	1	0	5,878920699785728E+004	2,3489840E+000	2,3484538E+000	1,575895198015216E-001	1,000000000000000E+000	-3,9957922E-002	40	3,7009170E-004
2	1	0	1	0	5,880919889789450E+004	2,3689759E+000	2,3684490E+000	1,437594269988622E-001	1,000000000000000E+000	-3,6946427E-002	40	3,4048688E-004
2	1	0	1	0	5,882919069793174E+004	2,3889678E+000	2,3884339E+000	1,322439752704860E-001	1,000000000000000E+000	-3,4188494E-002	40	3,1585598E-004
2	1	0	1	0	5,884918249796901E+004	2,4089596E+000	2,4083989E+000	1,223777506922439E-001	1,000000000000000E+000	-3,1644054E-002	40	2,9473443E-004
2	1	0	1	0	5,886917439800629E+004	2,4289515E+000	2,4284027E+000	1,138324110081403E-001	1,000000000000000E+000	-2,9282760E-002	40	2,7643092E-004
2	1	0	1	0	5,888916619804350E+004	2,4489436E+000	2,4483917E+000	1,064959288614826E-001	1,000000000000000E+000	-2,7079843E-002	40	2,6074375E-004
2	1	0	1	0	5,890915819808072E+004	2,4689350E+000	2,4684067E+000	1,000701852536836E-001	1,000000000000000E+000	-2,5014274E-002	40	2,4701390E-004
2	1	0	1	0	5,892914999811794E+004	2,4889271E+000	2,4883633E+000	9,437246989388992E-002	1,000000000000000E+000	-2,3070622E-002	40	2,3483299E-004
2	1	0	1	0	5,894914179815515E+004	2,5089188E+000	2,5084074E+000	8,931786683663479E-002	1,000000000000000E+000	-2,1234052E-002	40	2,2404559E-004
2	1	0	1	0	5,896913389819243E+004	2,5289106E+000	2,5283811E+000	8,478871683197120E-002	1,000000000000000E+000	-1,9492844E-002	40	2,1437819E-004
2	1	0	1	0	5,898912569822965E+004	2,5489025E+000	2,5483871E+000	8,080964837518145E-002	1,000000000000000E+000	-1,7836189E-002	40	2,0593427E-004
2	1	0	1	0	5,900911749826686E+004	2,5688939E+000	2,5683413E+000	7,724458837914494E-002	1,000000000000000E+000	-1,6254937E-002	40	1,9839047E-004
2	1	0	1	0	5,902910949830411E+004	2,5888863E+000	2,5883584E+000	7,421853230969955E-002	1,000000000000000E+000	-1,4739270E-002	40	1,9210415E-004
2	1	0	1	0	5,904910119834138E+004	2,6088779E+000	2,6083117E+000	7,155930183694537E-002	1,000000000000000E+000	-1,3281119E-002	40	1,8664896E-004
2	1	0	1	0	5,906909299837862E+004	2,6288698E+000	2,6283376E+000	6,921880708310980E-002	1,000000000000000E+000	-1,1872166E-002	40	1,8193040E-004
2	1	0	1	0	5,908908489841584E+004	2,6488616E+000	2,6483264E+000	6,714147205155208E-002	1,000000000000000E+000	-1,0507424E-002	40	1,7781253E-004
2	1	0	1	0	5,910907679845311E+004	2,6688538E+000	2,6683376E+000	6,511901420750388E-002	1,000000000000000E+000	-9,1836359E-003	40	1,7375952E-004
2	1	0	1	0	5,912906859849032E+004	2,6888452E+000	2,6883276E+000	6,327411693900664E-002	1,000000000000000E+000	-7,8983000E-003	40	1,7010156E-004
2	1	0	1	1	5,914776119852520E+004	2,6924441E+000	2,6919560E+000	5,007410166021420E-002	1,000000000000000E+000	-6,7907935E-003	40	1,3479729E-004
2	1	0	1	1	5,916775299856241E+004	2,6724522E+000	2,6719103E+000	4,020402729235517E-002	1,000000000000000E+000	-5,8994312E-003	41	1,0742155E-004
2	1	0	1	1	5,918774499859964E+004	2,6524603E+000	2,6519361E+000	3,354113246053059E-002	1,000000000000000E+000	-5,1678615E-003	41	8,8948938E-005
2	1	0	1	1	5,920773679863696E+004	2,6324680E+000	2,6319382E+000	2,846385766386189E-002	1,000000000000000E+000	-4,5523527E-003	41	7,4915115E-005
2	1	0	1	1	5,922772849867423E+004	2,6124766E+000	2,6119392E+000	2,436510265241337E-002	1,000000000000000E+000	-4,0278258E-003	41	6,3640167E-005
2	1	0	1	1	5,924772049871134E+004	2,5924845E+000	2,5919523E+000	2,099314476740349E-002	1,000000000000000E+000	-3,5772675E-003	41	5,4413231E-005
2	1	0	1	1	5,926771229874855E+004	2,5724926E+000	2,5719428E+000	1,816862669524613E-002	1,000000000000000E+000	-3,1884534E-003	41	4,6728670E-005
2	1	0	1	1	5,928770409878588E+004	2,5525010E+000	2,5519662E+000	1,575367370767983E-002	1,000000000000000E+000	-2,8521563E-003	41	4,0202842E-005
2	1	0	1	1	5,930769599882310E+004	2,5325091E+000	2,5319941E+000	1,359386841901378E-002	1,000000000000000E+000	-2,5616186E-003	41	3,4419594E-005
2	1	0	1	1	5,932608849885734E+004	2,5141165E+000	2,5136232E+000	1,180173075336787E-002	2,000000000000000E+000	-2,3302406E-003	41	2,9665105E-005
2	1	0	1	1	5,934608039889461E+004	2,4941249E+000	2,4935973E+000	1,007956670898388E-002	2,000000000000000E+000	-2,1141786E-003	41	2,5134381E-005
2	1	0	1	1	5,936607219893183E+004	2,4741330E+000	2,4736099E+000	8,457135273817820E-003	2,000000000000000E+000	-1,9314397E-003	41	2,0919653E-005
2	1	0	1	1	5,938606409896910E+004	2,4541409E+000	2,4536004E+000	6,970591171914814E-003	2,000000000000000E+000	-1,7793394E-003	41	1,7103046E-005
2	1	0	1	1	5,940605589900631E+004	2,4341493E+000	2,4336152E+000	5,597443153228576E-003	2,000000000000000E+000	-1,6555394E-003	41	1,3622022E-005
2	1	0	1	1	5,942614779904368E+004	2,4140577E+000	2,4134817E+000	4,303695548016878E-003	2,000000000000000E+000	-1,5580716E-003	42	1,0386891E-005
2	1	0	1	1	5,944613949908095E+004	2,3940659E+000	2,3935213E+000	3,077432642169177E-003	2,000000000000000E+000	-1,4863109E-003	42	7,3659007E-006
2	1	0	1	1	5,946613139911823E+004	2,3740737E+000	2,3735211E+000	1,877404283659717E-003	2,000000000000000E+000	-1,4390375E-003	42	4,4560588E-006
2	1	0	1	1	5,948612329915538E+004	2,3540816E+000	2,3535442E+000	6,585080153144948E-004	2,000000000000000E+000	-1,4159640E-003	42	1,5498277E-006
2	0	0	1	1	5,950611499919253E+004	2,3340902E+000	2,3335598E+000	-5,609692390008969E-004	2,000000000000000E+000	-1,4169265E-003	42	-1,3090553E-006
2	0	0	1	1	5,952610679922986E+004	2,3140984E+000	2,3136094E+000	-1,787924679772681E-003	2,000000000000000E+000	-1,4423127E-003	42	-4,1365593E-006
2	0	0	1	1	5,954609869926714E+004	2,2941062E+000	2,2936249E+000	-3,055462162975302E-003	2,000000000000000E+000	-1,4927140E-003	42	-7,0080841E-006
2	0	0	1	1	5,956609059930436E+004	2,2741146E+000	2,2736409E+000	-4,391588879472344E-003	2,000000000000000E+000	-1,5692777E-003	42	-9,9848958E-006
2	0	0	1	1	5,958608239934160E+004	2,2541230E+000	2,2536550E+000	-5,818368842442089E-003	2,000000000000000E+000	-1,6730170E-003	42	-1,3112596E-005
2	0	0	1	1	5,960607429937882E+004	2,2341311E+000	2,2337048E+000	-7,262099501021312E-003	2,000000000000000E+000	-1,8053064E-003	42	-1,6221387E-005
2	0	0	1	1	5,962606619941603E+004	2,2141392E+000	2,2137082E+000	-8,844795577139922E-003	2,000000000000000E+000	-1,9681414E-003	42	-1,9579797E-005
2	0	0	1	1	5,964605789945327E+004	2,1941471E+000	2,1936338E+000	-1,052273746225699E-002	2,000000000000000E+000	-2,1639743E-003	41	-2,3083032E-005
2	0	0	1	1	5,966604989949049E+004	2,1741552E+000	2,1736410E+000	-1,228876284904754E-002	2,000000000000000E+000	-2,3940797E-003	41	-2,6711359E-005
2	0	0	1	1	5,968604169952776E+004	2,1541636E+000	2,1536517E+000	-1,419174811378640E-002	2,000000000000000E+000	-2,6607879E-003	41	-3,0564082E-005
2	0	0	1	1	5,970603339956503E+004	2,1341720E+000	2,1336398E+000	-1,620538175863978E-002	2,000000000000000E+000	-2,9667837E-003	41	-3,4576449E-005
2	0	0	1	1	5,972602519960213E+004	2,1141798E+000	2,1136587E+000	-1,841013376410150E-002	2,000000000000000E+000	-3,3148264E-003	41	-3,8912738E-005
2	0	0	1	1	5,974601709963963E+004	2,0941882E+000	2,0936706E+000	-2,076894435952799E-002	2,000000000000000E+000	-3,7082154E-003	41	-4,3483327E-005
2	0	0	1	1	5,976600899967668E+004	2,0741961E+000	2,0736814E+000	-2,331313055270812E-002	2,000000000000000E+000	-4,1505233E-003	41	-4,8344005E-005
2	0	0	1	1	5,978600079971395E+004	2,0542045E+000	2,0536847E+000	-2,599514331254293E-002	2,000000000000000E+000	-4,6454123E-003	41	-5,3385829E-005
2	0	0	1	1	5,980599279975117E+004	2,0342124E+000	2,0337300E+000	-2,896389139961597E-002	2,000000000000000E+000	-5,1966337E-003	41	-5,8904734E-005
2	0	0	1	1	5,982598459978841E+004	2,0142205E+000	2,0137181E+000	-3,211114622003647E-002	2,000000000000000E+000	-5,8089076E-003	41	-6,4662796E-005
2	0	0	1	1	5,984597639982568E+004	1,9942291E+000	1,9937602E+000	-3,554110025010626E-002	2,000000000000000E+000	-6,4873225E-003	41	-7,0860435E-005
2	0	0	1	1	5,986596829986290E+004	1,9742370E+000	1,9737558E+000	-3,928453160781670E-002	2,000000000000000E+000	-7,2371424E-003	41	-7,7538076E-005
2	0	0	1	1	5,988596019990015E+004	1,9542452E+000	1,9537591E+000	-4,335807834045724E-002	2,000000000000000E+000	-8,0651464E-003	41	-8,4711239E-005
2	0	0	1	1	5,990595199993742E+004	1,9342535E+000	1,9337689E+000	-4,778263077847711E-002	2,000000000000000E+000	-8,9777680E-003	41	-9,2400565E-005
2	0	0	1	1	5,992594379997475E+004	1,9142615E+000	1,9137917E+000	-5,260149090125793E-002	2,000000000000000E+000	-9,9827638E-003	41	-1,0066829E-004
2	0	0	1	1	5,994593560001196E+004	1,8942697E+000	1,8938057E+000	-5,788950878131516E-002	2,000000000000000E+000	-1,1088531E-002	41	-1,0963148E-004
2	0	0	1	1	5,996592750004912E+004	1,8742777E+000	1,8738477E+000	-6,364243637393796E-002	2,000000000000000E+000	-1,2304915E-002	41	-1,1925623E-004
2	0	0	1	1	5,998591940008639E+004	1,8542858E+000	1,8538234E+000	-6,997521549032215E-002	2,000000000000000E+000	-1,3642482E-002	41	-1,2972169E-004
2	0	0	1	1	6,000591120012361E+004	1,8342941E+000	1,8338492E+000	-7,696336883438049E-002	2,000000000000000E+000	-1,5112579E-002	41	-1,4113921E-004
2	0	0	1	1	6,002590300016082E+004	1,8143021E+000	1,8138572E+000	-8,457127166021516E-002	2,000000000000000E+000	-1,6728135E-002	41	-1,5340021E-004
2	0	0	1	1	6,004589480019812E+004	1,7943105E+000	1,7938913E+000	-9,290088938315733E-002	2,000000000000000E+000	-1,8503059E-002	41	-1,6665409E-004
2	0	0	1	1	6,006588670023534E+004	1,7743186E+000	1,7738422E+000	-1,022105189648437E-001	2,000000000000000E+000	-2,0453151E-002	41	-1,8130534E-004
2	0	0	1	1	6,008587860027258E+004	1,7543266E+000	1,7537829E+000	-1,121766941363041E-001	2,000000000000000E+000	-2,2597680E-002	40	-1,9673357E-004
2	0	0	1	1	6,010587040030980E+004	1,7343349E+000	1,7337862E+000	-1,229607614123738E-001	2,000000000000000E+000	-2,4948850E-002	40	-2,1318767E-004
2	0	0	1	1	6,012586220034701E+004	1,7143431E+000	1,7137864E+000	-1,345903446279750E-001	2,000000000000000E+000	-2,7524099E-002	40	-2,3065909E-004
2	0	0	1	1	6,014585400038434E+004	1,6943512E+000	1,6938293E+000	-1,471021839243241E-001	2,000000000000000E+000	-3,0341178E-002	40	-2,4916598E-004
2	0	0	1	1	6,016584590042150E+004	1,6743593E+000	1,6738269E+000	-1,604942409792725E-001	2,000000000000000E+000	-3,3417266E-002	40	-2,6863959E-004
2	0	0	1	1	6,018583780045877E+004	1,6543674E+000	1,6538289E+000	-1,748633190690398E-001	2,000000000000000E+000	-3,6770668E-002	40	-2,8919399E-004
2	0	0	1	1	6,020582960049598E+004	1,6343756E+000	1,6338376E+000	-1,900540050340735E-001	2,000000000000000E+000	-4,0419444E-002	40	-3,1051738E-004
2	0	0	1	1	6,022582140053320E+004	1,6143839E+000	1,6138636E+000	-2,062643283701444E-001	2,000000000000000E+000	-4,4381429E-002	40	-3,3288248E-004
2	0	0	1	1	6,024581340057048E+004	1,5943918E+000	1,5938604E+000	-2,238466091808387E-001	2,000000000000000E+000	-4,8681732E-002	40	-3,5678025E-004
2	0	0	1	1	6,026580520060769E+004	1,5744001E+000	1,5738595E+000	-2,429624017720311E-001	2,000000000000000E+000	-5,3348318E-002	40	-3,8238868E-004
2	0	0	1	1	6,028579700064493E+004	1,5544084E+000	1,5538808E+000	-2,639744253206808E-001	2,000000000000000E+000	-5,8414925E-002	40	-4,1018479E-004
2	0	0	1	1	6,030578890068215E+004	1,5344162E+000	1,5338966E+000	-2,873148959374183E-001	2,000000000000000E+000	-6,3924581E-002	40	-4,4071133E-004
2	0	0	1	1	6,032578060071939E+004	1,5144247E+000	1,5138965E+000	-3,134925271640903E-001	2,000000000000000E+000	-6,9928735E-002	40	-4,7459523E-004
2	0	0	1	1	6,034577240075660E+004	1,4944328E+000	1,4939400E+000	-3,429305692989111E-001	2,000000000000000E+000	-7,6487787E-002	40	-5,1231770E-004
2	0	0	1	1	6,036576430079388E+004	1,4744409E+000	1,4739279E+000	-3,761453879579584E-001	2,000000000000000E+000	-8,3671920E-002	40	-5,5441115E-004
2	0	0	1	1	6,038575620083115E+004	1,4544491E+000	1,4539456E+000	-4,137161880192961E-001	2,000000000000000E+000	-9,1564752E-002	40	-6,0152082E-004
2	0	0	1	1	6,040574800086836E+004	1,4344572E+000	1,4339445E+000	-4,562647480049753E-001	2,000000000000000E+000	-1,0025682E-001	40	-6,5425830E-004
2	0	0	1	1	6,042573990090564E+004	1,4144654E+000	1,4140000E+000	-5,029706955149984E-001	2,000000000000000E+000	-1,0984335E-001	40	-7,1120058E-004
2	0	0	1	1	6,044573170094285E+004	1,3944736E+000	1,3940028E+000	-5,514104419948644E-001	2,000000000000000E+000	-1,2038714E-001	40	-7,6866767E-004
2	0	0	1	1	6,046572360098007E+004	1,3744816E+000	1,3740160E+000	-5,989598839277921E-001	2,000000000000000E+000	-1,3189428E-001	40	-8,2298048E-004
2	0	0	1	1	6,048571540101728E+004	1,3544899E+000	1,3540220E+000	-6,420140250675860E-001	2,000000000000000E+000	-1,4431123E-001	40	-8,6930115E-004
2	0	0	1	1	6,050570720105452E+004	1,3344980E+000	1,3340524E+000	-6,804153015470078E-001	2,000000000000000E+000	-1,5754189E-001	40	-9,0770971E-004
2	0	0	1	1	6,052569900109174E+004	1,3145062E+000	1,3140570E+000	-7,151546373975890E-001	2,000000000000000E+000	-1,7149964E-001	40	-9,3975395E-004
2	0	0	1	1	6,054569090112898E+004	1,2945142E+000	1,2940879E+000	-7,458311519635537E-001	2,000000000000000E+000	-1,8611841E-001	40	-9,6517109E-004
2	0	0	1	1	6,056568280116620E+004	1,2745223E+000	1,2741044E+000	-7,701345574388778E-001	2,000000000000000E+000	-2,0128763E-001	40	-9,8123180E-004
2	0	0	1	1	6,058567460120341E+004	1,2545307E+000	1,2541114E+000	-7,863378559521685E-001	2,000000000000000E+000	-2,1686250E-001	40	-9,8615524E-004
2	0	0	1	1	6,060566640124074E+004	1,2345388E+000	1,2341243E+000	-7,948339750099667E-001	2,000000000000000E+000	-2,3268519E-001	40	-9,8092388E-004
2	0	0	1	1	6,062565820127795E+004	1,2145470E+000	1,2141584E+000	-7,961740368550574E-001	2,000000000000000E+000	-2,4860504E-001	40	-9,6668140E-004
2	0	0	1	1	6,064565010131523E+004	1,1945550E+000	1,1941670E+000	-7,906550770188459E-001	2,000000000000000E+000	-2,6448011E-001	40	-9,4417424E-004
2	0	0	1	1	6,066564200135251E+004	1,1745633E+000	1,1741976E+000	-7,796866178407749E-001	2,000000000000000E+000	-2,8018773E-001	40	-9,1550610E-004
2	0	0	1	1	6,068563380138960E+004	1,1545714E+000	1,1541718E+000	-7,644637593692440E-001	2,000000000000000E+000	-2,9563144E-001	40	-8,8232255E-004
2	0	0	1	1	6,070562570142688E+004	1,1345795E+000	1,1341729E+000	-7,455953638315602E-001	2,000000000000000E+000	-3,1073335E-001	40	-8,4563409E-004
2	0	0	1	1	6,072561740146411E+004	1,1145878E+000	1,1141778E+000	-7,246064584338825E-001	2,000000000000000E+000	-3,2543620E-001	40	-8,0734043E-004
2	0	0	1	1	6,074560930150133E+004	1,0945958E+000	1,0941628E+000	-7,024227815602853E-001	2,000000000000000E+000	-3,3970571E-001	40	-7,6856487E-004
2	0	0	1	1	6,076560120153861E+004	1,0746040E+000	1,0741495E+000	-6,796584321709904E-001	2,000000000000000E+000	-3,5352397E-001	40	-7,3005474E-004
2	0	0	1	1	6,078559300157585E+004	1,0546122E+000	1,0541557E+000	-6,571028270880350E-001	2,000000000000000E+000	-3,6688718E-001	40	-6,9268869E-004
2	0	0	1	1	6,080558480161312E+004	1,0346204E+000	1,0341403E+000	-6,353993282140245E-001	2,000000000000000E+000	-3,7980670E-001	40	-6,5709208E-004
2	0	0	1	1	6,082557670165040E+004	1,0146284E+000	1,0141588E+000	-6,152101091252593E-001	2,000000000000000E+000	-3,9230841E-001	40	-6,2392076E-004
2	0	0	1	1	6,084377000168426E+004	1,0035330E+000	1,0030276E+000	-5,741613985030618E-001	2,000000000000000E+000	-4,0329757E-001	40	-5,7589973E-004
2	0	0	1	1	6,086376180172150E+004	1,0235248E+000	1,0230173E+000	-4,797863303561249E-001	2,000000000000000E+000	-4,1375902E-001	40	-4,9082970E-004
2	0	0	1	1	6,088375370175873E+004	1,0435168E+000	1,0429986E+000	-4,113439976366093E-001	2,000000000000000E+000	-4,2263234E-001	40	-4,2903121E-004
2	0	0	1	1	6,090374550179596E+004	1,0635085E+000	1,0629686E+000	-3,568222192522159E-001	2,000000000000000E+000	-4,3028829E-001	40	-3,7929081E-004
2	0	0	1	1	6,092373740183318E+004	1,0835004E+000	1,0829599E+000	-3,119129801615275E-001	2,000000000000000E+000	-4,3695560E-001	40	-3,3778924E-004
2	0	0	1	1	6,094372930187045E+004	1,1034923E+000	1,1029425E+000	-2,741398262718824E-001	2,000000000000000E+000	-4,4279939E-001	40	-3,0236045E-004
2	0	0	1	1	6,096372110190766E+004	1,1234840E+000	1,1229113E+000	-2,418036043122243E-001	2,000000000000000E+000	-4,4794524E-001	40	-2,7152401E-004
2	0	0	1	1	6,098371290194499E+004	1,1434759E+000	1,1429284E+000	-2,138059746257660E-001	2,000000000000000E+000	-4,5249012E-001	40	-2,4436490E-004
2	0	0	1	1	6,100370480198204E+004	1,1634678E+000	1,1629171E+000	-1,893464195043287E-001	2,000000000000000E+000	-4,5651183E-001	40	-2,2019420E-004
2	0	0	1	1	6,102369660201936E+004	1,1834596E+000	1,1829019E+000	-1,677215158076555E-001	2,000000000000000E+000	-4,6007377E-001	40	-1,9839809E-004
2	0	0	1	1	6,104368840205664E+004	1,2034514E+000	1,2028770E+000	-1,484409541555769E-001	2,000000000000000E+000	-4,6322799E-001	40	-1,7855622E-004
2	0	0	1	1	6,106368040209386E+004	1,2234435E+000	1,2228841E+000	-1,310507059821300E-001	2,000000000000000E+000	-4,6601626E-001	40	-1,6025982E-004
2	0	0	1	1	6,108367220213110E+004	1,2434351E+000	1,2428322E+000	-1,152726208299806E-001	2,000000000000000E+000	-4,6847391E-001	40	-1,4326452E-004
2	0	0	1	1	6,110366400216831E+004	1,2634269E+000	1,2628653E+000	-1,007563374809874E-001	2,000000000000000E+000	-4,7062898E-001	40	-1,2724168E-004
2	0	0	1	1	6,112365590220556E+004	1,2834188E+000	1,2828484E+000	-8,740129379545447E-002	2,000000000000000E+000	-4,7250587E-001	40	-1,1212261E-004
2	0	0	1	1	6,114364770224277E+004	1,3034108E+000	1,3028400E+000	-7,491416873348955E-002	2,000000000000000E+000	-4,7412461E-001	40	-9,7601172E-005
2	0	0	1	1	6,116363960227999E+004	1,3234025E+000	1,3228606E+000	-6,318746447345480E-002	2,000000000000000E+000	-4,7550100E-001	40	-8,3588209E-005
2	0	0	1	1	6,118363140231732E+004	1,3433942E+000	1,3428313E+000	-5,201068324851010E-002	2,000000000000000E+000	-4,7664919E-001	40	-6,9841568E-005
2	0	0	1	1	6,120362330235448E+004	1,3633862E+000	1,3628638E+000	-4,113689969020584E-002	2,000000000000000E+000	-4,7757626E-001	41	-5,6063989E-005
2	0	0	1	1	6,122361520239175E+004	1,3833781E+000	1,3828295E+000	-3,060525514302795E-002	2,000000000000000E+000	-4,7829089E-001	41	-4,2321852E-005
2	0	0	1	1	6,124360700242897E+004	1,4033699E+000	1,4028413E+000	-2,018266529761263E-002	2,000000000000000E+000	-4,7879598E-001	41	-2,8313078E-005
2	0	0	1	1	6,126359880246618E+004	1,4233617E+000	1,4227642E+000	-9,635536099127207E-003	2,000000000000000E+000	-4,7909188E-001	41	-1,3709096E-005
2	1	0	1	1	6,128359070250345E+004	1,4433537E+000	1,4427543E+000	1,077613070545897E-003	2,000000000000000E+000	-4,7917464E-001	42	1,5547308E-006
2	1	0	1	1	6,130358260254067E+004	1,4633454E+000	1,4627687E+000	1,237658552943682E-002	2,000000000000000E+000	-4,7903952E-001	41	1,8104081E-005
2	1	0	1	1	6,132357440257791E+004	1,4833373E+000	1,4827541E+000	2,404825330911237E-002	2,000000000000000E+000	-4,7867405E-001	41	3,5657646E-005
2	1	0	1	1	6,134356620261513E+004	1,5033290E+000	1,5027281E+000	3,648035828189322E-002	2,000000000000000E+000	-4,7806793E-001	41	5,4820059E-005
2	1	0	1	1	6,136355810265237E+004	1,5233209E+000	1,5227028E+000	4,967132725512846E-002	2,000000000000000E+000	-4,7720611E-001	41	7,5634671E-005
2	1	0	1	1	6,138355000268959E+004	1,5433128E+000	1,5426824E+000	6,405390935825750E-002	2,000000000000000E+000	-4,7606933E-001	41	9,8814839E-005
2	1	0	1	1	6,140354180272692E+004	1,5633045E+000	1,5626316E+000	8,012591387234513E-002	2,000000000000000E+000	-4,7462913E-001	41	1,2520728E-004
2	1	0	1	1	6,142353370276408E+004	1,5832967E+000	1,5826430E+000	9,868267778931061E-002	2,000000000000000E+000	-4,7284305E-001	41	1,5617945E-004
2	1	0	1	1	6,144352560280135E+004	1,6032884E+000	1,6027323E+000	1,199507036682903E-001	2,000000000000000E+000	-4,7066009E-001	40	1,9224887E-004
2	1	0	1	1	6,146351740283868E+004	1,6232802E+000	1,6226902E+000	1,471564545145618E-001	2,000000000000000E+000	-4,6800256E-001	40	2,3878933E-004
2	1	0	1	1	6,148350920287590E+004	1,6432720E+000	1,6426721E+000	1,860882238238268E-001	2,000000000000000E+000	-4,6468967E-001	40	3,0568193E-004
2	1	0	1	1	6,150350110291305E+004	1,6632637E+000	1,6626494E+000	2,342782088112982E-001	2,000000000000000E+000	-4,6049407E-001	40	3,8952252E-004
2	1	0	1	1	6,152349300295027E+004	1,6832557E+000	1,6826739E+000	2,866854513757433E-001	2,000000000000000E+000	-4,5528796E-001	40	4,8239814E-004
2	1	0	1	1	6,154348490298749E+004	1,7032474E+000	1,7026372E+000	3,415762975386851E-001	2,000000000000000E+000	-4,4900787E-001	40	5,8158051E-004
2	1	0	1	1	6,156347670302479E+004	1,7232394E+000	1,7226484E+000	3,986213460856791E-001	2,000000000000000E+000	-4,4160789E-001	40	6,8668439E-004
2	1	0	1	1	6,158346850306200E+004	1,7432312E+000	1,7425876E+000	4,575123562311205E-001	2,000000000000000E+000	-4,3304929E-001	40	7,9725537E-004
2	1	0	1	1	6,160346040309925E+004	1,7632231E+000	1,7625834E+000	5,179567968336578E-001	2,000000000000000E+000	-4,2329717E-001	40	9,1294205E-004
2	1	0	1	1	6,162345230313652E+004	1,7832149E+000	1,7825744E+000	5,799644789200951E-001	2,000000000000000E+000	-4,1231984E-001	40	1,0338299E-003
2	1	0	1	1	6,164344410317380E+004	1,8032069E+000	1,8025581E+000	6,439228944273125E-001	2,000000000000000E+000	-4,0008548E-001	40	1,1607084E-003
2	1	0	1	1	6,166343600321107E+004	1,8231986E+000	1,8225513E+000	7,108721955571014E-001	2,000000000000000E+000	-3,8654384E-001	40	1,2956010E-003
2	1	0	1	1	6,168342780324828E+004	1,8431907E+000	1,8425392E+000	7,802526031738886E-001	2,000000000000000E+000	-3,7163451E-001	40	1,4376460E-003
2	1	0	1	1	6,170341960328538E+004	1,8631822E+000	1,8625288E+000	8,478488417416381E-001	2,000000000000000E+000	-3,5534632E-001	40	1,5791429E-003
2	1	0	1	1	6,172341150332266E+004	1,8831742E+000	1,8825121E+000	9,084549031812106E-001	2,000000000000000E+000	-3,3776814E-001	40	1,7101773E-003
2	1	0	1	1	6,174340340335993E+004	1,9031662E+000	1,9025095E+000	9,581283460884169E-001	2,000000000000000E+000	-3,1908274E-001	40	1,8228482E-003
2	1	0	1	1	6,176339520339720E+004	1,9231578E+000	1,9224875E+000	9,939021404826178E-001	2,000000000000000E+000	-2,9954275E-001	40	1,9107645E-003
2	1	0	1	1	6,178338710343442E+004	1,9431496E+000	1,9424738E+000	1,015285144267341E+000	2,000000000000000E+000	-2,7942798E-001	40	1,9721647E-003
2	1	0	1	1	6,180337900347167E+004	1,9631416E+000	1,9624467E+000	1,021577232365657E+000	2,000000000000000E+000	-2,5903779E-001	40	2,0047908E-003
2	1	0	1	1	6,182337080350891E+004	1,9831334E+000	1,9824532E+000	1,012430458721221E+000	2,000000000000000E+000	-2,3867814E-001	40	2,0070961E-003
2	1	0	1	1	6,184336280354613E+004	2,0031252E+000	2,0025082E+000	9,881251831139242E-001	2,000000000000000E+000	-2,1865450E-001	40	1,9787287E-003
2	1	0	1	1	6,186335450358334E+004	2,0231171E+000	2,0224349E+000	9,499577796009788E-001	2,000000000000000E+000	-1,9925831E-001	40	1,9212278E-003
2	1	0	1	1	6,188334630362061E+004	2,0431087E+000	2,0424473E+000	9,007650470964848E-001	2,000000000000000E+000	-1,8073745E-001	40	1,8397651E-003
2	1	0	1	1	6,190333830365795E+004	2,0631008E+000	2,0624468E+000	8,416241711417847E-001	2,000000000000000E+000	-1,6330400E-001	40	1,7358051E-003
2	1	0	1	1	6,192333000369510E+004	2,0830925E+000	2,0824621E+000	7,748831812386143E-001	2,000000000000000E+000	-1,4713362E-001	40	1,6136648E-003
2	1	0	1	1	6,194332190373237E+004	2,1030846E+000	2,1024475E+000	7,035337401874706E-001	2,000000000000000E+000	-1,3235036E-001	40	1,4791428E-003
2	1	0	1	1	6,196331380376953E+004	2,1230762E+000	2,1224589E+000	6,305358624166733E-001	2,000000000000000E+000	-1,1901220E-001	40	1,3382864E-003
2	1	0	1	1	6,198330580380675E+004	2,1430681E+000	2,1424742E+000	5,590513977778822E-001	2,000000000000000E+000	-1,0712313E-001	40	1,1977531E-003
2	1	0	1	1	6,200329760384402E+004	2,1630599E+000	2,1624625E+000	4,921469793275479E-001	2,000000000000000E+000	-9,6623778E-002	40	1,0642494E-003
2	1	0	1	1	6,202328960388125E+004	2,1830518E+000	2,1824615E+000	4,318840089553904E-001	2,000000000000000E+000	-8,7397940E-002	40	9,4257022E-004
2	1	0	1	1	6,204328140391849E+004	2,2030437E+000	2,2024536E+000	3,788452276075223E-001	2,000000000000000E+000	-7,9304628E-002	40	8,3438907E-004
2	1	0	1	1	6,206327310395573E+004	2,2230353E+000	2,2224400E+000	3,327673179328992E-001	2,000000000000000E+000	-7,2202340E-002	40	7,3955540E-004
2	1	0	1	1	6,208326510399295E+004	2,2430272E+000	2,2424235E+000	2,934579667836452E-001	2,000000000000000E+000	-6,5951087E-002	40	6,5805705E-004
2	1	0	1	1	6,210325690403016E+004	2,2630191E+000	2,2624474E+000	2,598201558617954E-001	2,000000000000000E+000	-6,0427547E-002	40	5,8782945E-004
2	1	0	1	1	6,212324860406748E+004	2,2830107E+000	2,2824311E+000	2,310316998524854E-001	2,000000000000000E+000	-5,5527654E-002	40	5,2731397E-004
2	1	0	1	1	6,214324060410471E+004	2,3030028E+000	2,3024561E+000	2,063814567622414E-001	2,000000000000000E+000	-5,1159725E-002	40	4,7518426E-004
2	1	0	1	1	6,216323240414192E+004	2,3229949E+000	2,3224401E+000	1,855359454339087E-001	2,000000000000000E+000	-4,7246512E-002	40	4,3089612E-004
2	1	0	1	1	6,218322440417903E+004	2,3429863E+000	2,3424680E+000	1,675248364070336E-001	2,000000000000000E+000	-4,3720987E-002	40	3,9242159E-004
2	1	0	1	1	6,220321640421636E+004	2,3629785E+000	2,3624432E+000	1,522924049290779E-001	2,000000000000000E+000	-4,0526930E-002	40	3,5978216E-004
2	1	0	1	1	6,222320820425358E+004	2,3829703E+000	2,3824427E+000	1,394486719457120E-001	2,000000000000000E+000	-3,7612706E-002	40	3,3222846E-004
2	1	0	1	1	6,224320000429085E+004	2,4029620E+000	2,4024329E+000	1,284537633261018E-001	2,000000000000000E+000	-3,4935672E-002	40	3,0860156E-004
2	1	0	1	1	6,226319190432807E+004	2,4229538E+000	2,4224341E+000	1,189502813675865E-001	2,000000000000000E+000	-3,2462668E-002	40	2,8814923E-004
2	1	0	1	1	6,228318370436531E+004	2,4429457E+000	2,4424267E+000	1,107782881975486E-001	2,000000000000000E+000	-3,0166224E-002	40	2,7056783E-004
2	1	0	1	1	6,230317550440252E+004	2,4629374E+000	2,4624133E+000	1,036879992130979E-001	2,000000000000000E+000	-2,8022418E-002	40	2,5532270E-004
2	1	0	1	1	6,232316750443980E+004	2,4829295E+000	2,4823968E+000	9,743058123712589E-002	2,000000000000000E+000	-2,6011625E-002	40	2,4186137E-004
2	1	0	1	1	6,234315920447704E+004	2,5029211E+000	2,5024009E+000	9,198361288910162E-002	2,000000000000000E+000	-2,4116956E-002	40	2,3017987E-004
2	1	0	1	1	6,236315110451425E+004	2,5229132E+000	2,5223699E+000	8,708358518722528E-002	2,000000000000000E+000	-2,2326106E-002	40	2,1965701E-004
2	1	0	1	1	6,238314310455159E+004	2,5429051E+000	2,5423815E+000	8,272261980351853E-002	2,000000000000000E+000	-2,0627053E-002	40	2,1031246E-004
2	1	0	1	1	6,240313500458875E+004	2,5628967E+000	2,5623763E+000	7,895942434266656E-002	2,000000000000000E+000	-1,9009674E-002	40	2,0232376E-004
2	1	0	1	1	6,242312680462608E+004	2,5828886E+000	2,5823629E+000	7,557147026944505E-002	2,000000000000000E+000	-1,7463870E-002	40	1,9515296E-004
2	1	0	1	1	6,244311880466319E+004	2,6028807E+000	2,6023672E+000	7,265403941720194E-002	2,000000000000000E+000	-1,5980709E-002	40	1,8907248E-004
2	1	0	1	1	6,246311050470045E+004	2,6228721E+000	2,6223814E+000	7,008348070205628E-002	2,000000000000000E+000	-1,4552279E-002	40	1,8378563E-004
2	1	0	1	1	6,248310230473772E+004	2,6428640E+000	2,6423230E+000	6,781406131555168E-002	2,000000000000000E+000	-1,3172247E-002	40	1,7918665E-004
2	1	0	1	1	6,250309430477495E+004	2,6628559E+000	2,6623261E+000	6,572804617079486E-002	2,000000000000000E+000	-1,1835537E-002	40	1,7498949E-004
2	1	0	1	1	6,252308600481224E+004	2,6828477E+000	2,6823318E+000	6,379553083427558E-002	2,000000000000000E+000	-1,0539055E-002	40	1,7112079E-004
2	1	0	1	0	6,254177870484698E+004	2,6984413E+000	2,6979413E+000	5,657260296841460E-002	2,000000000000000E+000	-9,3661593E-003	40	1,5262957E-004
2	1	0	1	0	6,256177050488431E+004	2,6784496E+000	2,6779206E+000	4,263833163822663E-002	2,000000000000000E+000	-8,4072528E-003	41	1,1418207E-004
2	1	0	1	0	6,258176230492152E+004	2,6584578E+000	2,6579263E+000	3,529938256658416E-002	2,000000000000000E+000	-7,6348470E-003	41	9,3823161E-005
2	1	0	1	0	6,260175420495876E+004	2,6384659E+000	2,6379144E+000	2,981750459500361E-002	2,000000000000000E+000	-6,9885347E-003	41	7,8656027E-005
2	1	0	1	0	6,262174600499598E+004	2,6184742E+000	2,6179574E+000	2,547878351512300E-002	2,000000000000000E+000	-6,4392756E-003	41	6,6702371E-005
2	1	0	1	0	6,264173790503322E+004	2,5984824E+000	2,5979326E+000	2,194499135450501E-002	2,000000000000000E+000	-5,9685060E-003	41	5,7011606E-005
2	1	0	1	0	6,266172980507044E+004	2,5784903E+000	2,5779591E+000	1,895188135649475E-002	2,000000000000000E+000	-5,5628391E-003	41	4,8857175E-005
2	1	0	1	0	6,268172160510765E+004	2,5584984E+000	2,5579591E+000	1,640295213247051E-002	2,000000000000000E+000	-5,2122716E-003	41	4,1958079E-005
2	1	0	1	0	6,270171350514493E+004	2,5385067E+000	2,5379744E+000	1,415617349864107E-002	2,000000000000000E+000	-4,9093529E-003	41	3,5928006E-005
2	1	0	1	0	6,271240900516487E+004	2,5277619E+000	2,5272264E+000	1,284775013104078E-002	2,000000000000000E+000	-4,7648409E-003	41	3,2469175E-005