File: Dati/201009/CV_CNTmultiwalled_1_4_12layer_03_CV_C03.mpt
EC-Lab ASCII FILE
Nb header lines : 57

Cyclic Voltammetry

Run on channel : 3 (SN 6807)
User :
Electrode connection : standard
Ewe ctrl range : min = -5,00 V, max = 5,00 V
Ewe,I filtering : 50 kHz
Safety Limits :
	Do not start on E overload
Channel : Grounded
Acquisition started on : 10/09/2020 18:33:11
Saved on :
	File : CV_CNTmultiwalled_1_4_12layer_03_CV_C03.mpr
	Directory : C:\Users\labsuperfici\Desktop\Biologic\Users\Prisca Viviani\201009\
	Host : 10.78.33.0
Device : VSP-300 (SN 0638)
Address : USB
EC-Lab for windows v11.31 (software)
Internet server v11.30 (firmware)
Command interpretor v11.31 (firmware)
Electrode material :
Initial state :
Electrolyte :
Comments :
Cable : standard
Reference electrode : SCE Saturated Calomel Electrode (0,241 V)
Electrode surface area : 0,001 cm²
Characteristic mass : 0,001 g
Equivalent Weight : 0,000 g/eq.
Density : 0,000 g/cm3
Cycle Definition : Charge/Discharge alternance
Ei (V)              0,000
vs.                 Eoc
dE/dt               1,000
dE/dt unit          mV/s
E1 (V)              2,800
vs.                 Ref
Step percent        50
N                   10
E range min (V)     -5,000
E range max (V)     5,000
I Range             Auto
I Range min         Unset
I Range max         Unset
I Range init        Unset
Bandwidth           8
E2 (V)              4,300
vs.                 Ref
nc cycles           2
Reverse Scan        1
Ef (V)              0,000
vs.                 Eoc

mode	ox/red	error	control changes	counter inc.	time/s	control/V	Ewe/V	<I>/mA	cycle number	(Q-Qo)/C	I Range	P/W
2	0	0	1	0	6,328523500623176E+004	2,7795434E+000	2,7793686E+000	-1,468453258275986E-001	1,000000000000000E+000	0,0000000E+000	40	-4,0813730E-004
2	0	0	1	0	6,330672750627180E+004	2,8010342E+000	2,8008242E+000	-1,259593511160049E-001	1,000000000000000E+000	-2,8676083E-003	40	-3,5279000E-004
2	0	0	1	0	6,333271730632021E+004	2,8270237E+000	2,8268137E+000	-1,116322006269901E-001	1,000000000000000E+000	-5,9481715E-003	40	-3,1556343E-004
2	0	0	1	0	6,335870680636863E+004	2,8530133E+000	2,8528311E+000	-9,926817163969126E-002	1,000000000000000E+000	-8,6814538E-003	40	-2,8319532E-004
2	0	0	1	0	6,338469630641700E+004	2,8790028E+000	2,8787990E+000	-8,875894531265477E-002	1,000000000000000E+000	-1,1122277E-002	40	-2,5551915E-004
2	0	0	1	0	6,341068600646558E+004	2,9049921E+000	2,9048254E+000	-7,934705786113361E-002	1,000000000000000E+000	-1,3303498E-002	40	-2,3048936E-004
2	0	0	1	0	6,343667570651387E+004	2,9309821E+000	2,9308128E+000	-7,105175274068642E-002	1,000000000000000E+000	-1,5253177E-002	40	-2,0823939E-004
2	0	0	1	0	6,346266520656226E+004	2,9569716E+000	2,9567523E+000	-6,316837536291464E-002	1,000000000000000E+000	-1,6993472E-002	40	-1,8677324E-004
2	0	0	1	0	6,348865500661067E+004	2,9829609E+000	2,9827828E+000	-5,647757533999609E-002	1,000000000000000E+000	-1,8546259E-002	40	-1,6846035E-004
2	0	0	1	0	6,351464470665908E+004	3,0089509E+000	3,0087681E+000	-5,007102915040740E-002	1,000000000000000E+000	-1,9925196E-002	40	-1,5065211E-004
2	0	0	1	0	6,354063410670753E+004	3,0349402E+000	3,0347855E+000	-4,417148981982370E-002	1,000000000000000E+000	-2,1146417E-002	41	-1,3405099E-004
2	0	0	1	0	6,356662370675593E+004	3,0609300E+000	3,0608010E+000	-3,889024439571265E-002	1,000000000000000E+000	-2,2221591E-002	41	-1,1903530E-004
2	0	0	1	0	6,359261350680434E+004	3,0869195E+000	3,0868063E+000	-3,372492208821765E-002	1,000000000000000E+000	-2,3161177E-002	41	-1,0410230E-004
2	0	0	1	0	6,361860300685279E+004	3,1129091E+000	3,1127887E+000	-2,908227882440317E-002	1,000000000000000E+000	-2,3975000E-002	41	-9,0526992E-005
2	0	0	1	0	6,364459250690113E+004	3,1388986E+000	3,1387367E+000	-2,475096275260063E-002	1,000000000000000E+000	-2,4672417E-002	41	-7,7686753E-005
2	0	0	1	0	6,367058220694953E+004	3,1648884E+000	3,1647794E+000	-2,063403476295639E-002	1,000000000000000E+000	-2,5259791E-002	41	-6,5302171E-005
2	0	0	1	0	6,369657200699812E+004	3,1908777E+000	3,1907301E+000	-1,673765293445915E-002	1,000000000000000E+000	-2,5743317E-002	41	-5,3405332E-005
2	0	0	1	0	6,372256150704646E+004	3,2168674E+000	3,2167268E+000	-1,300467719446340E-002	1,000000000000000E+000	-2,6127607E-002	41	-4,1832493E-005
2	0	0	1	0	6,374855120709480E+004	3,2428575E+000	3,2427380E+000	-9,416179964833404E-003	1,000000000000000E+000	-2,6417021E-002	41	-3,0534204E-005
2	0	0	1	0	6,377454080714332E+004	3,2688470E+000	3,2687268E+000	-5,831181051047331E-003	1,000000000000000E+000	-2,6613139E-002	41	-1,9060539E-005
2	0	0	1	0	6,380053030719172E+004	3,2948368E+000	3,2947209E+000	-2,260845979829604E-003	1,000000000000000E+000	-2,6716206E-002	42	-7,4488566E-006
2	1	0	1	0	6,382651990724000E+004	3,3208258E+000	3,3207011E+000	1,415242201048217E-003	1,000000000000000E+000	-2,6725540E-002	42	4,6995965E-006
2	1	0	1	0	6,385250970728858E+004	3,3468158E+000	3,3466232E+000	5,274452072124527E-003	1,000000000000000E+000	-2,6637301E-002	42	1,7651604E-005
2	1	0	1	0	6,387849920733686E+004	3,3728049E+000	3,3725879E+000	9,484452844147284E-003	1,000000000000000E+000	-2,6444379E-002	42	3,1987151E-005
2	1	0	1	0	6,390448890738527E+004	3,3987949E+000	3,3986712E+000	1,417188671233688E-002	1,000000000000000E+000	-2,6135938E-002	41	4,8165584E-005
2	1	0	1	0	6,393047850743379E+004	3,4247842E+000	3,4246500E+000	1,965043209837003E-002	1,000000000000000E+000	-2,5696347E-002	41	6,7295849E-005
2	1	0	1	0	6,395646820748207E+004	3,4507740E+000	3,4506354E+000	2,614034578321472E-002	1,000000000000000E+000	-2,5102435E-002	41	9,0200803E-005
2	1	0	1	0	6,398245770753047E+004	3,4767635E+000	3,4766269E+000	3,428438631273362E-002	1,000000000000000E+000	-2,4318617E-002	41	1,1919402E-004
2	1	0	1	0	6,400844740757893E+004	3,5027530E+000	3,5025785E+000	4,516467915364464E-002	1,000000000000000E+000	-2,3290571E-002	41	1,5819284E-004
2	1	0	1	0	6,403443700762733E+004	3,5287428E+000	3,5285583E+000	5,943675081596311E-002	1,000000000000000E+000	-2,1936662E-002	41	2,0972604E-004
2	1	0	1	0	6,406042650767579E+004	3,5547321E+000	3,5545454E+000	7,662889561627106E-002	1,000000000000000E+000	-2,0169230E-002	41	2,7238089E-004
2	1	0	1	0	6,408641630772420E+004	3,5807221E+000	3,5804996E+000	9,470909450276999E-002	1,000000000000000E+000	-1,7941572E-002	41	3,3910587E-004
2	1	0	1	0	6,411240600777252E+004	3,6067116E+000	3,6065848E+000	1,135852121545237E-001	1,000000000000000E+000	-1,5233879E-002	40	4,0965469E-004
2	1	0	1	0	6,413839550782111E+004	3,6327016E+000	3,6325877E+000	1,328472236486795E-001	1,000000000000000E+000	-1,2028552E-002	40	4,8257920E-004
2	1	0	1	0	6,416438510786940E+004	3,6586907E+000	3,6585433E+000	1,524036001212812E-001	1,000000000000000E+000	-8,3092274E-003	40	5,5757520E-004
2	1	0	1	0	6,419037470791771E+004	3,6846800E+000	3,6845508E+000	1,696468028394760E-001	1,000000000000000E+000	-4,1237697E-003	40	6,2507228E-004
2	1	0	1	0	6,421636430796608E+004	3,7106700E+000	3,7105646E+000	1,859537999969487E-001	1,000000000000000E+000	4,9860391E-004	40	6,8999361E-004
2	1	0	1	0	6,424235390801460E+004	3,7366595E+000	3,7364969E+000	2,011095833765029E-001	1,000000000000000E+000	5,5270428E-003	40	7,5144536E-004
2	1	0	1	0	6,426834360806295E+004	3,7626493E+000	3,7624860E+000	2,133435536393309E-001	1,000000000000000E+000	1,0916395E-002	40	8,0270215E-004
2	1	0	1	0	6,429433330811141E+004	3,7886388E+000	3,7884841E+000	2,244537653520164E-001	1,000000000000000E+000	1,6622057E-002	40	8,5033954E-004
2	1	0	1	0	6,432032290815981E+004	3,8146284E+000	3,8144727E+000	2,339871900245418E-001	1,000000000000000E+000	2,2586461E-002	40	8,9253776E-004
2	1	0	1	0	6,434631250820821E+004	3,8406174E+000	3,8404593E+000	2,406132225606612E-001	1,000000000000000E+000	2,8758978E-002	40	9,2406530E-004
2	1	0	1	0	6,437230220825667E+004	3,8666077E+000	3,8664963E+000	2,453454822120955E-001	1,000000000000000E+000	3,5087023E-002	40	9,4862742E-004
2	1	0	1	0	6,439829170830501E+004	3,8925972E+000	3,8924568E+000	2,477646695466751E-001	1,000000000000000E+000	4,1502282E-002	40	9,6441328E-004
2	1	0	1	0	6,442428130835341E+004	3,9185870E+000	3,9184439E+000	2,476736420999210E-001	1,000000000000000E+000	4,7944050E-002	40	9,7049528E-004
2	1	0	1	0	6,445027090840181E+004	3,9445763E+000	3,9444606E+000	2,446851061517306E-001	1,000000000000000E+000	5,4354154E-002	40	9,6515077E-004
2	1	0	1	0	6,447626050845033E+004	3,9705660E+000	3,9704337E+000	2,407767758408175E-001	1,000000000000000E+000	6,0672734E-002	40	9,5598825E-004
2	1	0	1	0	6,450225030849862E+004	3,9965558E+000	3,9964118E+000	2,354400693236922E-001	1,000000000000000E+000	6,6864893E-002	40	9,4091549E-004
2	1	0	1	0	6,452824010854703E+004	4,0225449E+000	4,0224247E+000	2,285907093001218E-001	1,000000000000000E+000	7,2897837E-002	40	9,1948890E-004
2	1	0	1	0	6,455422970859549E+004	4,0485344E+000	4,0483942E+000	2,209602308927614E-001	1,000000000000000E+000	7,8738980E-002	40	8,9453411E-004
2	1	0	1	0	6,458021920864389E+004	4,0745244E+000	4,0743742E+000	2,125470500213211E-001	1,000000000000000E+000	8,4378213E-002	40	8,6599623E-004
2	1	0	1	0	6,460620870869234E+004	4,1005135E+000	4,1004167E+000	2,044738090499370E-001	1,000000000000000E+000	8,9802451E-002	40	8,3842780E-004
2	1	0	1	0	6,463219850874075E+004	4,1265035E+000	4,1264014E+000	1,959065262413389E-001	1,000000000000000E+000	9,5009893E-002	40	8,0838898E-004
2	1	0	1	0	6,465818800878915E+004	4,1524925E+000	4,1523623E+000	1,873967677682433E-001	1,000000000000000E+000	9,9996917E-002	40	7,7813928E-004
2	1	0	1	0	6,468417780883762E+004	4,1784830E+000	4,1783838E+000	1,793292212618312E-001	1,000000000000000E+000	1,0476259E-001	40	7,4930635E-004
2	1	0	1	0	6,471016770888594E+004	4,2044721E+000	4,2043104E+000	1,713518998661692E-001	1,000000000000000E+000	1,0931825E-001	40	7,2041660E-004
2	1	0	1	0	6,473615730893426E+004	4,2304616E+000	4,2302785E+000	1,633346254352661E-001	1,000000000000000E+000	1,1366779E-001	40	6,9095095E-004
2	1	0	1	0	6,476214680898283E+004	4,2564516E+000	4,2562256E+000	1,560589592030874E-001	1,000000000000000E+000	1,1781884E-001	40	6,6422211E-004
2	1	0	1	0	6,478813630903119E+004	4,2824407E+000	4,2822580E+000	1,484797615579898E-001	1,000000000000000E+000	1,2177718E-001	40	6,3582865E-004
2	1	0	1	1	6,481072780907340E+004	4,2948360E+000	4,2946110E+000	1,327813453889195E-001	2,000000000000000E+000	1,2503892E-001	40	5,7024421E-004
2	1	0	1	1	6,483671730912174E+004	4,2688460E+000	4,2686491E+000	1,092146199061187E-001	2,000000000000000E+000	1,2814128E-001	40	4,6619889E-004
2	1	0	1	1	6,486270680917005E+004	4,2428570E+000	4,2426734E+000	9,317700688716024E-002	2,000000000000000E+000	1,3075931E-001	40	3,9531960E-004
2	1	0	1	1	6,488869640921848E+004	4,2168674E+000	4,2166734E+000	8,051884449540014E-002	2,000000000000000E+000	1,3300940E-001	40	3,3952168E-004
2	1	0	1	1	6,491468620926701E+004	4,1908770E+000	4,1907234E+000	6,978698200838607E-002	2,000000000000000E+000	1,3495642E-001	40	2,9245793E-004
2	1	0	1	1	6,494067560931528E+004	4,1648879E+000	4,1647034E+000	6,051856340809370E-002	2,000000000000000E+000	1,3664562E-001	40	2,5204188E-004
2	1	0	1	1	6,496666520936368E+004	4,1388984E+000	4,1386948E+000	5,285133848098572E-002	2,000000000000000E+000	1,3811357E-001	40	2,1873556E-004
2	1	0	1	1	6,499265500941209E+004	4,1129084E+000	4,1126838E+000	4,596443069689424E-002	2,000000000000000E+000	1,3939038E-001	41	1,8903716E-004
2	1	0	1	1	6,501864450946049E+004	4,0869188E+000	4,0866628E+000	3,990885970757770E-002	2,000000000000000E+000	1,4050211E-001	41	1,6309405E-004
2	1	0	1	1	6,504463400950888E+004	4,0609298E+000	4,0606699E+000	3,461819210773204E-002	2,000000000000000E+000	1,4146619E-001	41	1,4057304E-004
2	1	0	1	1	6,507062360955740E+004	4,0349402E+000	4,0347047E+000	2,996039165189929E-002	2,000000000000000E+000	1,4230120E-001	41	1,2088133E-004
2	1	0	1	1	6,509661340960575E+004	4,0089502E+000	4,0086942E+000	2,585573913399844E-002	2,000000000000000E+000	1,4302304E-001	41	1,0364775E-004
2	1	0	1	1	6,512260300965421E+004	3,9829609E+000	3,9827101E+000	2,229239176375142E-002	2,000000000000000E+000	1,4364488E-001	41	8,8784138E-005
2	1	0	1	1	6,514859260970249E+004	3,9569716E+000	3,9567361E+000	1,910397685443543E-002	2,000000000000000E+000	1,4417903E-001	41	7,5589393E-005
2	1	0	1	1	6,517458220975095E+004	3,9309819E+000	3,9307773E+000	1,626113031747167E-002	2,000000000000000E+000	1,4463530E-001	41	6,3918880E-005
2	1	0	1	1	6,520057170979935E+004	3,9049926E+000	3,9047577E+000	1,378030966802431E-002	2,000000000000000E+000	1,4502245E-001	41	5,3808770E-005
2	1	0	1	1	6,522656130984786E+004	3,8790028E+000	3,8787763E+000	1,153922272086780E-002	2,000000000000000E+000	1,4534874E-001	41	4,4758064E-005
2	1	0	1	1	6,525255090989621E+004	3,8530128E+000	3,8527937E+000	9,556881274696727E-003	2,000000000000000E+000	1,4562027E-001	41	3,6820693E-005
2	1	0	1	1	6,527854050994455E+004	3,8270233E+000	3,8268044E+000	7,796662842366445E-003	2,000000000000000E+000	1,4584285E-001	41	2,9836303E-005
2	1	0	1	1	6,530453010999307E+004	3,8010340E+000	3,8008120E+000	6,142282166699597E-003	2,000000000000000E+000	1,4602129E-001	41	2,3345659E-005
2	1	0	1	1	6,533051971004141E+004	3,7750440E+000	3,7747743E+000	4,645388061013209E-003	2,000000000000000E+000	1,4615914E-001	42	1,7535291E-005
2	1	0	1	1	6,535650931008998E+004	3,7490549E+000	3,7487667E+000	3,258131757236264E-003	2,000000000000000E+000	1,4625932E-001	42	1,2213975E-005
2	1	0	1	1	6,538249891013827E+004	3,7230651E+000	3,7228189E+000	1,941788383484033E-003	2,000000000000000E+000	1,4632475E-001	42	7,2289263E-006
2	1	0	1	1	6,540848851018667E+004	3,6970751E+000	3,6968424E+000	6,793727472860036E-004	2,000000000000000E+000	1,4635667E-001	42	2,5115339E-006
2	0	0	1	1	6,543447811023518E+004	3,6710858E+000	3,6708789E+000	-5,475505302009898E-004	2,000000000000000E+000	1,4635606E-001	43	-2,0099917E-006
2	0	0	1	1	6,546046771028347E+004	3,6450963E+000	3,6448658E+000	-1,835766089536631E-003	2,000000000000000E+000	1,4632249E-001	42	-6,6911211E-006
2	0	0	1	1	6,548645721033186E+004	3,6191068E+000	3,6189215E+000	-3,167047055785473E-003	2,000000000000000E+000	1,4625551E-001	42	-1,1461295E-005
2	0	0	1	1	6,551244691038039E+004	3,5931165E+000	3,5929189E+000	-4,593677120142831E-003	2,000000000000000E+000	1,4615254E-001	42	-1,6504709E-005
2	0	0	1	1	6,553843650985160E+004	3,5671270E+000	3,5669606E+000	-6,206428217225404E-003	2,000000000000000E+000	1,4601026E-001	42	-2,2138085E-005
2	0	0	1	1	6,556442590366281E+004	3,5411375E+000	3,5410137E+000	-8,024295749046367E-003	2,000000000000000E+000	1,4582349E-001	42	-2,8414141E-005
2	0	0	1	1	6,559041559755499E+004	3,5151482E+000	3,5149369E+000	-1,020748790340104E-002	2,000000000000000E+000	1,4558549E-001	41	-3,5878675E-005
2	0	0	1	1	6,561640529136884E+004	3,4891579E+000	3,4889407E+000	-1,266826916986519E-002	2,000000000000000E+000	1,4528723E-001	41	-4,4198841E-005
2	0	0	1	1	6,564239478525775E+004	3,4631686E+000	3,4629579E+000	-1,574035690121026E-002	2,000000000000000E+000	1,4491704E-001	41	-5,4508193E-005
2	0	0	1	1	6,566838447907532E+004	3,4371793E+000	3,4369760E+000	-1,951034535172488E-002	2,000000000000000E+000	1,4445877E-001	41	-6,7056586E-005
2	0	0	1	1	6,569437407296069E+004	3,4111888E+000	3,4109938E+000	-2,440216021258185E-002	2,000000000000000E+000	1,4388868E-001	41	-8,3235616E-005
2	0	0	1	1	6,572036366678169E+004	3,3851995E+000	3,3850148E+000	-3,093687903210030E-002	2,000000000000000E+000	1,4317118E-001	41	-1,0472180E-004
2	0	0	1	1	6,574635306066449E+004	3,3592100E+000	3,3590140E+000	-4,023054304923424E-002	2,000000000000000E+000	1,4225094E-001	41	-1,3513496E-004
2	0	0	1	1	6,577234265448852E+004	3,3332210E+000	3,3330419E+000	-5,382070862785593E-002	2,000000000000000E+000	1,4103329E-001	41	-1,7938668E-004
2	0	0	1	1	6,579833234836767E+004	3,3072309E+000	3,3070977E+000	-7,003909639340522E-002	2,000000000000000E+000	1,3942361E-001	41	-2,3162614E-004
2	0	0	1	1	6,582432184219547E+004	3,2812417E+000	3,2811048E+000	-8,701369556360428E-002	2,000000000000000E+000	1,3737869E-001	41	-2,8550107E-004
2	0	0	1	1	6,585031153607083E+004	3,2552521E+000	3,2550433E+000	-1,036442378053247E-001	2,000000000000000E+000	1,3489500E-001	40	-3,3736648E-004
2	0	0	1	1	6,587630112990132E+004	3,2292626E+000	3,2290323E+000	-1,198126266643671E-001	2,000000000000000E+000	1,3198569E-001	40	-3,8687885E-004
2	0	0	1	1	6,590229062377417E+004	3,2032728E+000	3,2030723E+000	-1,345950644822391E-001	2,000000000000000E+000	1,2867670E-001	40	-4,3111772E-004
2	0	0	1	1	6,592828021760739E+004	3,1772833E+000	3,1770833E+000	-1,471484964041845E-001	2,000000000000000E+000	1,2501435E-001	40	-4,6750304E-004
2	0	0	1	1	6,595426991147734E+004	3,1512938E+000	3,1510973E+000	-1,591551780178351E-001	2,000000000000000E+000	1,2102825E-001	40	-5,0151342E-004
2	0	0	1	1	6,598025940531422E+004	3,1253037E+000	3,1251059E+000	-1,694674631338228E-001	2,000000000000000E+000	1,1675873E-001	40	-5,2960374E-004
2	0	0	1	1	6,600624899918004E+004	3,0993140E+000	3,0991275E+000	-1,778244625023713E-001	2,000000000000000E+000	1,1224030E-001	40	-5,5110070E-004
2	0	0	1	1	6,603223859302024E+004	3,0733249E+000	3,0731175E+000	-1,862848100453553E-001	2,000000000000000E+000	1,0749796E-001	40	-5,7247508E-004
2	0	0	1	1	6,605822818688350E+004	3,0473351E+000	3,0471141E+000	-1,927582683473785E-001	2,000000000000000E+000	1,0256382E-001	40	-5,8735645E-004
2	0	0	1	1	6,608421778072673E+004	3,0213451E+000	3,0211475E+000	-1,989939783613965E-001	2,000000000000000E+000	9,7463064E-002	40	-6,0119014E-004
2	0	0	1	1	6,611020737458672E+004	2,9953563E+000	2,9951363E+000	-2,035080594660421E-001	2,000000000000000E+000	9,2224121E-002	40	-6,0953439E-004
2	0	0	1	1	6,613619696843333E+004	2,9693661E+000	2,9691391E+000	-2,078646026673967E-001	2,000000000000000E+000	8,6872265E-002	40	-6,1717891E-004
2	0	0	1	1	6,616218646228930E+004	2,9433770E+000	2,9431610E+000	-2,119251662811548E-001	2,000000000000000E+000	8,1410460E-002	40	-6,2372989E-004
2	0	0	1	1	6,618817615613923E+004	2,9173875E+000	2,9171901E+000	-2,148266244603652E-001	2,000000000000000E+000	7,5867556E-002	40	-6,2669010E-004
2	0	0	1	1	6,621416574999259E+004	2,8913972E+000	2,8911958E+000	-2,170656507298294E-001	2,000000000000000E+000	7,0253365E-002	40	-6,2757928E-004
2	0	0	1	1	6,624015534384537E+004	2,8654077E+000	2,8651774E+000	-2,182764984334251E-001	2,000000000000000E+000	6,4594284E-002	40	-6,2540086E-004
2	0	0	1	1	6,626614483769587E+004	2,8394184E+000	2,8391984E+000	-2,197490773038229E-001	2,000000000000000E+000	5,8898348E-002	40	-6,2391121E-004
2	0	0	1	1	6,629213443155249E+004	2,8134291E+000	2,8132060E+000	-2,205040163967522E-001	2,000000000000000E+000	5,3174693E-002	40	-6,2032323E-004
2	0	0	1	1	6,631472652619676E+004	2,8090303E+000	2,8088052E+000	-2,080547143038709E-001	2,000000000000000E+000	4,8250854E-002	40	-5,8438518E-004
2	0	0	1	1	6,634071632006881E+004	2,8350203E+000	2,8347967E+000	-1,833053162826470E-001	2,000000000000000E+000	4,3172900E-002	40	-5,1963329E-004
2	0	0	1	1	6,636670581390010E+004	2,8610096E+000	2,8607991E+000	-1,628118861671539E-001	2,000000000000000E+000	3,8687263E-002	40	-4,6577209E-004
2	0	0	1	1	6,639269530777540E+004	2,8869989E+000	2,8867795E+000	-1,442015434456421E-001	2,000000000000000E+000	3,4705743E-002	40	-4,1627805E-004
2	0	0	1	1	6,641868500160286E+004	2,9129889E+000	2,9127996E+000	-1,287205532293033E-001	2,000000000000000E+000	3,1160943E-002	40	-3,7493717E-004
2	0	0	1	1	6,644467469548155E+004	2,9389784E+000	2,9387569E+000	-1,147333782228421E-001	2,000000000000000E+000	2,8001811E-002	40	-3,3717352E-004
2	0	0	1	1	6,647066418930556E+004	2,9649682E+000	2,9647038E+000	-1,024795956180871E-001	2,000000000000000E+000	2,5186803E-002	40	-3,0382164E-004
2	0	0	1	1	6,649665378318727E+004	2,9909580E+000	2,9907172E+000	-9,111257291588259E-002	2,000000000000000E+000	2,2675304E-002	40	-2,7249195E-004
2	0	0	1	1	6,652264347700914E+004	3,0169470E+000	3,0167120E+000	-8,110369122708205E-002	2,000000000000000E+000	2,0441897E-002	40	-2,4466647E-004
2	0	0	1	1	6,654863307089405E+004	3,0429370E+000	3,0426700E+000	-7,195790414868219E-002	2,000000000000000E+000	1,8455913E-002	40	-2,1894416E-004
2	0	0	1	1	6,657462246471224E+004	3,0689261E+000	3,0686936E+000	-6,371250760901133E-002	2,000000000000000E+000	1,6696155E-002	40	-1,9551416E-004
2	0	0	1	1	6,660061225860100E+004	3,0949161E+000	3,0947213E+000	-5,605172052928448E-002	2,000000000000000E+000	1,5143101E-002	40	-1,7346446E-004
2	0	0	1	1	6,662660185241560E+004	3,1209059E+000	3,1206865E+000	-4,902883130566016E-002	2,000000000000000E+000	1,3780957E-002	40	-1,5300361E-004
2	0	0	1	1	6,665259134630719E+004	3,1468952E+000	3,1467023E+000	-4,236895417471143E-002	2,000000000000000E+000	1,2597487E-002	41	-1,3332248E-004
2	0	0	1	1	6,667858094011946E+004	3,1728849E+000	3,1727054E+000	-3,627328458538381E-002	2,000000000000000E+000	1,1577496E-002	41	-1,1508445E-004
2	0	0	1	1	6,670457083401427E+004	3,1988745E+000	3,1986833E+000	-3,058316563959799E-002	2,000000000000000E+000	1,0711598E-002	41	-9,7825861E-005
2	0	0	1	1	6,673056032782211E+004	3,2248642E+000	3,2246509E+000	-2,506944403770039E-002	2,000000000000000E+000	9,9917362E-003	41	-8,0840204E-005
2	0	0	1	1	6,675654992171982E+004	3,2508535E+000	3,2506723E+000	-1,983063659699971E-002	2,000000000000000E+000	9,4104297E-003	41	-6,4462904E-005
2	0	0	1	1	6,678253961552627E+004	3,2768435E+000	3,2766385E+000	-1,473663416981766E-002	2,000000000000000E+000	8,9634433E-003	41	-4,8286623E-005
2	0	0	1	1	6,680852910942421E+004	3,3028331E+000	3,3026288E+000	-9,645473699470802E-003	2,000000000000000E+000	8,6489171E-003	41	-3,1855419E-005
2	0	0	1	1	6,683451880323095E+004	3,3288229E+000	3,3286622E+000	-4,472282444990996E-003	2,000000000000000E+000	8,4671816E-003	42	-1,4886718E-005
2	1	0	1	1	6,686070819708169E+004	3,3550115E+000	3,3547730E+000	9,014561429121926E-004	2,000000000000000E+000	8,4214900E-003	43	3,0241808E-006
2	1	0	1	1	6,688669799088873E+004	3,3810017E+000	3,3807142E+000	6,600110976485912E-003	2,000000000000000E+000	8,5199056E-003	42	2,2313088E-005
2	1	0	1	1	6,691268768478493E+004	3,4069912E+000	3,4067826E+000	1,288631696116782E-002	2,000000000000000E+000	8,7735755E-003	41	4,3900880E-005
2	1	0	1	1	6,693867717859522E+004	3,4329805E+000	3,4327254E+000	1,996086803978486E-002	2,000000000000000E+000	9,2005488E-003	41	6,8520181E-005
2	1	0	1	1	6,696466687248880E+004	3,4589708E+000	3,4587049E+000	2,848478867835180E-002	2,000000000000000E+000	9,8291039E-003	41	9,8520482E-005
2	1	0	1	1	6,699065646630211E+004	3,4849596E+000	3,4847314E+000	3,881994737962013E-002	2,000000000000000E+000	1,0699933E-002	41	1,3527709E-004
2	1	0	1	1	6,701664596019173E+004	3,5109491E+000	3,5106730E+000	5,182525459185511E-002	2,000000000000000E+000	1,1874697E-002	41	1,8194152E-004
2	1	0	1	1	6,704263555400819E+004	3,5369389E+000	3,5366521E+000	6,800577592476476E-002	2,000000000000000E+000	1,3430651E-002	41	2,4051277E-004
2	1	0	1	1	6,706862514789467E+004	3,5629289E+000	3,5626488E+000	8,592321344552145E-002	2,000000000000000E+000	1,5430242E-002	41	3,0611423E-004
2	1	0	1	1	6,709461494171410E+004	3,5889182E+000	3,5886903E+000	1,051529629674388E-001	2,000000000000000E+000	1,7912384E-002	40	3,7736143E-004
2	1	0	1	1	6,712060453559784E+004	3,6149077E+000	3,6146779E+000	1,244975081016722E-001	2,000000000000000E+000	2,0898828E-002	40	4,5001839E-004
2	1	0	1	1	6,714659412942053E+004	3,6408980E+000	3,6406679E+000	1,435185190129709E-001	2,000000000000000E+000	2,4389749E-002	40	5,2250328E-004
2	1	0	1	1	6,717258372330060E+004	3,6668870E+000	3,6666405E+000	1,616876888310206E-001	2,000000000000000E+000	2,8363958E-002	40	5,9285061E-004
2	1	0	1	1	6,719857331712684E+004	3,6928766E+000	3,6926684E+000	1,793000950606398E-001	2,000000000000000E+000	3,2804657E-002	40	6,6209579E-004
2	1	0	1	1	6,722456301100360E+004	3,7188666E+000	3,7186892E+000	1,943200358500041E-001	2,000000000000000E+000	3,7665952E-002	40	7,2261580E-004
2	1	0	1	1	6,725055260483292E+004	3,7448561E+000	3,7446337E+000	2,079670658499664E-001	2,000000000000000E+000	4,2901788E-002	40	7,7876047E-004
2	1	0	1	1	6,727654209870705E+004	3,7708452E+000	3,7706251E+000	2,190520021105991E-001	2,000000000000000E+000	4,8460606E-002	40	8,2596298E-004
2	1	0	1	1	6,730253179253993E+004	3,7968352E+000	3,7966261E+000	2,277391682879149E-001	2,000000000000000E+000	5,4272328E-002	40	8,6464046E-004
2	1	0	1	1	6,732852148640994E+004	3,8228250E+000	3,8225904E+000	2,333899576658439E-001	2,000000000000000E+000	6,0271751E-002	40	8,9215417E-004
2	1	0	1	1	6,735451108024595E+004	3,8488140E+000	3,8485811E+000	2,370171322023742E-001	2,000000000000000E+000	6,6399306E-002	40	9,1217965E-004
2	1	0	1	1	6,738050067411317E+004	3,8748038E+000	3,8745749E+000	2,378300188426916E-001	2,000000000000000E+000	7,2571792E-002	40	9,2149019E-004
2	1	0	1	1	6,740649026795174E+004	3,9007938E+000	3,9005563E+000	2,354731120095214E-001	2,000000000000000E+000	7,8732967E-002	40	9,1847614E-004
2	1	0	1	1	6,743247986181639E+004	3,9267831E+000	3,9265745E+000	2,307192299713030E-001	2,000000000000000E+000	8,4800236E-002	40	9,0593623E-004
2	1	0	1	1	6,745846945565910E+004	3,9527726E+000	3,9525437E+000	2,239478850975647E-001	2,000000000000000E+000	9,0715453E-002	40	8,8516378E-004
2	1	0	1	1	6,748445914951968E+004	3,9787626E+000	3,9785466E+000	2,150927625122510E-001	2,000000000000000E+000	9,6434854E-002	40	8,5575657E-004
2	1	0	1	1	6,751044894336537E+004	4,0047522E+000	4,0045290E+000	2,057997815067631E-001	2,000000000000000E+000	1,0191163E-001	40	8,2413119E-004
2	1	0	1	1	6,753643853722326E+004	4,0307417E+000	4,0305691E+000	1,955392390068948E-001	2,000000000000000E+000	1,0713100E-001	40	7,8813441E-004
2	1	0	1	1	6,756242813107185E+004	4,0567312E+000	4,0564809E+000	1,852815697356749E-001	2,000000000000000E+000	1,1207936E-001	40	7,5159117E-004
2	1	0	1	1	6,758841782492679E+004	4,0827208E+000	4,0825095E+000	1,745714455455789E-001	2,000000000000000E+000	1,1675440E-001	40	7,1268959E-004
2	1	0	1	1	6,761440731877845E+004	4,1087103E+000	4,1085553E+000	1,640143553627095E-001	2,000000000000000E+000	1,2114955E-001	40	6,7386206E-004
2	1	0	1	1	6,764039691262913E+004	4,1346998E+000	4,1345210E+000	1,536134891915366E-001	2,000000000000000E+000	1,2527815E-001	40	6,3511822E-004
2	1	0	1	1	6,766638640648453E+004	4,1606894E+000	4,1605110E+000	1,435103219229785E-001	2,000000000000000E+000	1,2914339E-001	40	5,9707626E-004
2	1	0	1	1	6,769237630033190E+004	4,1866798E+000	4,1865163E+000	1,336775448151404E-001	2,000000000000000E+000	1,3274948E-001	40	5,5964320E-004
2	1	0	1	1	6,771836589418980E+004	4,2126689E+000	4,2124667E+000	1,244777089737035E-001	2,000000000000000E+000	1,3610525E-001	40	5,2435818E-004
2	1	0	1	1	6,774435558803496E+004	4,2386584E+000	4,2384601E+000	1,159365076928216E-001	2,000000000000000E+000	1,3922569E-001	40	4,9139227E-004
2	1	0	1	1	6,777034518189693E+004	4,2646480E+000	4,2644739E+000	1,078718292357965E-001	2,000000000000000E+000	1,4212838E-001	40	4,6001660E-004
2	1	0	1	1	6,779633467573801E+004	4,2906380E+000	4,2904425E+000	1,009425530650274E-001	2,000000000000000E+000	1,4483872E-001	40	4,3308822E-004
2	1	0	1	0	6,781872577046097E+004	4,2868390E+000	4,2866602E+000	7,898719327936021E-002	3,000000000000000E+000	1,4690106E-001	40	3,3859126E-004
2	1	0	1	0	6,784471546428581E+004	4,2608500E+000	4,2606993E+000	6,218671868285741E-002	3,000000000000000E+000	1,4871182E-001	40	2,6495892E-004
2	1	0	1	0	6,787070505816792E+004	4,2348604E+000	4,2347074E+000	5,085190554502539E-002	3,000000000000000E+000	1,5017161E-001	40	2,1534294E-004
2	1	0	1	0	6,789669485198913E+004	4,2088704E+000	4,2086644E+000	4,241235498239576E-002	3,000000000000000E+000	1,5137710E-001	41	1,7849937E-004
2	1	0	1	0	6,792268434587377E+004	4,1828804E+000	4,1827126E+000	3,549912465492400E-002	3,000000000000000E+000	1,5238418E-001	41	1,4848264E-004
2	1	0	1	0	6,794867383969226E+004	4,1568913E+000	4,1566939E+000	2,987462725714657E-002	3,000000000000000E+000	1,5322882E-001	41	1,2417969E-004
2	1	0	1	0	6,797466343357984E+004	4,1309013E+000	4,1307187E+000	2,520208347140007E-002	3,000000000000000E+000	1,5394041E-001	41	1,0410272E-004
2	1	0	1	0	6,800065292739542E+004	4,1049118E+000	4,1047306E+000	2,123701036864335E-002	3,000000000000000E+000	1,5453993E-001	41	8,7172208E-005
2	1	0	1	0	6,802664262128691E+004	4,0789223E+000	4,0787134E+000	1,782176342522873E-002	3,000000000000000E+000	1,5504447E-001	41	7,2689865E-005
2	1	0	1	0	6,805263221509883E+004	4,0529332E+000	4,0527048E+000	1,482279982457958E-002	3,000000000000000E+000	1,5546532E-001	41	6,0072431E-005
2	1	0	1	0	6,807862200899329E+004	4,0269427E+000	4,0267525E+000	1,223816391376129E-002	3,000000000000000E+000	1,5581380E-001	41	4,9280057E-005
2	1	0	1	0	6,810461160280230E+004	4,0009537E+000	4,0007544E+000	9,953648330749465E-003	3,000000000000000E+000	1,5609881E-001	41	3,9822102E-005
2	1	0	1	0	6,813060109669957E+004	3,9749639E+000	3,9747782E+000	7,977951191283569E-003	3,000000000000000E+000	1,5632898E-001	41	3,1710588E-005
2	1	0	1	0	6,815659069050616E+004	3,9489748E+000	3,9487762E+000	6,242212273818756E-003	3,000000000000000E+000	1,5651067E-001	41	2,4649100E-005
2	1	0	1	0	6,818258028440480E+004	3,9229846E+000	3,9227514E+000	4,701359025431298E-003	3,000000000000000E+000	1,5665027E-001	42	1,8442262E-005
2	1	0	1	0	6,820856987821122E+004	3,8969948E+000	3,8967726E+000	3,381927310611776E-003	3,000000000000000E+000	1,5675250E-001	42	1,3178602E-005
2	1	0	1	0	6,823455947210919E+004	3,8710053E+000	3,8707917E+000	2,169113391131201E-003	3,000000000000000E+000	1,5682212E-001	42	8,3961859E-006
2	1	0	1	0	6,826054906591657E+004	3,8450162E+000	3,8448069E+000	1,088609732671390E-003	3,000000000000000E+000	1,5686198E-001	42	4,1854942E-006
2	1	0	1	0	6,828653865981175E+004	3,8190262E+000	3,8187995E+000	1,167005194363487E-004	3,000000000000000E+000	1,5687534E-001	43	4,4565587E-007
2	0	0	1	0	6,831252825362212E+004	3,7930365E+000	3,7928557E+000	-8,317576029469205E-004	3,000000000000000E+000	1,5686472E-001	43	-3,1547365E-006
2	0	0	1	0	6,833851774751511E+004	3,7670474E+000	3,7668607E+000	-1,620771270936586E-003	3,000000000000000E+000	1,5683098E-001	42	-6,1052197E-006
2	0	0	1	0	6,836450744132863E+004	3,7410569E+000	3,7408707E+000	-2,399424840776987E-003	3,000000000000000E+000	1,5677632E-001	42	-8,9759378E-006
2	0	0	1	0	6,839049693521811E+004	3,7150679E+000	3,7149210E+000	-3,180110870637798E-003	3,000000000000000E+000	1,5670159E-001	42	-1,1813861E-005
2	0	0	1	0	6,841648662903556E+004	3,6890783E+000	3,6889136E+000	-3,980130942835277E-003	3,000000000000000E+000	1,5660618E-001	42	-1,4682360E-005
2	0	0	1	0	6,844247622292154E+004	3,6630888E+000	3,6629276E+000	-4,803854886207312E-003	3,000000000000000E+000	1,5649007E-001	42	-1,7596172E-005
2	0	0	1	0	6,846846581674181E+004	3,6370988E+000	3,6369755E+000	-5,679303027032373E-003	3,000000000000000E+000	1,5635176E-001	42	-2,0655487E-005
2	0	0	1	0	6,849445531062526E+004	3,6111097E+000	3,6109729E+000	-6,688405685165100E-003	3,000000000000000E+000	1,5618908E-001	42	-2,4151652E-005
2	0	0	1	0	6,852044490444820E+004	3,5851200E+000	3,5849867E+000	-7,833074728375168E-003	3,000000000000000E+000	1,5599860E-001	42	-2,8081469E-005
2	0	0	1	0	6,854643449832778E+004	3,5591302E+000	3,5590568E+000	-9,168702609551382E-003	3,000000000000000E+000	1,5577577E-001	42	-3,2631931E-005
2	0	0	1	0	6,857242399215489E+004	3,5331407E+000	3,5329416E+000	-1,079555138583978E-002	3,000000000000000E+000	1,5551394E-001	41	-3,8140053E-005
2	0	0	1	0	6,859841368603081E+004	3,5071511E+000	3,5069551E+000	-1,274767099114266E-002	3,000000000000000E+000	1,5520653E-001	41	-4,4705510E-005
2	0	0	1	0	6,862440337986057E+004	3,4811614E+000	3,4809785E+000	-1,508620847897161E-002	3,000000000000000E+000	1,5484376E-001	41	-5,2514766E-005
2	0	0	1	0	6,865039277373441E+004	3,4551716E+000	3,4549305E+000	-1,805200171406285E-002	3,000000000000000E+000	1,5441215E-001	41	-6,2368410E-005
2	0	0	1	0	6,867638246756725E+004	3,4291825E+000	3,4289806E+000	-2,177485620179485E-002	3,000000000000000E+000	1,5389453E-001	41	-7,4665557E-005
2	0	0	1	0	6,870237216143729E+004	3,4031925E+000	3,4030294E+000	-2,669075275521154E-002	3,000000000000000E+000	1,5326492E-001	41	-9,0829417E-005
2	0	0	1	0	6,872836155527411E+004	3,3772027E+000	3,3770113E+000	-3,346929336081070E-002	3,000000000000000E+000	1,5248519E-001	41	-1,1302618E-004
2	0	0	1	0	6,875435114914065E+004	3,3512135E+000	3,3510237E+000	-4,358564729260692E-002	3,000000000000000E+000	1,5149127E-001	41	-1,4605654E-004
2	0	0	1	0	6,878034074298013E+004	3,3252239E+000	3,3250842E+000	-5,751239439680667E-002	3,000000000000000E+000	1,5018150E-001	41	-1,9123356E-004
2	0	0	1	0	6,880633033684385E+004	3,2992344E+000	3,2990730E+000	-7,374534486951667E-002	3,000000000000000E+000	1,4847329E-001	41	-2,4329127E-004
2	0	0	1	0	6,883231993068618E+004	3,2732446E+000	3,2731013E+000	-9,051549763576361E-002	3,000000000000000E+000	1,4633487E-001	41	-2,9626640E-004
2	0	0	1	0	6,885830952454638E+004	3,2472553E+000	3,2470372E+000	-1,064661916734717E-001	3,000000000000000E+000	1,4377044E-001	40	-3,4569969E-004
2	0	0	1	0	6,888429921839270E+004	3,2212656E+000	3,2210553E+000	-1,220692286863718E-001	3,000000000000000E+000	1,4078970E-001	40	-3,9319173E-004
2	0	0	1	0	6,891028871224975E+004	3,1952758E+000	3,1950545E+000	-1,363366079304942E-001	3,000000000000000E+000	1,3742323E-001	40	-4,3560291E-004
2	0	0	1	0	6,893627830609889E+004	3,1692863E+000	3,1690960E+000	-1,487654347551968E-001	3,000000000000000E+000	1,3371277E-001	40	-4,7145193E-004
2	0	0	1	0	6,896226789995329E+004	3,1432965E+000	3,1430864E+000	-1,602944232760626E-001	3,000000000000000E+000	1,2969427E-001	40	-5,0381920E-004
2	0	0	1	0	6,898825749380552E+004	3,1173069E+000	3,1170938E+000	-1,698833634368691E-001	3,000000000000000E+000	1,2540518E-001	40	-5,2954239E-004
2	0	0	1	0	6,901424698765622E+004	3,0913177E+000	3,0911288E+000	-1,784944407370301E-001	3,000000000000000E+000	1,2088814E-001	40	-5,5174931E-004
2	0	0	1	0	6,904023668151279E+004	3,0653284E+000	3,0651121E+000	-1,855946609212948E-001	3,000000000000000E+000	1,1614884E-001	40	-5,6886842E-004
2	0	0	1	0	6,906622627535995E+004	3,0393381E+000	3,0391176E+000	-1,922460264569748E-001	3,000000000000000E+000	1,1123004E-001	40	-5,8425829E-004
2	0	0	1	0	6,909221586921858E+004	3,0133488E+000	3,0131466E+000	-1,976849159768688E-001	3,000000000000000E+000	1,0615826E-001	40	-5,9565366E-004
2	0	0	1	0	6,911820546306297E+004	2,9873593E+000	2,9871204E+000	-2,022907094651543E-001	3,000000000000000E+000	1,0095371E-001	40	-6,0426671E-004
2	0	0	1	0	6,914419505692477E+004	2,9613693E+000	2,9611430E+000	-2,064170021644189E-001	3,000000000000000E+000	9,5635220E-002	40	-6,1123027E-004
2	0	0	1	0	6,917018455076544E+004	2,9353800E+000	2,9351628E+000	-2,098809536150976E-001	3,000000000000000E+000	9,0222634E-002	40	-6,1603478E-004
2	0	0	1	0	6,919617414463125E+004	2,9093904E+000	2,9091811E+000	-2,124106068307823E-001	3,000000000000000E+000	8,4734365E-002	40	-6,1794091E-004
2	0	0	1	0	6,922216383846902E+004	2,8834004E+000	2,8831725E+000	-2,146019936737295E-001	3,000000000000000E+000	7,9179116E-002	40	-6,1873457E-004
2	0	0	1	0	6,924815343233733E+004	2,8574109E+000	2,8571968E+000	-2,159694898256830E-001	3,000000000000000E+000	7,3579699E-002	40	-6,1706733E-004
2	0	0	1	0	6,927414282617229E+004	2,8314214E+000	2,8312004E+000	-2,177841950678159E-001	3,000000000000000E+000	6,7940064E-002	40	-6,1659067E-004
2	0	0	1	0	6,930013252004373E+004	2,8054318E+000	2,8051829E+000	-2,183645559861511E-001	3,000000000000000E+000	6,2266778E-002	40	-6,1255251E-004
2	0	0	1	0	6,932272481467237E+004	2,8170273E+000	2,8168170E+000	-1,984373712647587E-001	3,000000000000000E+000	5,7517350E-002	40	-5,5896176E-004
2	0	0	1	0	6,934871440856066E+004	2,8430169E+000	2,8427811E+000	-1,756359148881517E-001	3,000000000000000E+000	5,2666262E-002	40	-4,9929443E-004
2	0	0	1	0	6,937470400237606E+004	2,8690064E+000	2,8687923E+000	-1,555101312887430E-001	3,000000000000000E+000	4,8371337E-002	40	-4,4612627E-004
2	0	0	1	0	6,940069349626638E+004	2,8949962E+000	2,8947999E+000	-1,386297074917022E-001	3,000000000000000E+000	4,4552218E-002	40	-4,0130527E-004
2	0	0	1	0	6,942668309007911E+004	2,9209857E+000	2,9207659E+000	-1,234839942852078E-001	3,000000000000000E+000	4,1148972E-002	40	-3,6066785E-004
2	0	0	1	0	6,945267278397316E+004	2,9469750E+000	2,9467435E+000	-1,104292020924149E-001	3,000000000000000E+000	3,8114320E-002	40	-3,2540652E-004
2	0	0	1	0	6,947866227778210E+004	2,9729650E+000	2,9727416E+000	-9,841701077894216E-002	3,000000000000000E+000	3,5407413E-002	40	-2,9256835E-004
2	0	0	1	0	6,950465197167965E+004	2,9989543E+000	2,9987075E+000	-8,778562341798990E-002	3,000000000000000E+000	3,2992151E-002	40	-2,6324342E-004
2	0	0	1	0	6,953064156548615E+004	3,0249441E+000	3,0246913E+000	-7,825061294057845E-002	3,000000000000000E+000	3,0842695E-002	40	-2,3668395E-004
2	0	0	1	0	6,955663115938415E+004	3,0509336E+000	3,0507183E+000	-6,930213517850914E-002	3,000000000000000E+000	2,8932160E-002	40	-2,1142130E-004
2	0	0	1	0	6,958262075319095E+004	3,0769231E+000	3,0766964E+000	-6,095340870663206E-002	3,000000000000000E+000	2,7242217E-002	40	-1,8753513E-004
2	0	0	1	0	6,960861034708953E+004	3,1029129E+000	3,1026957E+000	-5,377453043067248E-002	3,000000000000000E+000	2,5753051E-002	40	-1,6684600E-004
2	0	0	1	0	6,963459994089627E+004	3,1289022E+000	3,1287618E+000	-4,686994053060373E-002	3,000000000000000E+000	2,4450211E-002	41	-1,4664487E-004
2	0	0	1	0	6,966058943479275E+004	3,1548920E+000	3,1547277E+000	-4,052478631684187E-002	3,000000000000000E+000	2,3317464E-002	41	-1,2784467E-004
2	0	0	1	0	6,968657922860282E+004	3,1808817E+000	3,1807034E+000	-3,456770226804606E-002	3,000000000000000E+000	2,2344328E-002	41	-1,0994961E-004
2	0	0	1	0	6,971256892249512E+004	3,2068710E+000	3,2066600E+000	-2,902103436771092E-002	3,000000000000000E+000	2,1521296E-002	41	-9,3060589E-005
2	0	0	1	0	6,973855841630884E+004	3,2328608E+000	3,2326632E+000	-2,356890004653331E-002	3,000000000000000E+000	2,0841323E-002	41	-7,6190314E-005
2	0	0	1	0	6,976454811019846E+004	3,2588508E+000	3,2586377E+000	-1,837526736562745E-002	3,000000000000000E+000	2,0298688E-002	41	-5,9878337E-005
2	0	0	1	0	6,979053770401469E+004	3,2848401E+000	3,2846467E+000	-1,323077914209077E-002	3,000000000000000E+000	1,9890646E-002	41	-4,3458436E-005
2	0	0	1	0	6,981652729790192E+004	3,3108296E+000	3,3106148E+000	-8,131655073531432E-003	3,000000000000000E+000	1,9614629E-002	41	-2,6920778E-005
2	0	0	1	0	6,984251689172164E+004	3,3368194E+000	3,3366072E+000	-2,942493530561106E-003	3,000000000000000E+000	1,9472800E-002	42	-9,8179453E-006
2	1	0	1	0	6,986870628555864E+004	3,3630083E+000	3,3627775E+000	2,556136800472501E-003	3,000000000000000E+000	1,9469047E-002	42	8,5957190E-006
2	1	0	1	0	6,989469617938093E+004	3,3889985E+000	3,3886909E+000	8,391498620407934E-003	3,000000000000000E+000	1,9612197E-002	42	2,8436196E-005
2	1	0	1	0	6,992068577326147E+004	3,4149880E+000	3,4147773E+000	1,494377886937492E-002	3,000000000000000E+000	1,9916564E-002	41	5,1029678E-005
2	1	0	1	0	6,994667526708730E+004	3,4409776E+000	3,4407451E+000	2,244470040548510E-002	3,000000000000000E+000	2,0401742E-002	41	7,7226490E-005
2	1	0	1	0	6,997266496096476E+004	3,4669673E+000	3,4667103E+000	3,134575042567178E-002	3,000000000000000E+000	2,1099413E-002	41	1,0866664E-004
2	1	0	1	0	6,999865465479286E+004	3,4929569E+000	3,4926686E+000	4,244194574591525E-002	3,000000000000000E+000	2,2055248E-002	41	1,4823565E-004
2	1	0	1	0	7,002464404866751E+004	3,5189457E+000	3,5186653E+000	5,627686404570320E-002	3,000000000000000E+000	2,3333112E-002	41	1,9801945E-004
2	1	0	1	0	7,005063364249934E+004	3,5449357E+000	3,5446379E+000	7,307762735385287E-002	3,000000000000000E+000	2,5012596E-002	41	2,5903372E-004
2	1	0	1	0	7,007662333636987E+004	3,5709255E+000	3,5706098E+000	9,159922193812253E-002	3,000000000000000E+000	2,7147934E-002	41	3,2706509E-004
2	1	0	1	0	7,010261303020548E+004	3,5969150E+000	3,5966818E+000	1,107829392439241E-001	3,000000000000000E+000	2,9778194E-002	40	3,9845100E-004
2	1	0	1	0	7,012860262407351E+004	3,6229048E+000	3,6226537E+000	1,301954079268924E-001	3,000000000000000E+000	3,2910526E-002	40	4,7165289E-004
2	1	0	1	0	7,015459221791162E+004	3,6488948E+000	3,6486447E+000	1,493497245272453E-001	3,000000000000000E+000	3,6549050E-002	40	5,4492406E-004
2	1	0	1	0	7,018058191177668E+004	3,6748838E+000	3,6746743E+000	1,671303263420252E-001	3,000000000000000E+000	4,0669773E-002	40	6,1414950E-004
2	1	0	1	0	7,020657140561868E+004	3,7008731E+000	3,7006612E+000	1,839612457443385E-001	3,000000000000000E+000	4,5239329E-002	40	6,8077823E-004
2	1	0	1	0	7,023256109947991E+004	3,7268634E+000	3,7266545E+000	1,991549834056947E-001	3,000000000000000E+000	5,0219864E-002	40	7,4218184E-004
2	1	0	1	0	7,025855079332530E+004	3,7528524E+000	3,7526166E+000	2,118564162476240E-001	3,000000000000000E+000	5,5566620E-002	40	7,9501589E-004
2	1	0	1	0	7,028454028718360E+004	3,7788427E+000	3,7785993E+000	2,225520917278674E-001	3,000000000000000E+000	6,1221033E-002	40	8,4093516E-004
2	1	0	1	0	7,031052998103132E+004	3,8048317E+000	3,8045995E+000	2,306294905708386E-001	3,000000000000000E+000	6,7121625E-002	40	8,7745284E-004
2	1	0	1	0	7,033651957488642E+004	3,8308215E+000	3,8306046E+000	2,355520829972302E-001	3,000000000000000E+000	7,3188037E-002	40	9,0230687E-004
2	1	0	1	0	7,036250916873780E+004	3,8568108E+000	3,8565373E+000	2,379366645864902E-001	3,000000000000000E+000	7,9353303E-002	40	9,1761164E-004
2	1	0	1	0	7,038849876258953E+004	3,8828006E+000	3,8825383E+000	2,371529484139214E-001	3,000000000000000E+000	8,5533246E-002	40	9,2075538E-004
2	1	0	1	0	7,041448835644429E+004	3,9087906E+000	3,9085522E+000	2,340266090642000E-001	3,000000000000000E+000	9,1661490E-002	40	9,1470522E-004
2	1	0	1	0	7,044047805029305E+004	3,9347801E+000	3,9345229E+000	2,283683924807258E-001	3,000000000000000E+000	9,7679555E-002	40	8,9852064E-004
2	1	0	1	0	7,046646754415042E+004	3,9607694E+000	3,9605088E+000	2,206125611021870E-001	3,000000000000000E+000	1,0351662E-001	40	8,7373797E-004
2	1	0	1	0	7,049245733799576E+004	3,9867592E+000	3,9865282E+000	2,116126192020205E-001	3,000000000000000E+000	1,0913876E-001	40	8,4359967E-004
2	1	0	1	0	7,051844713185716E+004	4,0127487E+000	4,0125189E+000	2,011414342827020E-001	3,000000000000000E+000	1,1450705E-001	40	8,0708379E-004
2	1	0	1	0	7,054443662569870E+004	4,0387387E+000	4,0385189E+000	1,910008501329831E-001	3,000000000000000E+000	1,1960354E-001	40	7,7136053E-004
2	1	0	1	0	7,057042621956300E+004	4,0647278E+000	4,0645099E+000	1,800954019588785E-001	3,000000000000000E+000	1,2442291E-001	40	7,3199952E-004
2	1	0	1	0	7,059641571340209E+004	4,0907173E+000	4,0905089E+000	1,688990840404996E-001	3,000000000000000E+000	1,2896195E-001	40	6,9088320E-004
2	1	0	1	0	7,062240540726908E+004	4,1167073E+000	4,1164923E+000	1,583436866223101E-001	3,000000000000000E+000	1,3321832E-001	40	6,5182056E-004
2	1	0	1	0	7,064839500110480E+004	4,1426969E+000	4,1424913E+000	1,480132829867111E-001	3,000000000000000E+000	1,3719715E-001	40	6,1314373E-004
2	1	0	1	0	7,067438479497540E+004	4,1686864E+000	4,1684756E+000	1,374779776416362E-001	3,000000000000000E+000	1,4090765E-001	40	5,7307357E-004
2	1	0	1	0	7,070037438880780E+004	4,1946759E+000	4,1944895E+000	1,276045035547515E-001	3,000000000000000E+000	1,4435361E-001	40	5,3523574E-004
2	1	0	1	0	7,072636398268212E+004	4,2206655E+000	4,2204685E+000	1,179739001973124E-001	3,000000000000000E+000	1,4754473E-001	40	4,9790513E-004
2	1	0	1	0	7,075235347651166E+004	4,2466555E+000	4,2464538E+000	1,092718661629364E-001	3,000000000000000E+000	1,5049742E-001	40	4,6401794E-004
2	1	0	1	0	7,077834317038878E+004	4,2726450E+000	4,2724581E+000	1,014677699672428E-001	3,000000000000000E+000	1,5323524E-001	40	4,3351681E-004
2	1	0	1	0	7,080433276421460E+004	4,2986345E+000	4,2984581E+000	9,494418183288755E-002	3,000000000000000E+000	1,5578735E-001	40	4,0811358E-004
2	1	0	1	1	7,082672405895288E+004	4,2788424E+000	4,2786579E+000	6,891874983205951E-002	3,000000000000000E+000	1,5756457E-001	40	2,9487975E-004
2	1	0	1	1	7,085271355276275E+004	4,2528524E+000	4,2526536E+000	5,487724962774443E-002	3,000000000000000E+000	1,5915716E-001	40	2,3337394E-004
2	1	0	1	1	7,087870314665954E+004	4,2268629E+000	4,2266321E+000	4,491075498798759E-002	3,000000000000000E+000	1,6044509E-001	41	1,8982124E-004
2	1	0	1	1	7,090469264046568E+004	4,2008739E+000	4,2006655E+000	3,723975767583887E-002	3,000000000000000E+000	1,6150650E-001	41	1,5643176E-004
2	1	0	1	1	7,093068233436439E+004	4,1748838E+000	4,1746740E+000	3,109773733831944E-002	3,000000000000000E+000	1,6238908E-001	41	1,2982292E-004
2	1	0	1	1	7,095667192817060E+004	4,1488943E+000	4,1487026E+000	2,603527232046149E-002	3,000000000000000E+000	1,6312656E-001	41	1,0801260E-004
2	1	0	1	1	7,098266152206901E+004	4,1229048E+000	4,1227303E+000	2,175557473288753E-002	3,000000000000000E+000	1,6374367E-001	41	8,9692367E-005
2	1	0	1	1	7,100865121587599E+004	4,0969148E+000	4,0967283E+000	1,810129598788357E-002	3,000000000000000E+000	1,6425785E-001	41	7,4156094E-005
2	1	0	1	1	7,103464070977242E+004	4,0709257E+000	4,0707359E+000	1,494894221751886E-002	3,000000000000000E+000	1,6468358E-001	41	6,0853195E-005
2	1	0	1	1	7,106063030358218E+004	4,0449357E+000	4,0447383E+000	1,215200311600038E-002	3,000000000000000E+000	1,6503254E-001	41	4,9151673E-005
2	1	0	1	1	7,108661979747540E+004	4,0189462E+000	4,0187626E+000	9,771185473212318E-003	3,000000000000000E+000	1,6531444E-001	41	3,9268074E-005
2	1	0	1	1	7,111260969128861E+004	3,9929566E+000	3,9927659E+000	7,660018179285688E-003	3,000000000000000E+000	1,6553786E-001	41	3,0584659E-005
2	1	0	1	1	7,113859918517829E+004	3,9669669E+000	3,9667797E+000	5,847567473688781E-003	3,000000000000000E+000	1,6571055E-001	41	2,3196011E-005
2	1	0	1	1	7,116458877899544E+004	3,9409776E+000	3,9407520E+000	4,252324695615220E-003	3,000000000000000E+000	1,6583863E-001	42	1,6757358E-005
2	1	0	1	1	7,119057837288198E+004	3,9149878E+000	3,9147491E+000	2,876785272764124E-003	3,000000000000000E+000	1,6592866E-001	42	1,1261893E-005
2	1	0	1	1	7,121656796670123E+004	3,8889980E+000	3,8887720E+000	1,649948705956406E-003	3,000000000000000E+000	1,6598502E-001	42	6,4162746E-006
2	1	0	1	1	7,124255746058514E+004	3,8630087E+000	3,8627794E+000	5,741519425625542E-004	3,000000000000000E+000	1,6601174E-001	42	2,2178224E-006
2	0	0	1	1	7,126854705440748E+004	3,8370192E+000	3,8368425E+000	-3,707629153075205E-004	3,000000000000000E+000	1,6601220E-001	43	-1,4225590E-006
2	0	0	1	1	7,129453674828797E+004	3,8110292E+000	3,8108416E+000	-1,257482723135219E-003	3,000000000000000E+000	1,6598882E-001	42	-4,7920676E-006
2	0	0	1	1	7,132052634211443E+004	3,7850397E+000	3,7848434E+000	-2,032371696289762E-003	3,000000000000000E+000	1,6594358E-001	42	-7,6922088E-006
2	0	0	1	1	7,134651583599171E+004	3,7590504E+000	3,7588718E+000	-2,825316084491238E-003	3,000000000000000E+000	1,6587825E-001	42	-1,0620001E-005
2	0	0	1	1	7,137250552982092E+004	3,7330606E+000	3,7328870E+000	-3,521832242576094E-003	3,000000000000000E+000	1,6579375E-001	42	-1,3146602E-005
2	0	0	1	1	7,139849502369529E+004	3,7070711E+000	3,7068996E+000	-4,242695755972914E-003	3,000000000000000E+000	1,6569087E-001	42	-1,5727248E-005
2	0	0	1	1	7,142448461752769E+004	3,6810815E+000	3,6809366E+000	-4,994024746187403E-003	3,000000000000000E+000	1,6556884E-001	42	-1,8382689E-005
2	0	0	1	1	7,145047431139811E+004	3,6550918E+000	3,6549280E+000	-5,764547540126438E-003	3,000000000000000E+000	1,6542719E-001	42	-2,1069007E-005
2	0	0	1	1	7,147646380523406E+004	3,6291025E+000	3,6289549E+000	-6,627589297971387E-003	3,000000000000000E+000	1,6526411E-001	42	-2,4051222E-005
2	0	0	1	1	7,150245329910127E+004	3,6031125E+000	3,6029885E+000	-7,602214806045742E-003	3,000000000000000E+000	1,6507733E-001	42	-2,7390692E-005
2	0	0	1	1	7,152844289293978E+004	3,5771232E+000	3,5769827E+000	-8,784967366711256E-003	3,000000000000000E+000	1,6486214E-001	42	-3,1423675E-005
2	0	0	1	1	7,155443248680420E+004	3,5511332E+000	3,5508955E+000	-1,019250463743981E-002	3,000000000000000E+000	1,6461377E-001	41	-3,6192519E-005
2	0	0	1	1	7,158042208064569E+004	3,5251436E+000	3,5249627E+000	-1,186133077562726E-002	3,000000000000000E+000	1,6432559E-001	41	-4,1810748E-005
2	0	0	1	1	7,160641177450656E+004	3,4991546E+000	3,4989474E+000	-1,385394685968798E-002	3,000000000000000E+000	1,6399014E-001	41	-4,8474230E-005
2	0	0	1	1	7,163240136835258E+004	3,4731646E+000	3,4729428E+000	-1,636408975844797E-002	3,000000000000000E+000	1,6359635E-001	41	-5,6831548E-005
2	0	0	1	1	7,165839086221019E+004	3,4471748E+000	3,4469645E+000	-1,950096253280265E-002	3,000000000000000E+000	1,6313010E-001	41	-6,7219124E-005
2	0	0	1	1	7,168438055605860E+004	3,4211853E+000	3,4210043E+000	-2,350707079023295E-002	3,000000000000000E+000	1,6257152E-001	41	-8,0417791E-005
2	0	0	1	1	7,171037024991401E+004	3,3951955E+000	3,3949988E+000	-2,887733211162929E-002	3,000000000000000E+000	1,6189203E-001	41	-9,8038508E-005
2	0	0	1	1	7,173635964376549E+004	3,3692062E+000	3,3690226E+000	-3,638063472295094E-002	3,000000000000000E+000	1,6104598E-001	41	-1,2256719E-004
2	0	0	1	1	7,176234913761658E+004	3,3432169E+000	3,3430221E+000	-4,777157262722814E-002	3,000000000000000E+000	1,5995690E-001	41	-1,5970142E-004
2	0	0	1	1	7,178833883147221E+004	3,3172276E+000	3,3170490E+000	-6,299246969640038E-002	3,000000000000000E+000	1,5852034E-001	41	-2,0894912E-004
2	0	0	1	1	7,181432842531987E+004	3,2912374E+000	3,2911305E+000	-7,917695963547144E-002	3,000000000000000E+000	1,5667100E-001	41	-2,6058170E-004
2	0	0	1	1	7,184031801917800E+004	3,2652478E+000	3,2651429E+000	-9,546927277369538E-002	3,000000000000000E+000	1,5439536E-001	41	-3,1172083E-004
2	0	0	1	1	7,186630761302356E+004	3,2392583E+000	3,2390311E+000	-1,121003345204191E-001	3,000000000000000E+000	1,5169069E-001	40	-3,6309648E-004
2	0	0	1	1	7,189229720688477E+004	3,2132685E+000	3,2130792E+000	-1,268913414620567E-001	3,000000000000000E+000	1,4857861E-001	40	-4,0771192E-004
2	0	0	1	1	7,191828680072632E+004	3,1872792E+000	3,1870754E+000	-1,406993743697755E-001	3,000000000000000E+000	1,4509794E-001	40	-4,4841951E-004
2	0	0	1	1	7,194427639459167E+004	3,1612897E+000	3,1610260E+000	-1,531775236225692E-001	3,000000000000000E+000	1,4127032E-001	40	-4,8419813E-004
2	0	0	1	1	7,197026598842995E+004	3,1352997E+000	3,1351073E+000	-1,638844220256450E-001	3,000000000000000E+000	1,3714425E-001	40	-5,1379524E-004
2	0	0	1	1	7,199625558229769E+004	3,1093099E+000	3,1091070E+000	-1,730346118171089E-001	3,000000000000000E+000	1,3275748E-001	40	-5,3798314E-004
2	0	0	1	1	7,202224507613340E+004	3,0833211E+000	3,0831034E+000	-1,816364335400249E-001	3,000000000000000E+000	1,2814152E-001	40	-5,6000391E-004
2	0	0	1	1	7,204823477000394E+004	3,0573311E+000	3,0571434E+000	-1,885710910083289E-001	3,000000000000000E+000	1,2332695E-001	40	-5,7648885E-004
2	0	0	1	1	7,207422436383553E+004	3,0313413E+000	3,0311177E+000	-1,949463158460381E-001	3,000000000000000E+000	1,1833938E-001	40	-5,9090520E-004
2	0	0	1	1	7,210021385771036E+004	3,0053520E+000	3,0051134E+000	-1,996745839976435E-001	3,000000000000000E+000	1,1320766E-001	40	-6,0004473E-004
2	0	0	1	1	7,212620355153829E+004	2,9793625E+000	2,9791605E+000	-2,046357018667408E-001	3,000000000000000E+000	1,0794752E-001	40	-6,0964259E-004
2	0	0	1	1	7,215219304541568E+004	2,9533725E+000	2,9531868E+000	-2,081222644298952E-001	3,000000000000000E+000	1,0258327E-001	40	-6,1462389E-004
2	0	0	1	1	7,217818253924185E+004	2,9273832E+000	2,9271305E+000	-2,110592920234193E-001	3,000000000000000E+000	9,7127438E-002	40	-6,1779807E-004
2	0	0	1	1	7,220417223312258E+004	2,9013934E+000	2,9012125E+000	-2,141265304926705E-001	3,000000000000000E+000	9,1594286E-002	40	-6,2122656E-004
2	0	0	1	1	7,223016192694474E+004	2,8754039E+000	2,8751986E+000	-2,165675852663540E-001	3,000000000000000E+000	8,6001277E-002	40	-6,2267482E-004
2	0	0	1	1	7,225615142082935E+004	2,8494146E+000	2,8491933E+000	-2,184297589702983E-001	3,000000000000000E+000	8,0352917E-002	40	-6,2234863E-004
2	0	0	1	1	7,228214091464831E+004	2,8234246E+000	2,8232007E+000	-2,195530376829862E-001	3,000000000000000E+000	7,4664630E-002	40	-6,1984226E-004
2	0	0	1	1	7,230813070853567E+004	2,7974353E+000	2,7972383E+000	-2,205587425695792E-001	3,000000000000000E+000	6,8937272E-002	40	-6,1695540E-004
2	0	0	0	1	7,232587940430408E+004	2,7795434E+000	2,7793307E+000	-2,213692602077266E-001	3,000000000000000E+000	6,5012604E-002	40	-6,1525841E-004