File: Dati/201009/CV_CNTmultiwalled_1_4_12layer_04_CV_C03.mpt
EC-Lab ASCII FILE
Nb header lines : 57

Cyclic Voltammetry

Run on channel : 3 (SN 6807)
User :
Electrode connection : standard
Ewe ctrl range : min = -5,00 V, max = 5,00 V
Ewe,I filtering : 50 kHz
Safety Limits :
	Do not start on E overload
Channel : Grounded
Acquisition started on : 10/09/2020 18:33:11
Saved on :
	File : CV_CNTmultiwalled_1_4_12layer_04_CV_C03.mpr
	Directory : C:\Users\labsuperfici\Desktop\Biologic\Users\Prisca Viviani\201009\
	Host : 10.78.33.0
Device : VSP-300 (SN 0638)
Address : USB
EC-Lab for windows v11.31 (software)
Internet server v11.30 (firmware)
Command interpretor v11.31 (firmware)
Electrode material :
Initial state :
Electrolyte :
Comments :
Cable : standard
Reference electrode : SCE Saturated Calomel Electrode (0,241 V)
Electrode surface area : 0,001 cm²
Characteristic mass : 0,001 g
Equivalent Weight : 0,000 g/eq.
Density : 0,000 g/cm3
Cycle Definition : Charge/Discharge alternance
Ei (V)              0,000
vs.                 Eoc
dE/dt               5,000
dE/dt unit          mV/s
E1 (V)              2,800
vs.                 Ref
Step percent        50
N                   10
E range min (V)     -5,000
E range max (V)     5,000
I Range             Auto
I Range min         Unset
I Range max         Unset
I Range init        Unset
Bandwidth           8
E2 (V)              4,300
vs.                 Ref
nc cycles           2
Reverse Scan        1
Ef (V)              0,000
vs.                 Eoc

mode	ox/red	error	control changes	counter inc.	time/s	control/V	Ewe/V	<I>/mA	cycle number	(Q-Qo)/C	I Range	P/W
2	0	0	1	0	7,232609980425204E+004	2,7799432E+000	2,7797923E+000	-2,344700396060944E-001	1,000000000000000E+000	0,0000000E+000	40	-6,5177801E-004
2	0	0	1	0	7,233071860314980E+004	2,8030331E+000	2,8028569E+000	-2,002086113421306E-001	1,000000000000000E+000	-9,7725180E-004	40	-5,6115608E-004
2	0	0	1	0	7,233591650193115E+004	2,8290224E+000	2,8288181E+000	-1,823867626931852E-001	1,000000000000000E+000	-1,9692511E-003	40	-5,1593897E-004
2	0	0	1	0	7,234111440070975E+004	2,8550119E+000	2,8548346E+000	-1,659420440553755E-001	1,000000000000000E+000	-2,8743942E-003	40	-4,7373708E-004
2	0	0	1	0	7,234631229949031E+004	2,8810010E+000	2,8808265E+000	-1,518869836801803E-001	1,000000000000000E+000	-3,6997718E-003	40	-4,3756005E-004
2	0	0	1	0	7,235151029827097E+004	2,9069915E+000	2,9068146E+000	-1,382429034871737E-001	1,000000000000000E+000	-4,4531971E-003	40	-4,0184648E-004
2	0	0	1	0	7,235670819704956E+004	2,9329808E+000	2,9328120E+000	-1,256200623187707E-001	1,000000000000000E+000	-5,1390138E-003	40	-3,6842003E-004
2	0	0	1	0	7,236190609581435E+004	2,9589701E+000	2,9587851E+000	-1,138988248494901E-001	1,000000000000000E+000	-5,7610809E-003	40	-3,3700213E-004
2	0	0	1	0	7,236710409457423E+004	2,9849606E+000	2,9847457E+000	-1,024070509140753E-001	1,000000000000000E+000	-6,3223974E-003	40	-3,0565902E-004
2	0	0	1	0	7,237230189333507E+004	3,0109494E+000	3,0107977E+000	-9,151095523002795E-002	1,000000000000000E+000	-6,8262643E-003	40	-2,7552099E-004
2	0	0	1	0	7,237749989209590E+004	3,0369394E+000	3,0367382E+000	-8,135669592920014E-002	1,000000000000000E+000	-7,2754859E-003	40	-2,4705898E-004
2	0	0	1	0	7,238269779085671E+004	3,0629292E+000	3,0627365E+000	-7,160250139192770E-002	1,000000000000000E+000	-7,6724445E-003	40	-2,1929959E-004
2	0	0	1	0	7,238789568963321E+004	3,0889182E+000	3,0887427E+000	-6,201754817861677E-002	1,000000000000000E+000	-8,0187041E-003	40	-1,9155625E-004
2	0	0	1	0	7,239309368841232E+004	3,1149085E+000	3,1147392E+000	-5,307453270594709E-002	1,000000000000000E+000	-8,3176829E-003	40	-1,6531332E-004
2	0	0	1	0	7,239829148719390E+004	3,1408973E+000	3,1407611E+000	-4,431667685747664E-002	1,000000000000000E+000	-8,5700471E-003	41	-1,3918809E-004
2	0	0	1	0	7,240348948597279E+004	3,1668870E+000	3,1667695E+000	-3,589015113561464E-002	1,000000000000000E+000	-8,7778112E-003	41	-1,1365583E-004
2	0	0	1	0	7,240868738475305E+004	3,1928771E+000	3,1927223E+000	-2,773580623742067E-002	1,000000000000000E+000	-8,9427968E-003	41	-8,8552726E-005
2	0	0	1	0	7,241388528352068E+004	3,2188661E+000	3,2187200E+000	-1,989285614840308E-002	1,000000000000000E+000	-9,0658022E-003	41	-6,4029533E-005
2	0	0	1	0	7,241908328227955E+004	3,2448566E+000	3,2447240E+000	-1,209863132191974E-002	1,000000000000000E+000	-9,1483472E-003	41	-3,9256720E-005
2	0	0	1	0	7,242432108103152E+004	3,2710447E+000	3,2709317E+000	-4,406418277404268E-003	1,000000000000000E+000	-9,1909654E-003	42	-1,4413094E-005
2	1	0	1	0	7,242951907979324E+004	3,2970352E+000	3,2968514E+000	3,106272759585258E-003	1,000000000000000E+000	-9,1937780E-003	42	1,0240919E-005
2	1	0	1	0	7,243471697855217E+004	3,3230247E+000	3,3228929E+000	1,072006095620183E-002	1,000000000000000E+000	-9,1574015E-003	41	3,5621615E-005
2	1	0	1	0	7,243991487732733E+004	3,3490143E+000	3,3488216E+000	1,838962024097726E-002	1,000000000000000E+000	-9,0813097E-003	41	6,1583560E-005
2	1	0	1	0	7,244511287610698E+004	3,3750043E+000	3,3748424E+000	2,623332100272205E-002	1,000000000000000E+000	-8,9648245E-003	41	8,8533321E-005
2	1	0	1	0	7,245031067488610E+004	3,4009931E+000	3,4008222E+000	3,459620220011117E-002	1,000000000000000E+000	-8,8063590E-003	41	1,1765553E-004
2	1	0	1	0	7,245550867366773E+004	3,4269831E+000	3,4268217E+000	4,330871233563505E-002	1,000000000000000E+000	-8,6034872E-003	41	1,4841123E-004
2	1	0	1	0	7,246070657244651E+004	3,4529729E+000	3,4527850E+000	5,279349007666800E-002	1,000000000000000E+000	-8,3536580E-003	41	1,8228457E-004
2	1	0	1	0	7,246590447121684E+004	3,4789624E+000	3,4787810E+000	6,298275972594991E-002	1,000000000000000E+000	-8,0526005E-003	41	2,1910323E-004
2	1	0	1	0	7,247110236997774E+004	3,5049522E+000	3,5047495E+000	7,470807395257467E-002	1,000000000000000E+000	-7,6946565E-003	41	2,6183308E-004
2	1	0	1	0	7,247630026873830E+004	3,5309412E+000	3,5307422E+000	8,790605237391347E-002	1,000000000000000E+000	-7,2721131E-003	41	3,1037361E-004
2	1	0	1	0	7,248149826749903E+004	3,5569315E+000	3,5568278E+000	1,031138350307377E-001	1,000000000000000E+000	-6,7755654E-003	40	3,6675815E-004
2	1	0	1	0	7,248669616625935E+004	3,5829206E+000	3,5828071E+000	1,204291037592820E-001	1,000000000000000E+000	-6,1949622E-003	40	4,3147424E-004
2	1	0	1	0	7,249189406503085E+004	3,6089098E+000	3,6087997E+000	1,397277094199638E-001	1,000000000000000E+000	-5,5188248E-003	40	5,0424930E-004
2	1	0	1	0	7,249709206380951E+004	3,6349006E+000	3,6347773E+000	1,606652638771022E-001	1,000000000000000E+000	-4,7380994E-003	40	5,8398244E-004
2	1	0	1	0	7,250228996259056E+004	3,6608894E+000	3,6607544E+000	1,831052904045148E-001	1,000000000000000E+000	-3,8441739E-003	40	6,7030353E-004
2	1	0	1	0	7,250748786137067E+004	3,6868789E+000	3,6867747E+000	2,064474570609658E-001	1,000000000000000E+000	-2,8316400E-003	40	7,6112529E-004
2	1	0	1	0	7,251268576014938E+004	3,7128692E+000	3,7127714E+000	2,303006838396731E-001	1,000000000000000E+000	-1,6961696E-003	40	8,5505378E-004
2	1	0	1	0	7,251788365892437E+004	3,7388582E+000	3,7386961E+000	2,544497340422289E-001	1,000000000000000E+000	-4,3657495E-004	40	9,5131021E-004
2	1	0	1	0	7,252308165768371E+004	3,7648480E+000	3,7646933E+000	2,783486935961141E-001	1,000000000000000E+000	9,4746071E-004	40	1,0478975E-003
2	1	0	1	0	7,252827945644467E+004	3,7908375E+000	3,7906964E+000	3,025619104448362E-001	1,000000000000000E+000	2,4594050E-003	40	1,1469204E-003
2	1	0	1	0	7,253347745520592E+004	3,8168271E+000	3,8166497E+000	3,265833584909197E-001	1,000000000000000E+000	4,0938999E-003	40	1,2464543E-003
2	1	0	1	0	7,253867535396619E+004	3,8428166E+000	3,8426192E+000	3,493741866165792E-001	1,000000000000000E+000	5,8531249E-003	40	1,3425120E-003
2	1	0	1	0	7,254387325273361E+004	3,8688064E+000	3,8686671E+000	3,727759851061938E-001	1,000000000000000E+000	7,7309357E-003	40	1,4421463E-003
2	1	0	1	0	7,254907125151303E+004	3,8947964E+000	3,8946269E+000	3,953045559355139E-001	1,000000000000000E+000	9,7302329E-003	40	1,5395638E-003
2	1	0	0	0	7,255426915029413E+004	3,9207854E+000	3,9206350E+000	4,164773076919008E-001	1,000000000000000E+000	1,1844455E-002	40	1,6328555E-003
2	1	0	1	0	7,255946704907308E+004	3,9467750E+000	3,9466276E+000	4,359757717504067E-001	1,000000000000000E+000	1,4061065E-002	40	1,7206341E-003
2	1	0	1	0	7,256466504785372E+004	3,9727652E+000	3,9725938E+000	4,561487889505518E-001	1,000000000000000E+000	1,6383145E-002	40	1,8120939E-003
2	1	0	1	0	7,256986284663063E+004	3,9987540E+000	3,9985695E+000	4,749393768256062E-001	1,000000000000000E+000	1,8803131E-002	40	1,8990781E-003
2	1	0	1	0	7,257506084538973E+004	4,0247440E+000	4,0245872E+000	4,931429964823071E-001	1,000000000000000E+000	2,1320298E-002	40	1,9846971E-003
2	1	0	1	0	7,258025884415233E+004	4,0507340E+000	4,0505309E+000	5,106415037266228E-001	1,000000000000000E+000	2,3930373E-002	40	2,0683692E-003
2	1	0	1	0	7,258545664291200E+004	4,0767226E+000	4,0765548E+000	5,246155432088706E-001	1,000000000000000E+000	2,6624130E-002	40	2,1386240E-003
2	1	0	1	0	7,259065464167250E+004	4,1027131E+000	4,1025529E+000	5,397327049278111E-001	1,000000000000000E+000	2,9396039E-002	40	2,2142821E-003
2	1	0	1	0	7,259585244043713E+004	4,1287017E+000	4,1285496E+000	5,538831781527325E-001	1,000000000000000E+000	3,2237470E-002	40	2,2867341E-003
2	1	0	1	0	7,260105043921620E+004	4,1546917E+000	4,1545177E+000	5,643241331724855E-001	1,000000000000000E+000	3,5145178E-002	40	2,3444947E-003
2	1	0	1	0	7,260624833799701E+004	4,1806812E+000	4,1805491E+000	5,713359507774562E-001	1,000000000000000E+000	3,8101308E-002	40	2,3884980E-003
2	1	0	1	0	7,261144623677671E+004	4,2066708E+000	4,2064519E+000	5,795771046669707E-001	1,000000000000000E+000	4,1096270E-002	40	2,4379632E-003
2	1	0	1	0	7,261664423555718E+004	4,2326608E+000	4,2324209E+000	5,840675673789857E-001	1,000000000000000E+000	4,4123292E-002	40	2,4720198E-003
2	1	0	1	0	7,262184203433630E+004	4,2586503E+000	4,2583952E+000	5,858324945551789E-001	1,000000000000000E+000	4,7164299E-002	40	2,4947063E-003
2	1	0	1	0	7,262704003309720E+004	4,2846394E+000	4,2844138E+000	5,861513537530199E-001	1,000000000000000E+000	5,0212570E-002	40	2,5113150E-003
2	1	0	1	1	7,263151873202994E+004	4,2928362E+000	4,2925763E+000	5,636668953130748E-001	2,000000000000000E+000	5,2819367E-002	40	2,4195833E-003
2	1	0	1	1	7,263671653079009E+004	4,2668471E+000	4,2666073E+000	5,057033728872469E-001	2,000000000000000E+000	5,5586819E-002	40	2,1576376E-003
2	1	0	1	1	7,264191452955073E+004	4,2408576E+000	4,2406340E+000	4,568042372521637E-001	2,000000000000000E+000	5,8081649E-002	40	1,9371395E-003
2	1	0	1	1	7,264711242831266E+004	4,2148671E+000	4,2146211E+000	4,132270613656459E-001	2,000000000000000E+000	6,0338050E-002	40	1,7415954E-003
2	1	0	1	1	7,265231042708782E+004	4,1888776E+000	4,1886840E+000	3,736079833839625E-001	2,000000000000000E+000	6,2379654E-002	40	1,5649258E-003
2	1	0	1	1	7,265750822586933E+004	4,1628890E+000	4,1626687E+000	3,398332646199553E-001	2,000000000000000E+000	6,4228587E-002	40	1,4146133E-003
2	1	0	1	1	7,266270622464921E+004	4,1368980E+000	4,1366844E+000	3,062264387385256E-001	2,000000000000000E+000	6,5903045E-002	40	1,2667621E-003
2	1	0	1	1	7,266790412342828E+004	4,1109095E+000	4,1107183E+000	2,777813326942966E-001	2,000000000000000E+000	6,7419201E-002	40	1,1418808E-003
2	1	0	1	1	7,267310202220976E+004	4,0849199E+000	4,0847063E+000	2,507052671973882E-001	2,000000000000000E+000	6,8790585E-002	40	1,0240574E-003
2	1	0	1	1	7,267830002097460E+004	4,0589294E+000	4,0586910E+000	2,274563519365138E-001	2,000000000000000E+000	7,0031635E-002	40	9,2317507E-004
2	1	0	1	1	7,268349781973567E+004	4,0329409E+000	4,0327363E+000	2,050045567323522E-001	2,000000000000000E+000	7,1154267E-002	40	8,2672935E-004
2	1	0	1	1	7,268869581849634E+004	4,0069509E+000	4,0067272E+000	1,849390769552448E-001	2,000000000000000E+000	7,2164312E-002	40	7,4100046E-004
2	1	0	1	1	7,269389371725731E+004	3,9809611E+000	3,9807293E+000	1,668687117952188E-001	2,000000000000000E+000	7,3078074E-002	40	6,6425919E-004
2	1	0	1	1	7,269909161601774E+004	3,9549723E+000	3,9547727E+000	1,501744567216781E-001	2,000000000000000E+000	7,3900789E-002	40	5,9390586E-004
2	1	0	1	1	7,270428961479111E+004	3,9289820E+000	3,9287827E+000	1,355361062168967E-001	2,000000000000000E+000	7,4642792E-002	40	5,3249189E-004
2	1	0	1	1	7,270948741357261E+004	3,9029930E+000	3,9027696E+000	1,216605647190105E-001	2,000000000000000E+000	7,5309493E-002	40	4,7481316E-004
2	1	0	1	1	7,271468541235104E+004	3,8770032E+000	3,8767908E+000	1,088806462880999E-001	2,000000000000000E+000	7,5907439E-002	40	4,2210749E-004
2	1	0	1	1	7,271988331113209E+004	3,8510137E+000	3,8507812E+000	9,687993047663868E-002	2,000000000000000E+000	7,6440409E-002	40	3,7306341E-004
2	1	0	1	1	7,272508120991243E+004	3,8250239E+000	3,8247769E+000	8,603697461394910E-002	2,000000000000000E+000	7,6914936E-002	40	3,2907224E-004
2	1	0	1	1	7,273027920867992E+004	3,7990341E+000	3,7988183E+000	7,601295424261557E-002	2,000000000000000E+000	7,7334851E-002	40	2,8875942E-004
2	1	0	0	1	7,273547710744262E+004	3,7730446E+000	3,7728293E+000	6,643893757592556E-002	2,000000000000000E+000	7,7704176E-002	40	2,5066276E-004
2	1	0	1	1	7,274067500620219E+004	3,7470548E+000	3,7468278E+000	5,752336087106047E-002	2,000000000000000E+000	7,8025632E-002	40	2,1553013E-004
2	1	0	1	1	7,274587290496309E+004	3,7210658E+000	3,7208855E+000	4,920404990507410E-002	2,000000000000000E+000	7,8302465E-002	40	1,8308264E-004
2	1	0	1	1	7,275107080372417E+004	3,6950758E+000	3,6948180E+000	4,127198802320461E-002	2,000000000000000E+000	7,8536958E-002	41	1,5249249E-004
2	1	0	1	1	7,275626880249451E+004	3,6690860E+000	3,6688175E+000	3,375332832750602E-002	2,000000000000000E+000	7,8731015E-002	41	1,2383480E-004
2	1	0	0	1	7,276146670127520E+004	3,6430969E+000	3,6428690E+000	2,644610521043911E-002	2,000000000000000E+000	7,8886524E-002	41	9,6339696E-005
2	1	0	1	1	7,276666460005456E+004	3,6171069E+000	3,6168730E+000	1,934724720440506E-002	2,000000000000000E+000	7,9004891E-002	41	6,9976537E-005
2	1	0	1	1	7,277186249883589E+004	3,5911174E+000	3,5908833E+000	1,232617825098018E-002	2,000000000000000E+000	7,9086527E-002	41	4,4261866E-005
2	1	0	1	1	7,277706039761472E+004	3,5651281E+000	3,5649559E+000	5,393534400950434E-003	2,000000000000000E+000	7,9131864E-002	41	1,9227713E-005
2	0	0	1	1	7,278225839638762E+004	3,5391381E+000	3,5389659E+000	-1,613987050925072E-003	2,000000000000000E+000	7,9140954E-002	42	-5,7118450E-006
2	0	0	0	1	7,278745629514917E+004	3,5131483E+000	3,5130391E+000	-8,734469104412612E-003	2,000000000000000E+000	7,9113491E-002	42	-3,0684532E-005
2	0	0	1	1	7,279265419390798E+004	3,4871593E+000	3,4869664E+000	-1,621936822302456E-002	2,000000000000000E+000	7,9047918E-002	41	-5,6556393E-005
2	0	0	1	1	7,279785209267063E+004	3,4611695E+000	3,4609787E+000	-2,402704419647039E-002	2,000000000000000E+000	7,8942887E-002	41	-8,3157087E-005
2	0	0	1	1	7,280305009143054E+004	3,4351795E+000	3,4349706E+000	-3,239099654604530E-002	2,000000000000000E+000	7,8795716E-002	41	-1,1126212E-004
2	0	0	1	1	7,280824799019750E+004	3,4091904E+000	3,4090104E+000	-4,131760476475538E-002	2,000000000000000E+000	7,8603968E-002	41	-1,4085215E-004
2	0	0	0	1	7,281344588897866E+004	3,3832006E+000	3,3830330E+000	-5,169919589205163E-002	2,000000000000000E+000	7,8362316E-002	41	-1,7490009E-004
2	0	0	1	1	7,281864378775796E+004	3,3572111E+000	3,3570650E+000	-6,312269867205866E-002	2,000000000000000E+000	7,8064285E-002	41	-2,1190700E-004
2	0	0	1	1	7,282384178653872E+004	3,3312209E+000	3,3310962E+000	-7,581560160471601E-002	2,000000000000000E+000	7,7703156E-002	41	-2,5254907E-004
2	0	0	1	1	7,282903958531824E+004	3,3052320E+000	3,3051281E+000	-9,060353208834260E-002	2,000000000000000E+000	7,7271171E-002	41	-2,9945627E-004
2	0	0	1	1	7,283423758409452E+004	3,2792420E+000	3,2790320E+000	-1,074689049746049E-001	2,000000000000000E+000	7,6756589E-002	40	-3,5239398E-004
2	0	0	0	1	7,283943548285495E+004	3,2532530E+000	3,2530558E+000	-1,262454973553603E-001	2,000000000000000E+000	7,6148748E-002	40	-4,1068366E-004
2	0	0	1	1	7,284463338161545E+004	3,2272630E+000	3,2270436E+000	-1,455332356858942E-001	2,000000000000000E+000	7,5442530E-002	40	-4,6964211E-004
2	0	0	1	1	7,284983128037723E+004	3,2012734E+000	3,2010608E+000	-1,657755863745085E-001	2,000000000000000E+000	7,4632823E-002	40	-5,3065771E-004
2	0	0	1	1	7,285502927913610E+004	3,1752841E+000	3,1750867E+000	-1,854829396453779E-001	2,000000000000000E+000	7,3717564E-002	40	-5,8892445E-004
2	0	0	1	1	7,286022717790195E+004	3,1492941E+000	3,1491060E+000	-2,052686298994253E-001	2,000000000000000E+000	7,2699197E-002	40	-6,4641266E-004
2	0	0	0	1	7,286542507668165E+004	3,1233048E+000	3,1231024E+000	-2,249800772589103E-001	2,000000000000000E+000	7,1579568E-002	40	-7,0263585E-004
2	0	0	1	1	7,287062297546072E+004	3,0973153E+000	3,0971360E+000	-2,441922020079677E-001	2,000000000000000E+000	7,0359610E-002	40	-7,5629645E-004
2	0	0	1	1	7,287582097424235E+004	3,0713251E+000	3,0711360E+000	-2,628491481535962E-001	2,000000000000000E+000	6,9041029E-002	40	-8,0724549E-004
2	0	0	1	1	7,288101877302141E+004	3,0453362E+000	3,0451202E+000	-2,817375084655207E-001	2,000000000000000E+000	6,7624770E-002	40	-8,5792458E-004
2	0	0	1	1	7,288621677180077E+004	3,0193462E+000	3,0191507E+000	-2,989170777975589E-001	2,000000000000000E+000	6,6117696E-002	40	-9,0247573E-004
2	0	0	0	1	7,289141467056167E+004	2,9933567E+000	2,9931555E+000	-3,159272616883828E-001	2,000000000000000E+000	6,4520210E-002	40	-9,4561942E-004
2	0	0	1	1	7,289661256932234E+004	2,9673674E+000	2,9671676E+000	-3,311464291993200E-001	2,000000000000000E+000	6,2837243E-002	40	-9,8256697E-004
2	0	0	1	1	7,290181046808301E+004	2,9413779E+000	2,9411848E+000	-3,468442849351489E-001	2,000000000000000E+000	6,1072066E-002	40	-1,0201331E-003
2	0	0	1	1	7,290700846684328E+004	2,9153879E+000	2,9151990E+000	-3,615106734479561E-001	2,000000000000000E+000	5,9229981E-002	40	-1,0538755E-003
2	0	0	1	1	7,291220636560582E+004	2,8893983E+000	2,8892188E+000	-3,752512898887241E-001	2,000000000000000E+000	5,7314172E-002	40	-1,0841831E-003
2	0	0	0	1	7,291740426438418E+004	2,8634086E+000	2,8632040E+000	-3,878173665523121E-001	2,000000000000000E+000	5,5326894E-002	40	-1,1104002E-003
2	0	0	1	1	7,292260216316517E+004	2,8374195E+000	2,8372419E+000	-3,989428625625155E-001	2,000000000000000E+000	5,3277176E-002	40	-1,1318974E-003
2	0	0	1	1	7,292780016194540E+004	2,8114293E+000	2,8112335E+000	-4,120718021395007E-001	2,000000000000000E+000	5,1165316E-002	40	-1,1584300E-003
2	0	0	1	1	7,293231896088482E+004	2,8110294E+000	2,8108199E+000	-3,985701378846418E-001	2,000000000000000E+000	4,9309816E-002	40	-1,1203089E-003
2	0	0	1	1	7,293751695966418E+004	2,8370194E+000	2,8368006E+000	-3,648708842415722E-001	2,000000000000000E+000	4,7329307E-002	40	-1,0350660E-003
2	0	0	1	1	7,294271485842997E+004	2,8630090E+000	2,8628073E+000	-3,362996936880172E-001	2,000000000000000E+000	4,5510583E-002	40	-9,6276123E-004
2	0	0	1	1	7,294791275719006E+004	2,8889980E+000	2,8887689E+000	-3,078718417984700E-001	2,000000000000000E+000	4,3839030E-002	40	-8,8937063E-004
2	0	0	1	1	7,295311075595114E+004	2,9149885E+000	2,9147925E+000	-2,832085708096699E-001	2,000000000000000E+000	4,2304460E-002	40	-8,2549424E-004
2	0	0	1	1	7,295830855471268E+004	2,9409773E+000	2,9407542E+000	-2,590123328742227E-001	2,000000000000000E+000	4,0895451E-002	40	-7,6169160E-004
2	0	0	1	1	7,296350655347155E+004	2,9669673E+000	2,9667516E+000	-2,368156091075422E-001	2,000000000000000E+000	3,9606493E-002	40	-7,0257310E-004
2	0	0	1	1	7,296870445224794E+004	2,9929566E+000	2,9927402E+000	-2,156141333231849E-001	2,000000000000000E+000	3,8429957E-002	40	-6,4527709E-004
2	0	0	1	1	7,297390235102712E+004	3,0189462E+000	3,0187335E+000	-1,957482947345559E-001	2,000000000000000E+000	3,7362114E-002	40	-5,9091195E-004
2	0	0	1	1	7,297910034980671E+004	3,0449364E+000	3,0447164E+000	-1,764808136829723E-001	2,000000000000000E+000	3,6395822E-002	40	-5,3733401E-004
2	0	0	1	1	7,298429814858781E+004	3,0709252E+000	3,0707247E+000	-1,589203143915052E-001	2,000000000000000E+000	3,5524361E-002	40	-4,8800054E-004
2	0	0	1	1	7,298949614736671E+004	3,0969152E+000	3,0967202E+000	-1,419604753752493E-001	2,000000000000000E+000	3,4743667E-002	40	-4,3961187E-004
2	0	0	1	1	7,299469404613611E+004	3,1229050E+000	3,1226671E+000	-1,259336334649105E-001	2,000000000000000E+000	3,4049463E-002	40	-3,9324880E-004
2	0	0	1	1	7,299989194489643E+004	3,1488943E+000	3,1486845E+000	-1,100322564129286E-001	2,000000000000000E+000	3,3436801E-002	40	-3,4645686E-004
2	0	0	1	1	7,300508994365740E+004	3,1748841E+000	3,1746826E+000	-9,499178148825282E-002	2,000000000000000E+000	3,2904640E-002	40	-3,0156877E-004
2	0	0	0	1	7,301028784241783E+004	3,2008736E+000	3,2006493E+000	-8,073633655698753E-002	2,000000000000000E+000	3,2448649E-002	40	-2,5840869E-004
2	0	0	1	1	7,301548574117851E+004	3,2268627E+000	3,2266390E+000	-6,701791839261562E-002	2,000000000000000E+000	3,2065131E-002	40	-2,1624262E-004
2	0	0	1	1	7,302068363995058E+004	3,2528529E+000	3,2526741E+000	-5,367654657898657E-002	2,000000000000000E+000	3,1752311E-002	40	-1,7459231E-004
2	0	0	1	1	7,302592153872096E+004	3,2790422E+000	3,2788594E+000	-4,026434923753171E-002	2,000000000000000E+000	3,1507473E-002	41	-1,3202114E-004
2	0	0	1	1	7,303111953750043E+004	3,3050323E+000	3,3048644E+000	-2,758063669674782E-002	2,000000000000000E+000	3,1331979E-002	41	-9,1150265E-005
2	0	0	1	1	7,303631733628106E+004	3,3310211E+000	3,3308330E+000	-1,484449471815540E-002	2,000000000000000E+000	3,1222537E-002	41	-4,9444534E-005
2	0	0	1	1	7,304155533505220E+004	3,3572111E+000	3,3570046E+000	-2,199827259987835E-003	2,000000000000000E+000	3,1178400E-002	42	-7,3848305E-006
2	1	0	1	1	7,304675323382253E+004	3,3832009E+000	3,3830054E+000	1,049043207481473E-002	2,000000000000000E+000	3,1200228E-002	41	3,5489189E-005
2	1	0	1	1	7,305195113258320E+004	3,4091902E+000	3,4089930E+000	2,358197507564114E-002	2,000000000000000E+000	3,1289142E-002	41	8,0390790E-005
2	1	0	1	1	7,305714913134446E+004	3,4351802E+000	3,4349091E+000	3,703258806626175E-002	2,000000000000000E+000	3,1447090E-002	41	1,2720357E-004
2	1	0	1	1	7,306234693010477E+004	3,4611688E+000	3,4608831E+000	5,121188254429702E-002	2,000000000000000E+000	3,1677123E-002	41	1,7723834E-004
2	1	0	1	1	7,306754492886586E+004	3,4871593E+000	3,4869010E+000	6,632504005990736E-002	2,000000000000000E+000	3,1982992E-002	41	2,3126884E-004
2	1	0	1	1	7,307274282763386E+004	3,5131488E+000	3,5128305E+000	8,219182735787789E-002	2,000000000000000E+000	3,2368813E-002	41	2,8872595E-004
2	1	0	1	1	7,307794072641502E+004	3,5391381E+000	3,5388553E+000	9,942795396266302E-002	2,000000000000000E+000	3,2840841E-002	41	3,5186115E-004
2	1	0	1	1	7,308313872519392E+004	3,5651283E+000	3,5649261E+000	1,184483374787586E-001	2,000000000000000E+000	3,3406559E-002	40	4,2225959E-004
2	1	0	1	1	7,308833662397461E+004	3,5911176E+000	3,5908902E+000	1,383330574132677E-001	2,000000000000000E+000	3,4072742E-002	40	4,9673882E-004
2	1	0	1	1	7,309353452275507E+004	3,6171069E+000	3,6168754E+000	1,603516450689040E-001	2,000000000000000E+000	3,4849495E-002	40	5,7997194E-004
2	1	0	1	1	7,309873242152832E+004	3,6430964E+000	3,6428773E+000	1,830478222182568E-001	2,000000000000000E+000	3,5742555E-002	40	6,6682074E-004
2	1	0	1	1	7,310393032029091E+004	3,6690860E+000	3,6688275E+000	2,073250811980039E-001	2,000000000000000E+000	3,6757428E-002	40	7,6063996E-004
2	1	0	1	1	7,310912831905065E+004	3,6950760E+000	3,6948242E+000	2,310039316064882E-001	2,000000000000000E+000	3,7896644E-002	40	8,5351890E-004
2	1	0	1	1	7,311432611781103E+004	3,7210648E+000	3,7208383E+000	2,562067454672170E-001	2,000000000000000E+000	3,9163154E-002	40	9,5330388E-004
2	1	0	1	1	7,311952411657263E+004	3,7470551E+000	3,7467866E+000	2,798984424521622E-001	2,000000000000000E+000	4,0555574E-002	40	1,0487197E-003
2	1	0	1	1	7,312472201533709E+004	3,7730446E+000	3,7727950E+000	3,038145042725933E-001	2,000000000000000E+000	4,2072713E-002	40	1,1462298E-003
2	1	0	1	1	7,312991991411801E+004	3,7990341E+000	3,7987845E+000	3,265092736005362E-001	2,000000000000000E+000	4,3711867E-002	40	1,2403383E-003
2	1	0	1	1	7,313511791289755E+004	3,8250241E+000	3,8247545E+000	3,473836230574006E-001	2,000000000000000E+000	4,5464940E-002	40	1,3286570E-003
2	1	0	0	1	7,314031581167830E+004	3,8510134E+000	3,8507202E+000	3,666732489046751E-001	2,000000000000000E+000	4,7324814E-002	40	1,4119560E-003
2	1	0	1	1	7,314551371045760E+004	3,8770027E+000	3,8767467E+000	3,837353882273786E-001	2,000000000000000E+000	4,9280070E-002	40	1,4876449E-003
2	1	0	1	1	7,315071160923573E+004	3,9029930E+000	3,9027162E+000	3,994392380538607E-001	2,000000000000000E+000	5,1314149E-002	40	1,5588980E-003
2	1	0	1	1	7,315590950799757E+004	3,9289818E+000	3,9287307E+000	4,125876760591010E-001	2,000000000000000E+000	5,3422734E-002	40	1,6209459E-003
2	1	0	1	1	7,316110750675632E+004	3,9549720E+000	3,9547348E+000	4,244848334058622E-001	2,000000000000000E+000	5,5601265E-002	40	1,6787249E-003
2	1	0	1	1	7,316630530551873E+004	3,9809613E+000	3,9807026E+000	4,337029630109752E-001	2,000000000000000E+000	5,7834726E-002	40	1,7264425E-003
2	1	0	1	1	7,317150330427894E+004	4,0069504E+000	4,0066967E+000	4,420661492948241E-001	2,000000000000000E+000	6,0111273E-002	40	1,7712250E-003
2	1	0	1	1	7,317670120304008E+004	4,0329409E+000	4,0326843E+000	4,447482682355339E-001	2,000000000000000E+000	6,2417146E-002	40	1,7935294E-003
2	1	0	1	1	7,318189920182165E+004	4,0589304E+000	4,0586634E+000	4,455683198457514E-001	2,000000000000000E+000	6,4731531E-002	40	1,8084118E-003
2	1	0	1	1	7,318709710060060E+004	4,0849199E+000	4,0846524E+000	4,407323730184878E-001	2,000000000000000E+000	6,7036211E-002	40	1,8002385E-003
2	1	0	1	1	7,319229509938124E+004	4,1109095E+000	4,1106844E+000	4,316282142388364E-001	2,000000000000000E+000	6,9307216E-002	40	1,7742873E-003
2	1	0	1	1	7,319749289816123E+004	4,1368985E+000	4,1366754E+000	4,197371127680505E-001	2,000000000000000E+000	7,1522601E-002	40	1,7363161E-003
2	1	0	1	1	7,320269089694135E+004	4,1628885E+000	4,1626596E+000	4,034793855893231E-001	2,000000000000000E+000	7,3663868E-002	40	1,6795474E-003
2	1	0	1	1	7,320788869570324E+004	4,1888776E+000	4,1886668E+000	3,863444441044201E-001	2,000000000000000E+000	7,5717248E-002	40	1,6182682E-003
2	1	0	1	1	7,321308669446356E+004	4,2148676E+000	4,2146134E+000	3,678520635267473E-001	2,000000000000000E+000	7,7678107E-002	40	1,5503543E-003
2	1	0	0	1	7,321828459322546E+004	4,2408571E+000	4,2406321E+000	3,510389787319532E-001	2,000000000000000E+000	7,9547592E-002	40	1,4886272E-003
2	1	0	1	1	7,322348249198461E+004	4,2668467E+000	4,2666349E+000	3,355095724836357E-001	2,000000000000000E+000	8,1331655E-002	40	1,4314968E-003
2	1	0	1	1	7,322868049074657E+004	4,2928371E+000	4,2925925E+000	3,235224982680647E-001	2,000000000000000E+000	8,3044812E-002	40	1,3887503E-003
2	1	0	1	0	7,323351888960926E+004	4,2828403E+000	4,2826300E+000	2,727677186628421E-001	3,000000000000000E+000	8,4506460E-002	40	1,1681633E-003
2	1	0	1	0	7,323871678838762E+004	4,2568517E+000	4,2566190E+000	2,277092424143659E-001	3,000000000000000E+000	8,5798450E-002	40	9,6927147E-004
2	1	0	1	0	7,324391478716955E+004	4,2308607E+000	4,2306852E+000	1,938992983965813E-001	3,000000000000000E+000	8,6889885E-002	40	8,2032691E-004
2	1	0	1	0	7,324911268594884E+004	4,2048712E+000	4,2047057E+000	1,679251643245918E-001	3,000000000000000E+000	8,7826669E-002	40	7,0607592E-004
2	1	0	1	0	7,325431068472832E+004	4,1788816E+000	4,1786942E+000	1,460455483023098E-001	3,000000000000000E+000	8,8639773E-002	40	6,1027968E-004
2	1	0	1	0	7,325950848349574E+004	4,1528926E+000	4,1527262E+000	1,274763294303072E-001	3,000000000000000E+000	8,9348294E-002	40	5,2937429E-004
2	1	0	1	0	7,326470648225537E+004	4,1269026E+000	4,1267533E+000	1,110512730871516E-001	3,000000000000000E+000	8,9965791E-002	40	4,5828123E-004
2	1	0	1	0	7,326990438101674E+004	4,1009130E+000	4,1007361E+000	9,726633047356081E-002	3,000000000000000E+000	9,0506196E-002	40	3,9886354E-004
2	1	0	1	0	7,327510227977711E+004	4,0749240E+000	4,0747385E+000	8,496325574798635E-002	3,000000000000000E+000	9,0978034E-002	40	3,4620304E-004
2	1	0	1	0	7,328030027853814E+004	4,0489335E+000	4,0487580E+000	7,380799758923939E-002	3,000000000000000E+000	9,1388978E-002	40	2,9883071E-004
2	1	0	1	0	7,328549807731120E+004	4,0229445E+000	4,0227504E+000	6,366134249967903E-002	3,000000000000000E+000	9,1745213E-002	40	2,5609368E-004
2	1	0	1	0	7,329069607609109E+004	3,9969549E+000	3,9967723E+000	5,505158372371247E-002	3,000000000000000E+000	9,2053421E-002	40	2,2002864E-004
2	1	0	1	0	7,329589397487231E+004	3,9709651E+000	3,9707301E+000	4,719731378798553E-002	3,000000000000000E+000	9,2317685E-002	41	1,8740779E-004
2	1	0	1	0	7,330109187365079E+004	3,9449761E+000	3,9447393E+000	3,990870352314160E-002	3,000000000000000E+000	9,2543058E-002	41	1,5742943E-004
2	1	0	1	0	7,330628987243230E+004	3,9189861E+000	3,9187708E+000	3,330037315078471E-002	3,000000000000000E+000	9,2732288E-002	41	1,3049653E-004
2	1	0	1	0	7,331148767120158E+004	3,8929968E+000	3,8927820E+000	2,738900957489698E-002	3,000000000000000E+000	9,2888981E-002	41	1,0661945E-004
2	1	0	1	0	7,331668566996104E+004	3,8670073E+000	3,8667719E+000	2,186373032989117E-002	3,000000000000000E+000	9,3015894E-002	41	8,4542058E-005
2	1	0	1	0	7,332188356872351E+004	3,8410177E+000	3,8407671E+000	1,678031911605773E-002	3,000000000000000E+000	9,3115412E-002	41	6,4449297E-005
2	1	0	1	0	7,332708146748296E+004	3,8150275E+000	3,8148155E+000	1,206156177320705E-002	3,000000000000000E+000	9,3189679E-002	41	4,6012632E-005
2	1	0	1	0	7,333227946624404E+004	3,7890377E+000	3,7887952E+000	7,659344699381593E-003	3,000000000000000E+000	9,3240030E-002	41	2,9019689E-005
2	1	0	1	0	7,333751726500643E+004	3,7628491E+000	3,7625861E+000	3,468497983595845E-003	3,000000000000000E+000	9,3268432E-002	42	1,3050522E-005
2	0	0	1	0	7,334271526378510E+004	3,7368586E+000	3,7366550E+000	-4,115591511234516E-004	3,000000000000000E+000	9,3275718E-002	42	-1,5378546E-006
2	0	0	1	0	7,334791316256538E+004	3,7108696E+000	3,7107065E+000	-4,139701697034467E-003	3,000000000000000E+000	9,3263254E-002	42	-1,5361218E-005
2	0	0	1	0	7,335311106134614E+004	3,6848803E+000	3,6847694E+000	-7,738822517507286E-003	3,000000000000000E+000	9,3231760E-002	42	-2,8515777E-005
2	0	0	1	0	7,335830906012491E+004	3,6588895E+000	3,6587079E+000	-1,126464112244011E-002	3,000000000000000E+000	9,3181685E-002	41	-4,1214033E-005
2	0	0	1	0	7,336350695889874E+004	3,6329007E+000	3,6327052E+000	-1,476428520768380E-002	3,000000000000000E+000	9,3113348E-002	41	-5,3634296E-005
2	0	0	1	0	7,336870485765883E+004	3,6069112E+000	3,6067188E+000	-1,831417104545241E-002	3,000000000000000E+000	9,3026765E-002	41	-6,6054068E-005
2	0	0	1	0	7,337390275641996E+004	3,5809216E+000	3,5807357E+000	-2,185513503899439E-002	3,000000000000000E+000	9,2921942E-002	41	-7,8257464E-005
2	0	0	1	0	7,337910065518029E+004	3,5549319E+000	3,5547113E+000	-2,558295882025585E-002	3,000000000000000E+000	9,2798285E-002	41	-9,0940033E-005
2	0	0	1	0	7,338429865394137E+004	3,5289419E+000	3,5287447E+000	-2,954176805223829E-002	3,000000000000000E+000	9,2654765E-002	41	-1,0424536E-004
2	0	0	1	0	7,338949645270919E+004	3,5029533E+000	3,5027688E+000	-3,386890912739945E-002	3,000000000000000E+000	9,2489600E-002	41	-1,1863495E-004
2	0	0	1	0	7,339469445148786E+004	3,4769630E+000	3,4767799E+000	-3,855569197262915E-002	3,000000000000000E+000	9,2301190E-002	41	-1,3404965E-004
2	0	0	1	0	7,339989235026971E+004	3,4509737E+000	3,4507682E+000	-4,372687522463647E-002	3,000000000000000E+000	9,2086732E-002	41	-1,5089131E-004
2	0	0	1	0	7,340509024904878E+004	3,4249837E+000	3,4247980E+000	-4,985616716833921E-002	3,000000000000000E+000	9,1843039E-002	41	-1,7074730E-004
2	0	0	1	0	7,341028824782860E+004	3,3989937E+000	3,3988125E+000	-5,672311652367767E-002	3,000000000000000E+000	9,1565952E-002	41	-1,9279124E-004
2	0	0	0	0	7,341548614660581E+004	3,3730049E+000	3,3728447E+000	-6,475084065642522E-002	3,000000000000000E+000	9,1250360E-002	41	-2,1839453E-004
2	0	0	1	0	7,342068404536485E+004	3,3470151E+000	3,3468819E+000	-7,417268389840609E-002	3,000000000000000E+000	9,0889931E-002	41	-2,4824720E-004
2	0	0	1	0	7,342588194412674E+004	3,3210256E+000	3,3209085E+000	-8,517679634690101E-002	3,000000000000000E+000	9,0476178E-002	41	-2,8286435E-004
2	0	0	1	0	7,343107984288712E+004	3,2950363E+000	3,2949357E+000	-9,892319579722253E-002	3,000000000000000E+000	8,9998186E-002	41	-3,2594556E-004
2	0	0	1	0	7,343627784164762E+004	3,2690458E+000	3,2688429E+000	-1,151897406693954E-001	3,000000000000000E+000	8,9441709E-002	40	-3,7653718E-004
2	0	0	1	0	7,344147564041195E+004	3,2430570E+000	3,2428579E+000	-1,329029789345535E-001	3,000000000000000E+000	8,8796943E-002	40	-4,3098547E-004
2	0	0	1	0	7,344667363919178E+004	3,2170672E+000	3,2168667E+000	-1,511752438471546E-001	3,000000000000000E+000	8,8058062E-002	40	-4,8631060E-004
2	0	0	1	0	7,345187153797271E+004	3,1910777E+000	3,1908665E+000	-1,711852405938806E-001	3,000000000000000E+000	8,7220117E-002	40	-5,4622925E-004
2	0	0	1	0	7,345706943675154E+004	3,1650884E+000	3,1649034E+000	-1,899818711470318E-001	3,000000000000000E+000	8,6281553E-002	40	-6,0127425E-004
2	0	0	1	0	7,346226743553299E+004	3,1390982E+000	3,1388986E+000	-2,090693908900674E-001	3,000000000000000E+000	8,5243724E-002	40	-6,5624760E-004
2	0	0	0	0	7,346746533431159E+004	3,1131089E+000	3,1129310E+000	-2,294153261534625E-001	3,000000000000000E+000	8,4101252E-002	40	-7,1415410E-004
2	0	0	1	0	7,347266323307157E+004	3,0871191E+000	3,0869274E+000	-2,475887169368374E-001	3,000000000000000E+000	8,2860105E-002	40	-7,6428842E-004
2	0	0	1	0	7,347786123183405E+004	3,0611293E+000	3,0609033E+000	-2,643936499126376E-001	3,000000000000000E+000	8,1529297E-002	40	-8,0928340E-004
2	0	0	1	0	7,348305903059291E+004	3,0351403E+000	3,0349162E+000	-2,830219039730961E-001	3,000000000000000E+000	8,0108114E-002	40	-8,5894775E-004
2	0	0	1	0	7,348825702935457E+004	3,0091500E+000	3,0089593E+000	-2,979808782886655E-001	3,000000000000000E+000	7,8598477E-002	40	-8,9661236E-004
2	0	0	1	0	7,349345482811576E+004	2,9831612E+000	2,9829538E+000	-3,134123400840856E-001	3,000000000000000E+000	7,7008016E-002	40	-9,3489455E-004
2	0	0	1	0	7,349865282689477E+004	2,9571714E+000	2,9569812E+000	-3,297268210181423E-001	3,000000000000000E+000	7,5335741E-002	40	-9,7499602E-004
2	0	0	1	0	7,350385072567564E+004	2,9311817E+000	2,9309802E+000	-3,440596549920558E-001	3,000000000000000E+000	7,3581137E-002	40	-1,0084320E-003
2	0	0	1	0	7,350904862445523E+004	2,9051924E+000	2,9050269E+000	-3,588009324801540E-001	3,000000000000000E+000	7,1753554E-002	40	-1,0423263E-003
2	0	0	1	0	7,351424662323599E+004	2,8792019E+000	2,8790247E+000	-3,723353783044479E-001	3,000000000000000E+000	6,9852568E-002	40	-1,0719628E-003
2	0	0	0	0	7,351944452201523E+004	2,8532128E+000	2,8530264E+000	-3,845030240417655E-001	3,000000000000000E+000	6,7884244E-002	40	-1,0969973E-003
2	0	0	1	0	7,352464242077875E+004	2,8272233E+000	2,8270633E+000	-3,973797428706050E-001	3,000000000000000E+000	6,5850832E-002	40	-1,1234178E-003
2	0	0	1	0	7,352984041953925E+004	2,8012333E+000	2,8010712E+000	-4,107079622603891E-001	3,000000000000000E+000	6,3749835E-002	40	-1,1504223E-003
2	0	0	1	0	7,353431931847078E+004	2,8210258E+000	2,8208559E+000	-3,797054987351691E-001	3,000000000000000E+000	6,1981834E-002	40	-1,0710945E-003
2	0	0	1	0	7,353951721723226E+004	2,8470154E+000	2,8468196E+000	-3,487146881455674E-001	3,000000000000000E+000	6,0092676E-002	40	-9,9272782E-004
2	0	0	1	0	7,354471511599282E+004	2,8730049E+000	2,8728149E+000	-3,214435788440086E-001	3,000000000000000E+000	5,8353249E-002	40	-9,2344789E-004
2	0	0	1	0	7,354991301476595E+004	2,8989942E+000	2,8988128E+000	-2,954009265821167E-001	3,000000000000000E+000	5,6751177E-002	40	-8,5631199E-004
2	0	0	1	0	7,355511101354798E+004	2,9249847E+000	2,9247670E+000	-2,718877285253365E-001	3,000000000000000E+000	5,5276353E-002	40	-7,9520827E-004
2	0	0	1	0	7,356030881232675E+004	2,9509735E+000	2,9507649E+000	-2,491907890701963E-001	3,000000000000000E+000	5,3923450E-002	40	-7,3530345E-004
2	0	0	1	0	7,356550681110693E+004	2,9769635E+000	2,9767518E+000	-2,273607207855184E-001	3,000000000000000E+000	5,2684855E-002	40	-6,7679642E-004
2	0	0	1	0	7,357070470988774E+004	3,0029531E+000	3,0027478E+000	-2,068932138239776E-001	3,000000000000000E+000	5,1553369E-002	40	-6,2124815E-004
2	0	0	1	0	7,357590260865516E+004	3,0289421E+000	3,0287189E+000	-1,879588862057568E-001	3,000000000000000E+000	5,0528679E-002	40	-5,6927465E-004
2	0	0	1	0	7,358110060741700E+004	3,0549324E+000	3,0547233E+000	-1,696505296560007E-001	3,000000000000000E+000	4,9600542E-002	40	-5,1823544E-004
2	0	0	0	0	7,358629850617715E+004	3,0809219E+000	3,0806954E+000	-1,527319126563864E-001	3,000000000000000E+000	4,8761878E-002	40	-4,7052049E-004
2	0	0	1	0	7,359149640493817E+004	3,1069117E+000	3,1067164E+000	-1,359689122778966E-001	3,000000000000000E+000	4,8012607E-002	40	-4,2241684E-004
2	0	0	1	0	7,359669440369855E+004	3,1329012E+000	3,1327009E+000	-1,201231053610297E-001	3,000000000000000E+000	4,7348123E-002	40	-3,7630976E-004
2	0	0	1	0	7,360189220246964E+004	3,1588900E+000	3,1586649E+000	-1,049488305491659E-001	3,000000000000000E+000	4,6763398E-002	40	-3,3149819E-004
2	0	0	1	0	7,360709020125028E+004	3,1848800E+000	3,1846647E+000	-9,023090186064553E-002	3,000000000000000E+000	4,6257522E-002	40	-2,8735516E-004
2	0	0	1	0	7,361228800002893E+004	3,2108693E+000	3,2106719E+000	-7,610836748063443E-002	3,000000000000000E+000	4,5826349E-002	40	-2,4435899E-004
2	0	0	1	0	7,361748599881085E+004	3,2368591E+000	3,2366278E+000	-6,240357713460876E-002	3,000000000000000E+000	4,5467384E-002	40	-2,0197715E-004
2	0	0	1	0	7,362268389759003E+004	3,2628489E+000	3,2626400E+000	-4,896080659317648E-002	3,000000000000000E+000	4,5178927E-002	40	-1,5974148E-004
2	0	0	1	0	7,362788179636153E+004	3,2888381E+000	3,2886498E+000	-3,588966020775397E-002	3,000000000000000E+000	4,4958994E-002	41	-1,1802853E-004
2	0	0	1	0	7,363307979512354E+004	3,3148282E+000	3,3145943E+000	-2,323552800758649E-002	3,000000000000000E+000	4,4806030E-002	41	-7,7016346E-005
2	0	0	0	0	7,363827769388282E+004	3,3408177E+000	3,3405781E+000	-1,050571290037666E-002	3,000000000000000E+000	4,4719122E-002	41	-3,5095156E-005
2	1	0	1	0	7,364351559263418E+004	3,3670073E+000	3,3667541E+000	2,275956320519499E-003	3,000000000000000E+000	4,4698201E-002	42	7,6625847E-006
2	1	0	1	0	7,364871349139628E+004	3,3929970E+000	3,3927541E+000	1,518401339658748E-002	3,000000000000000E+000	4,4744004E-002	41	5,1515624E-005
2	1	0	1	0	7,365391139016277E+004	3,4189858E+000	3,4187410E+000	2,841317974342494E-002	3,000000000000000E+000	4,4857830E-002	41	9,7137301E-005
2	1	0	1	0	7,365910938894397E+004	3,4449763E+000	3,4447153E+000	4,217323269017592E-002	3,000000000000000E+000	4,5042042E-002	41	1,4527478E-004
2	1	0	0	0	7,366430728772399E+004	3,4709659E+000	3,4706736E+000	5,668246872303895E-002	3,000000000000000E+000	4,5299552E-002	41	1,9672635E-004
2	1	0	1	0	7,366950518650305E+004	3,4969554E+000	3,4966764E+000	7,184572595068450E-002	3,000000000000000E+000	4,5634445E-002	41	2,5122127E-004
2	1	0	1	0	7,367470318528436E+004	3,5229452E+000	3,5226719E+000	8,801003192671963E-002	3,000000000000000E+000	4,6050865E-002	41	3,1003047E-004
2	1	0	1	0	7,367990098405886E+004	3,5489340E+000	3,5487080E+000	1,057254814046183E-001	3,000000000000000E+000	4,6554655E-002	40	3,7518886E-004
2	1	0	1	0	7,368509898281982E+004	3,5749242E+000	3,5746925E+000	1,245232501855926E-001	3,000000000000000E+000	4,7153316E-002	40	4,4513232E-004
2	1	0	1	0	7,369029678158042E+004	3,6009130E+000	3,6006837E+000	1,453307905275643E-001	3,000000000000000E+000	4,7855251E-002	40	5,2329019E-004
2	1	0	1	0	7,369549478034140E+004	3,6269031E+000	3,6266351E+000	1,670654538099927E-001	3,000000000000000E+000	4,8665546E-002	40	6,0588546E-004
2	1	0	1	0	7,370069267910207E+004	3,6528926E+000	3,6526330E+000	1,900349747798145E-001	3,000000000000000E+000	4,9592923E-002	40	6,9412799E-004
2	1	0	1	0	7,370589057786620E+004	3,6788821E+000	3,6786592E+000	2,129282641185473E-001	3,000000000000000E+000	5,0641652E-002	40	7,8329054E-004
2	1	0	1	0	7,371108857664792E+004	3,7048721E+000	3,7046227E+000	2,367065984721489E-001	3,000000000000000E+000	5,1811315E-002	40	8,7690866E-004
2	1	0	0	0	7,371628647542652E+004	3,7308614E+000	3,7306366E+000	2,616413253611397E-001	3,000000000000000E+000	5,3106152E-002	40	9,7608869E-004
2	1	0	1	0	7,372148437420718E+004	3,7568512E+000	3,7566061E+000	2,852649156017311E-001	3,000000000000000E+000	5,4526366E-002	40	1,0716280E-003
2	1	0	1	0	7,372668237298774E+004	3,7828414E+000	3,7825952E+000	3,079189990065192E-001	3,000000000000000E+000	5,6069776E-002	40	1,1647330E-003
2	1	0	1	0	7,373188017176464E+004	3,8088298E+000	3,8085837E+000	3,303905692024904E-001	3,000000000000000E+000	5,7730850E-002	40	1,2583202E-003
2	1	0	1	0	7,373707817052703E+004	3,8348203E+000	3,8345788E+000	3,508721626784939E-001	3,000000000000000E+000	5,9501000E-002	40	1,3454469E-003
2	1	0	1	0	7,374227596928691E+004	3,8608091E+000	3,8605561E+000	3,708911252565205E-001	3,000000000000000E+000	6,1373994E-002	40	1,4318461E-003
2	1	0	1	0	7,374747396804765E+004	3,8867991E+000	3,8865390E+000	3,882710938156460E-001	3,000000000000000E+000	6,3347749E-002	40	1,5090307E-003
2	1	0	1	0	7,375267186680860E+004	3,9127891E+000	3,9125507E+000	4,036590617056008E-001	3,000000000000000E+000	6,5407455E-002	40	1,5793366E-003
2	1	0	1	0	7,375786976556992E+004	3,9387779E+000	3,9385626E+000	4,164814530049039E-001	3,000000000000000E+000	6,7542896E-002	40	1,6403383E-003
2	1	0	1	0	7,376306776435045E+004	3,9647677E+000	3,9645395E+000	4,261617647997648E-001	3,000000000000000E+000	6,9735385E-002	40	1,6895352E-003
2	1	0	0	0	7,376826566312967E+004	3,9907579E+000	3,9905407E+000	4,335426069570318E-001	3,000000000000000E+000	7,1972899E-002	40	1,7300694E-003
2	1	0	1	0	7,377346356191114E+004	4,0167470E+000	4,0165009E+000	4,375044865497273E-001	3,000000000000000E+000	7,4238010E-002	40	1,7572371E-003
2	1	0	1	0	7,377866156069003E+004	4,0427365E+000	4,0425076E+000	4,363514243670727E-001	3,000000000000000E+000	7,6510377E-002	40	1,7639539E-003
2	1	0	1	0	7,378385945947040E+004	4,0687261E+000	4,0684991E+000	4,306329924858492E-001	3,000000000000000E+000	7,8769259E-002	40	1,7520300E-003
2	1	0	1	0	7,378905735823372E+004	4,0947156E+000	4,0944877E+000	4,216771679150750E-001	3,000000000000000E+000	8,0987036E-002	40	1,7265519E-003
2	1	0	1	0	7,379425535699259E+004	4,1207056E+000	4,1204867E+000	4,058253034228851E-001	3,000000000000000E+000	8,3141193E-002	40	1,6721978E-003
2	1	0	1	0	7,379945315575504E+004	4,1466947E+000	4,1464930E+000	3,863704914157857E-001	3,000000000000000E+000	8,5203156E-002	40	1,6020825E-003
2	1	0	1	0	7,380465115451510E+004	4,1726847E+000	4,1724730E+000	3,629477807020072E-001	3,000000000000000E+000	8,7149851E-002	40	1,5143898E-003
2	1	0	1	0	7,380984895327548E+004	4,1986737E+000	4,1984735E+000	3,383100938807952E-001	3,000000000000000E+000	8,8973328E-002	40	1,4203859E-003
2	1	0	1	0	7,381504695205376E+004	4,2246637E+000	4,2244911E+000	3,137138461751599E-001	3,000000000000000E+000	9,0669028E-002	40	1,3252813E-003
2	1	0	1	0	7,382024485083320E+004	4,2506528E+000	4,2504506E+000	2,904845794284578E-001	3,000000000000000E+000	9,2239022E-002	40	1,2346903E-003
2	1	0	1	0	7,382544274961390E+004	4,2766423E+000	4,2764554E+000	2,708027719036323E-001	3,000000000000000E+000	9,3698807E-002	40	1,1580760E-003
2	1	0	1	1	7,383010144852031E+004	4,2999353E+000	4,2997208E+000	2,552603275752530E-001	3,000000000000000E+000	9,4923407E-002	40	1,0975482E-003
2	1	0	1	1	7,383511934734229E+004	4,2748437E+000	4,2746611E+000	1,898619626224329E-001	3,000000000000000E+000	9,6021019E-002	40	8,1159553E-004
2	1	0	0	1	7,384031724611111E+004	4,2488537E+000	4,2486982E+000	1,495064181565682E-001	3,000000000000000E+000	9,6895278E-002	40	6,3520763E-004
2	1	0	1	1	7,384551514487085E+004	4,2228646E+000	4,2227225E+000	1,201191945151381E-001	3,000000000000000E+000	9,7591586E-002	40	5,0723006E-004
2	1	0	1	1	7,385071314363251E+004	4,1968746E+000	4,1967068E+000	9,804385620385903E-002	3,000000000000000E+000	9,8155841E-002	40	4,1146131E-004
2	1	0	1	1	7,385591104239272E+004	4,1708851E+000	4,1707253E+000	8,023889409639484E-002	3,000000000000000E+000	9,8616868E-002	40	3,3465438E-004
2	1	0	1	1	7,386110894115292E+004	4,1448956E+000	4,1447105E+000	6,562066919389420E-002	3,000000000000000E+000	9,8994359E-002	40	2,7197867E-004
2	1	0	1	1	7,386630693992623E+004	4,1189060E+000	4,1187396E+000	5,348437407573958E-002	3,000000000000000E+000	9,9302396E-002	40	2,2028822E-004
2	1	0	1	1	7,387150473870453E+004	4,0929165E+000	4,0927038E+000	4,325147707007003E-002	3,000000000000000E+000	9,9552497E-002	41	1,7701549E-004
2	1	0	1	1	7,387670273748552E+004	4,0669265E+000	4,0667357E+000	3,434057574686722E-002	3,000000000000000E+000	9,9752605E-002	41	1,3965405E-004
2	1	0	1	1	7,388190063626575E+004	4,0409374E+000	4,0407262E+000	2,670529400736421E-002	3,000000000000000E+000	9,9910125E-002	41	1,0790878E-004
2	1	0	1	1	7,388709853504482E+004	4,0149474E+000	4,0147519E+000	2,006541217411792E-002	3,000000000000000E+000	1,0003067E-001	41	8,0557649E-005
2	1	0	1	1	7,389229653381725E+004	3,9889581E+000	3,9887877E+000	1,417139562254098E-002	3,000000000000000E+000	1,0011867E-001	41	5,6526689E-005
2	1	0	1	1	7,389749433257710E+004	3,9629691E+000	3,9627798E+000	8,974164745092142E-003	3,000000000000000E+000	1,0017797E-001	41	3,5562640E-005
2	1	0	1	1	7,390273233132740E+004	3,9367788E+000	3,9365594E+000	4,348112580195754E-003	3,000000000000000E+000	1,0021210E-001	42	1,7116603E-005
2	1	0	1	1	7,390793023009010E+004	3,9107900E+000	3,9106266E+000	2,627423054889963E-004	3,000000000000000E+000	1,0022335E-001	42	1,0274871E-006
2	0	0	1	1	7,391312812884967E+004	3,8848002E+000	3,8846521E+000	-3,407796692751874E-003	3,000000000000000E+000	1,0021448E-001	42	-1,3238105E-005
2	0	0	1	1	7,391832602761872E+004	3,8588104E+000	3,8586657E+000	-6,767476504170047E-003	3,000000000000000E+000	1,0018734E-001	42	-2,6113430E-005
2	0	0	1	1	7,392352402639936E+004	3,8328204E+000	3,8326721E+000	-9,906981282976277E-003	3,000000000000000E+000	1,0014354E-001	42	-3,7970211E-005
2	0	0	1	1	7,392872192517878E+004	3,8068309E+000	3,8066621E+000	-1,271191772421815E-002	3,000000000000000E+000	1,0008408E-001	41	-4,8389975E-005
2	0	0	1	1	7,393391982395947E+004	3,7808411E+000	3,7806797E+000	-1,530440528296964E-002	3,000000000000000E+000	1,0001060E-001	41	-5,7861056E-005
2	0	0	1	1	7,393911772273883E+004	3,7548521E+000	3,7546906E+000	-1,787943171877501E-002	3,000000000000000E+000	9,9923678E-002	41	-6,7131732E-005
2	0	0	1	1	7,394431572151417E+004	3,7288618E+000	3,7287016E+000	-2,015708901019889E-002	3,000000000000000E+000	9,9824250E-002	41	-7,5159769E-005
2	0	0	1	1	7,394951352027408E+004	3,7028728E+000	3,7027128E+000	-2,239079435352889E-002	3,000000000000000E+000	9,9713013E-002	41	-8,2906678E-005
2	0	0	1	1	7,395471151903510E+004	3,6768832E+000	3,6767378E+000	-2,469096094109752E-002	3,000000000000000E+000	9,9590085E-002	41	-9,0782189E-005
2	0	0	1	1	7,395990941779665E+004	3,6508934E+000	3,6507103E+000	-2,685015274545725E-002	3,000000000000000E+000	9,9455409E-002	41	-9,8022130E-005
2	0	0	1	1	7,396510731655546E+004	3,6249039E+000	3,6247196E+000	-2,920369119203509E-002	3,000000000000000E+000	9,9309348E-002	41	-1,0585519E-004
2	0	0	1	1	7,397030521532299E+004	3,5989146E+000	3,5987573E+000	-3,143333174431595E-002	3,000000000000000E+000	9,9151224E-002	41	-1,1312093E-004
2	0	0	0	1	7,397550321410247E+004	3,5729249E+000	3,5727432E+000	-3,401163224651906E-002	3,000000000000000E+000	9,8980606E-002	41	-1,2151483E-004
2	0	0	1	1	7,398070111288177E+004	3,5469348E+000	3,5467489E+000	-3,666316613668541E-002	3,000000000000000E+000	9,8796479E-002	41	-1,3003504E-004
2	0	0	1	1	7,398589901166293E+004	3,5209458E+000	3,5207715E+000	-3,971386653097497E-002	3,000000000000000E+000	9,8597705E-002	41	-1,3982345E-004
2	0	0	1	1	7,399109691044223E+004	3,4949563E+000	3,4947743E+000	-4,307214601519044E-002	3,000000000000000E+000	9,8382078E-002	41	-1,5052743E-004
2	0	0	1	1	7,399629490922042E+004	3,4689658E+000	3,4687762E+000	-4,710204696502729E-002	3,000000000000000E+000	9,8146766E-002	41	-1,6338646E-004
2	0	0	1	1	7,400149280798086E+004	3,4429770E+000	3,4428072E+000	-5,167077096283466E-002	3,000000000000000E+000	9,7889714E-002	41	-1,7789251E-004
2	0	0	1	1	7,400669070674200E+004	3,4169869E+000	3,4168203E+000	-5,713621889733043E-002	3,000000000000000E+000	9,7606510E-002	41	-1,9522419E-004
2	0	0	1	1	7,401188860550220E+004	3,3909976E+000	3,3908215E+000	-6,333878599149079E-002	3,000000000000000E+000	9,7293377E-002	41	-2,1477051E-004
2	0	0	1	1	7,401708650426293E+004	3,3650084E+000	3,3648942E+000	-7,101525955944121E-002	3,000000000000000E+000	9,6944056E-002	41	-2,3895883E-004
2	0	0	1	1	7,402228450302640E+004	3,3390183E+000	3,3388958E+000	-8,013555248322191E-002	3,000000000000000E+000	9,6551761E-002	41	-2,6756426E-004
2	0	0	0	1	7,402748240180477E+004	3,3130288E+000	3,3129175E+000	-9,096698001613435E-002	3,000000000000000E+000	9,6107595E-002	41	-3,0136609E-004
2	0	0	1	1	7,403268030058622E+004	3,2870393E+000	3,2868459E+000	-1,052311809307064E-001	3,000000000000000E+000	9,5598452E-002	40	-3,4587868E-004
2	0	0	1	1	7,403787819936592E+004	3,2610495E+000	3,2608578E+000	-1,211990725604593E-001	3,000000000000000E+000	9,5010586E-002	40	-3,9521293E-004
2	0	0	1	1	7,404307609814499E+004	3,2350600E+000	3,2348344E+000	-1,391662915723644E-001	3,000000000000000E+000	9,4334103E-002	40	-4,5017991E-004
2	0	0	1	1	7,404827409692662E+004	3,2090702E+000	3,2088609E+000	-1,576934265344536E-001	3,000000000000000E+000	9,3562566E-002	40	-5,0601625E-004
2	0	0	0	1	7,405347199568711E+004	3,1830809E+000	3,1828825E+000	-1,766894582473983E-001	3,000000000000000E+000	9,2692174E-002	40	-5,6238181E-004
2	0	0	1	1	7,405866989444825E+004	3,1570909E+000	3,1568952E+000	-1,954152278856848E-001	3,000000000000000E+000	9,1725245E-002	40	-6,1690540E-004
2	0	0	1	1	7,406386789320904E+004	3,1311011E+000	3,1309276E+000	-2,146463332957840E-001	3,000000000000000E+000	9,0658300E-002	40	-6,7204214E-004
2	0	0	1	1	7,406906569196982E+004	3,1051126E+000	3,1049387E+000	-2,324500594912964E-001	3,000000000000000E+000	8,9495294E-002	40	-7,2174321E-004
2	0	0	1	1	7,407426369073044E+004	3,0791221E+000	3,0789230E+000	-2,505323810569582E-001	3,000000000000000E+000	8,8238917E-002	40	-7,7136990E-004
2	0	0	0	1	7,407946158950846E+004	3,0531330E+000	3,0529568E+000	-2,686861144592011E-001	3,000000000000000E+000	8,6887389E-002	40	-8,2028710E-004
2	0	0	1	1	7,408465948828985E+004	3,0271435E+000	3,0269513E+000	-2,855889004450258E-001	3,000000000000000E+000	8,5445419E-002	40	-8,6446368E-004
2	0	0	1	1	7,408985738706845E+004	3,0011537E+000	3,0009665E+000	-3,017860613921186E-001	3,000000000000000E+000	8,3917074E-002	40	-9,0564985E-004
2	0	0	1	1	7,409505528584943E+004	2,9751642E+000	2,9749727E+000	-3,178099761743716E-001	3,000000000000000E+000	8,2307376E-002	40	-9,4547600E-004
2	0	0	1	1	7,410025328462967E+004	2,9491744E+000	2,9490047E+000	-3,321467943586749E-001	3,000000000000000E+000	8,0616869E-002	40	-9,7950245E-004
2	0	0	0	1	7,410545118339313E+004	2,9231849E+000	2,9229755E+000	-3,469907314893923E-001	3,000000000000000E+000	7,8849286E-002	40	-1,0142454E-003
2	0	0	1	1	7,411064908215578E+004	2,8971953E+000	2,8970268E+000	-3,611805188824797E-001	3,000000000000000E+000	7,7004246E-002	40	-1,0463496E-003
2	0	0	1	1	7,411584708091524E+004	2,8712053E+000	2,8710279E+000	-3,750793073010201E-001	3,000000000000000E+000	7,5089529E-002	40	-1,0768631E-003
2	0	0	1	1	7,412104487967608E+004	2,8452163E+000	2,8450332E+000	-3,881827482729472E-001	3,000000000000000E+000	7,3105544E-002	40	-1,1043928E-003
2	0	0	1	1	7,412624287843733E+004	2,8192263E+000	2,8190682E+000	-4,005768195734518E-001	3,000000000000000E+000	7,1054786E-002	40	-1,1292534E-003
2	0	0	0	1	7,413144077721192E+004	2,7932370E+000	2,7930501E+000	-4,125277237145113E-001	3,000000000000000E+000	6,8938516E-002	40	-1,1522106E-003
2	0	0	1	1	7,413415097657591E+004	2,7795434E+000	2,7793345E+000	-4,184225994561404E-001	3,000000000000000E+000	6,7812301E-002	40	-1,1629363E-003