File: Dati/201009/CV_CNTmultiwalled_1_4_12layer_01_CV_C03.mpt
EC-Lab ASCII FILE
Nb header lines : 57

Cyclic Voltammetry

Run on channel : 3 (SN 6807)
User :
Electrode connection : standard
Ewe ctrl range : min = -5,00 V, max = 5,00 V
Ewe,I filtering : 50 kHz
Safety Limits :
	Do not start on E overload
Channel : Grounded
Acquisition started on : 10/09/2020 18:33:11
Saved on :
	File : CV_CNTmultiwalled_1_4_12layer_01_CV_C03.mpr
	Directory : C:\Users\labsuperfici\Desktop\Biologic\Users\Prisca Viviani\201009\
	Host : 10.78.33.0
Device : VSP-300 (SN 0638)
Address : USB
EC-Lab for windows v11.31 (software)
Internet server v11.30 (firmware)
Command interpretor v11.31 (firmware)
Electrode material :
Initial state :
Electrolyte :
Comments :
Cable : standard
Reference electrode : SCE Saturated Calomel Electrode (0,241 V)
Electrode surface area : 0,001 cm²
Characteristic mass : 0,001 g
Equivalent Weight : 0,000 g/eq.
Density : 0,000 g/cm3
Cycle Definition : Charge/Discharge alternance
Ei (V)              0,000
vs.                 Eoc
dE/dt               0,200
dE/dt unit          mV/s
E1 (V)              2,800
vs.                 Ref
Step percent        50
N                   10
E range min (V)     -5,000
E range max (V)     5,000
I Range             Auto
I Range min         Unset
I Range max         Unset
I Range init        Unset
Bandwidth           8
E2 (V)              4,300
vs.                 Ref
nc cycles           2
Reverse Scan        1
Ef (V)              0,000
vs.                 Eoc

mode	ox/red	error	control changes	counter inc.	time/s	control/V	Ewe/V	<I>/mA	cycle number	(Q-Qo)/C	I Range	P/W
2	0	1	0	0	0,000000000000000E+000	2,7795434E+000	2,7793496E+000	-3,425291215535253E-004	1,000000000000000E+000	0,0000000E+000	43	-9,5200818E-007
2	1	0	1	0	1,074598972853346E+002	2,8010337E+000	2,8007929E+000	1,716877202468591E-003	1,000000000000000E+000	1,2872783E-004	42	4,8086176E-006
2	1	0	1	0	2,374091940025392E+002	2,8270237E+000	2,8267744E+000	2,776865288404956E-003	1,000000000000000E+000	4,3893760E-004	42	7,8495714E-006
2	1	0	1	0	3,673567907197867E+002	2,8530133E+000	2,8527682E+000	3,600268777406518E-003	1,000000000000000E+000	8,6959999E-004	42	1,0270732E-005
2	1	0	1	0	4,973048874370215E+002	2,8790026E+000	2,8787270E+000	4,284061300228098E-003	1,000000000000000E+000	1,3982326E-003	42	1,2332643E-005
2	1	0	1	0	6,272534841542438E+002	2,9049923E+000	2,9047315E+000	4,886591630789139E-003	1,000000000000000E+000	2,0101883E-003	42	1,4194236E-005
2	1	0	1	0	7,572017808714736E+002	2,9309819E+000	2,9307275E+000	5,437113711828305E-003	1,000000000000000E+000	2,6962443E-003	42	1,5934698E-005
2	1	0	1	0	8,871497775887110E+002	2,9569714E+000	2,9567306E+000	5,950037016345174E-003	1,000000000000000E+000	3,4499085E-003	42	1,7592656E-005
2	1	0	1	0	1,017098474305931E+003	2,9829612E+000	2,9827003E+000	6,477484580778098E-003	1,000000000000000E+000	4,2713145E-003	42	1,9320396E-005
2	1	0	1	0	1,147046771023161E+003	3,0089509E+000	3,0086706E+000	7,056935884511548E-003	1,000000000000000E+000	5,1643685E-003	42	2,1231996E-005
2	1	0	1	0	1,276994767740398E+003	3,0349405E+000	3,0346358E+000	7,707087545148067E-003	1,000000000000000E+000	6,1375648E-003	42	2,3388204E-005
2	1	0	1	0	1,406942764457635E+003	3,0609300E+000	3,0606706E+000	8,449466954841934E-003	1,000000000000000E+000	7,2011235E-003	42	2,5861034E-005
2	1	0	1	0	1,536891661174850E+003	3,0869195E+000	3,0866449E+000	9,246746398108963E-003	1,000000000000000E+000	8,3652660E-003	42	2,8541423E-005
2	1	0	1	0	1,666839757892085E+003	3,1129093E+000	3,1127005E+000	1,008219195250598E-002	1,000000000000000E+000	9,6361991E-003	41	3,1382842E-005
2	1	0	1	0	1,796787554609327E+003	3,1388986E+000	3,1387312E+000	1,089893737531617E-002	1,000000000000000E+000	1,1014311E-002	41	3,4208835E-005
2	1	0	1	0	1,926736051326552E+003	3,1648881E+000	3,1647205E+000	1,165813891506959E-002	1,000000000000000E+000	1,2496014E-002	41	3,6894751E-005
2	1	0	1	0	2,056684648043774E+003	3,1908779E+000	3,1906772E+000	1,228024070954570E-002	1,000000000000000E+000	1,4068010E-002	41	3,9182283E-005
2	1	0	1	0	2,186632344761019E+003	3,2168674E+000	3,2167006E+000	1,280061815131426E-002	1,000000000000000E+000	1,5714655E-002	41	4,1175754E-005
2	1	0	1	0	2,316580941478242E+003	3,2428572E+000	3,2426951E+000	1,319354969213114E-002	1,000000000000000E+000	1,7419845E-002	41	4,2782660E-005
2	1	0	1	0	2,446529638195461E+003	3,2688465E+000	3,2686772E+000	1,349061744621914E-002	1,000000000000000E+000	1,9169806E-002	41	4,4096476E-005
2	1	0	1	0	2,576477334912721E+003	3,2948363E+000	3,2946899E+000	1,368115651006321E-002	1,000000000000000E+000	2,0950571E-002	41	4,5075169E-005
2	1	0	1	0	2,706425331629958E+003	3,3208261E+000	3,3206997E+000	1,386352971316493E-002	1,000000000000000E+000	2,2755541E-002	41	4,6036617E-005
2	1	0	1	0	2,836374528347165E+003	3,3468156E+000	3,3466666E+000	1,413875114860619E-002	1,000000000000000E+000	2,4588121E-002	41	4,7317684E-005
2	1	0	1	0	2,966322225064396E+003	3,3728049E+000	3,3726938E+000	1,455189144791380E-002	1,000000000000000E+000	2,6464662E-002	41	4,9079074E-005
2	1	0	1	0	3,096270321781631E+003	3,3987947E+000	3,3986385E+000	1,526067911578266E-002	1,000000000000000E+000	2,8412942E-002	41	5,1865532E-005
2	1	0	1	0	3,226218918498853E+003	3,4247842E+000	3,4246266E+000	1,660032601559949E-002	1,000000000000000E+000	3,0491242E-002	41	5,6849916E-005
2	1	0	1	0	3,356167215216083E+003	3,4507740E+000	3,4506299E+000	1,926872130312994E-002	1,000000000000000E+000	3,2816127E-002	41	6,6489229E-005
2	1	0	1	0	3,486115211933320E+003	3,4767635E+000	3,4766200E+000	2,671152952081793E-002	1,000000000000000E+000	3,5729811E-002	41	9,2865834E-005
2	1	0	1	0	3,616063908650540E+003	3,5027530E+000	3,5026014E+000	4,271705402135481E-002	1,000000000000000E+000	4,0202573E-002	41	1,4962081E-004
2	1	0	1	0	3,746012105367772E+003	3,5287428E+000	3,5285671E+000	6,021219338026562E-002	1,000000000000000E+000	4,6921588E-002	41	2,1246276E-004
2	1	0	1	0	3,875960202085007E+003	3,5547321E+000	3,5545182E+000	7,562312438362484E-002	1,000000000000000E+000	5,5799954E-002	41	2,6880376E-004
2	1	0	1	0	4,005908198802244E+003	3,5807216E+000	3,5805271E+000	8,742744223146381E-002	1,000000000000000E+000	6,6452764E-002	41	3,1303632E-004
2	1	0	1	0	4,135857096043794E+003	3,6067114E+000	3,6064806E+000	9,574764291428928E-002	1,000000000000000E+000	7,8406759E-002	41	3,4531203E-004
2	1	0	1	0	4,265805094470466E+003	3,6327012E+000	3,6324799E+000	1,010252458918227E-001	1,000000000000000E+000	9,1237180E-002	41	3,6697218E-004
2	1	0	1	0	4,395752992897163E+003	3,6586907E+000	3,6585202E+000	1,043473929991320E-001	1,000000000000000E+000	1,0461807E-001	40	3,8175704E-004
2	1	0	1	0	4,525701491323867E+003	3,6846807E+000	3,6845577E+000	1,062782724075824E-001	1,000000000000000E+000	1,1834087E-001	40	3,9158843E-004
2	1	0	1	0	4,655650089750561E+003	3,7106700E+000	3,7105620E+000	1,069018784689939E-001	1,000000000000000E+000	1,3221811E-001	40	3,9666606E-004
2	1	0	1	0	4,785597688177237E+003	3,7366590E+000	3,7365246E+000	1,066040533177112E-001	1,000000000000000E+000	1,4611393E-001	40	3,9832867E-004
2	1	0	1	0	4,915546386603928E+003	3,7626488E+000	3,7625496E+000	1,053384705945664E-001	1,000000000000000E+000	1,5990624E-001	40	3,9634123E-004
2	1	0	1	0	5,045495085030612E+003	3,7886388E+000	3,7885365E+000	1,035669003347647E-001	1,000000000000000E+000	1,7350419E-001	40	3,9236699E-004
2	1	0	1	0	5,175442683457310E+003	3,8146281E+000	3,8145061E+000	1,014076325583701E-001	1,000000000000000E+000	1,8684569E-001	40	3,8682003E-004
2	1	0	1	0	5,305391381884008E+003	3,8406179E+000	3,8404937E+000	9,895121610066315E-002	1,000000000000000E+000	1,9988102E-001	40	3,8002152E-004
2	1	0	1	0	5,435339980310702E+003	3,8666077E+000	3,8665226E+000	9,608462700096876E-002	1,000000000000000E+000	2,1257617E-001	40	3,7151336E-004
2	1	0	1	0	5,565287678737383E+003	3,8925970E+000	3,8924990E+000	9,308096296949553E-002	1,000000000000000E+000	2,2489128E-001	40	3,6231754E-004
2	1	0	1	0	5,695235677164077E+003	3,9185865E+000	3,9184902E+000	8,975357484405982E-002	1,000000000000000E+000	2,3679003E-001	40	3,5169849E-004
2	1	0	1	0	5,825184375590776E+003	3,9445763E+000	3,9444859E+000	8,631255391621795E-002	1,000000000000000E+000	2,4824485E-001	40	3,4045865E-004
2	1	0	1	0	5,955132674017441E+003	3,9705663E+000	3,9704711E+000	8,307393096548887E-002	1,000000000000000E+000	2,5926846E-001	40	3,2984265E-004
2	1	0	1	0	6,085080672444143E+003	3,9965556E+000	3,9964089E+000	8,001758275729898E-002	1,000000000000000E+000	2,6987875E-001	40	3,1978299E-004
2	1	0	1	0	6,215030470870814E+003	4,0225449E+000	4,0224533E+000	7,730361276737430E-002	1,000000000000000E+000	2,8011319E-001	40	3,1095018E-004
2	1	0	1	0	6,344978169297538E+003	4,0485344E+000	4,0484285E+000	7,454971235958276E-002	1,000000000000000E+000	2,8998789E-001	40	3,0180920E-004
2	1	0	1	0	6,474926267724208E+003	4,0745244E+000	4,0744209E+000	7,227396854168644E-002	1,000000000000000E+000	2,9953778E-001	40	2,9447456E-004
2	1	0	1	0	6,604874266150902E+003	4,1005135E+000	4,1004114E+000	7,001756578678586E-002	1,000000000000000E+000	3,0880481E-001	40	2,8710082E-004
2	1	0	1	0	6,734823164577589E+003	4,1265035E+000	4,1264105E+000	6,805369543442730E-002	1,000000000000000E+000	3,1778687E-001	40	2,8081748E-004
2	1	0	1	0	6,864771163004276E+003	4,1524925E+000	4,1523623E+000	6,632121795644985E-002	1,000000000000000E+000	3,2653221E-001	40	2,7538973E-004
2	1	0	1	0	6,994719061430995E+003	4,1784821E+000	4,1783795E+000	6,467975969482653E-002	1,000000000000000E+000	3,3506063E-001	40	2,7025660E-004
2	1	0	1	0	7,124668059857679E+003	4,2044721E+000	4,2042918E+000	6,340788220897098E-002	1,000000000000000E+000	3,4340012E-001	40	2,6658524E-004
2	1	0	1	0	7,254616158284356E+003	4,2304616E+000	4,2302785E+000	6,278451250745776E-002	1,000000000000000E+000	3,5160112E-001	40	2,6559597E-004
2	1	0	1	0	7,384563856711065E+003	4,2564516E+000	4,2562370E+000	6,196672346563425E-002	1,000000000000000E+000	3,5969377E-001	40	2,6374505E-004
2	1	0	1	0	7,514511855137767E+003	4,2824407E+000	4,2822680E+000	6,046748963394616E-002	1,000000000000000E+000	3,6766094E-001	40	2,5893800E-004
2	1	0	1	1	7,627468153770162E+003	4,2948360E+000	4,2946296E+000	5,507184567706831E-002	2,000000000000000E+000	3,7439641E-001	40	2,3651318E-004
2	1	0	1	1	7,757415752196888E+003	4,2688460E+000	4,2686105E+000	4,559057069022043E-002	2,000000000000000E+000	3,8086328E-001	41	1,9460839E-004
2	1	0	1	1	7,887361450623604E+003	4,2428570E+000	4,2426720E+000	3,913085863193730E-002	2,000000000000000E+000	3,8635486E-001	41	1,6601940E-004
2	1	0	1	1	8,017307149050306E+003	4,2168670E+000	4,2166533E+000	3,422494317668023E-002	2,000000000000000E+000	3,9110106E-001	41	1,4431472E-004
2	1	0	1	1	8,147255947476988E+003	4,1908774E+000	4,1906915E+000	3,009514051824325E-002	2,000000000000000E+000	3,9526501E-001	41	1,2611946E-004
2	1	0	1	1	8,277201645903697E+003	4,1648874E+000	4,1647067E+000	2,672443471682340E-002	2,000000000000000E+000	3,9893377E-001	41	1,1129944E-004
2	1	0	1	1	8,407148244330412E+003	4,1388984E+000	4,1387072E+000	2,420318623073270E-002	2,000000000000000E+000	4,0219745E-001	41	1,0016990E-004
2	1	0	1	1	8,537096142757102E+003	4,1129088E+000	4,1127415E+000	2,128082692441692E-002	2,000000000000000E+000	4,0510887E-001	41	8,7522538E-005
2	1	0	1	1	8,667041841183833E+003	4,0869193E+000	4,0867395E+000	1,911231437307864E-002	2,000000000000000E+000	4,0771195E-001	41	7,8107048E-005
2	1	0	1	1	8,796989439610537E+003	4,0609298E+000	4,0607023E+000	1,721829399031646E-002	2,000000000000000E+000	4,1005370E-001	41	6,9918366E-005
2	1	0	1	1	8,926935138037254E+003	4,0349398E+000	4,0347433E+000	1,559263071477432E-002	2,000000000000000E+000	4,1216242E-001	41	6,2912266E-005
2	1	0	1	1	9,056882036463954E+003	4,0089498E+000	4,0087662E+000	1,402404190964196E-002	2,000000000000000E+000	4,1406947E-001	41	5,6219105E-005
2	1	0	1	1	9,186830234890687E+003	3,9829612E+000	3,9827466E+000	1,268751519534744E-002	2,000000000000000E+000	4,1578823E-001	41	5,0531158E-005
2	1	0	1	1	9,316777733317344E+003	3,9569714E+000	3,9567742E+000	1,146893300349175E-002	2,000000000000000E+000	4,1734126E-001	41	4,5379980E-005
2	1	0	1	1	9,446725231744087E+003	3,9309819E+000	3,9307837E+000	1,039948322368139E-002	2,000000000000000E+000	4,1874519E-001	41	4,0878120E-005
2	1	0	1	1	9,576672830170763E+003	3,9049919E+000	3,9047837E+000	9,376256093253543E-003	2,000000000000000E+000	4,2002305E-001	41	3,6612251E-005
2	1	0	1	1	9,706619728597492E+003	3,8790026E+000	3,8788037E+000	8,448789697212980E-003	2,000000000000000E+000	4,2116579E-001	41	3,2771197E-005
2	1	0	1	1	9,836567127024173E+003	3,8530130E+000	3,8527913E+000	7,589330508061348E-003	2,000000000000000E+000	4,2219213E-001	41	2,9240107E-005
2	1	0	1	1	9,966515425450852E+003	3,8270233E+000	3,8267908E+000	6,816930120141783E-003	2,000000000000000E+000	4,2311248E-001	41	2,6086966E-005
2	1	0	1	1	1,009646222387755E+004	3,8010337E+000	3,8008175E+000	6,066162656496250E-003	2,000000000000000E+000	4,2393428E-001	41	2,3056376E-005
2	1	0	1	1	1,022640972230426E+004	3,7750442E+000	3,7748625E+000	5,371135208780686E-003	2,000000000000000E+000	4,2466319E-001	41	2,0275296E-005
2	1	0	1	1	1,035635802073099E+004	3,7490549E+000	3,7487972E+000	4,713893030856085E-003	2,000000000000000E+000	4,2530295E-001	42	1,7671429E-005
2	1	0	1	1	1,048630481915768E+004	3,7230649E+000	3,7228372E+000	4,061604829788555E-003	2,000000000000000E+000	4,2585838E-001	42	1,5120693E-005
2	1	0	1	1	1,061625231758441E+004	3,6970756E+000	3,6968274E+000	3,417295120299018E-003	2,000000000000000E+000	4,2632958E-001	42	1,2633151E-005
2	1	0	1	1	1,074620061601105E+004	3,6710856E+000	3,6708441E+000	2,765398011190340E-003	2,000000000000000E+000	4,2671630E-001	42	1,0151345E-005
2	1	0	1	1	1,087614741443777E+004	3,6450963E+000	3,6448469E+000	2,086315729424495E-003	2,000000000000000E+000	4,2701706E-001	42	7,6043016E-006
2	1	0	1	1	1,100609471286447E+004	3,6191070E+000	3,6189067E+000	1,385071402217620E-003	2,000000000000000E+000	4,2722839E-001	42	5,0124440E-006
2	1	0	1	1	1,113604251129116E+004	3,5931172E+000	3,5928073E+000	5,949919036396661E-004	2,000000000000000E+000	4,2734367E-001	43	2,1376914E-006
2	0	0	1	1	1,126698960970575E+004	3,5669272E+000	3,5667338E+000	-2,711174952141401E-004	2,000000000000000E+000	4,2735428E-001	43	-9,6700398E-007
2	0	0	1	1	1,139693780813250E+004	3,5409379E+000	3,5407474E+000	-1,244392566842790E-003	2,000000000000000E+000	4,2724451E-001	42	-4,4060798E-006
2	0	0	1	1	1,152688470655916E+004	3,5149481E+000	3,5147696E+000	-2,356195922154782E-003	2,000000000000000E+000	4,2699844E-001	42	-8,2814859E-006
2	0	0	1	1	1,165683150498586E+004	3,4889586E+000	3,4887793E+000	-3,741723978360752E-003	2,000000000000000E+000	4,2659095E-001	42	-1,3054049E-005
2	0	0	1	1	1,178677980341256E+004	3,4629693E+000	3,4628179E+000	-5,510334670575420E-003	2,000000000000000E+000	4,2598125E-001	42	-1,9081286E-005
2	0	0	1	1	1,191672720183930E+004	3,4369795E+000	3,4368649E+000	-7,970328121053194E-003	2,000000000000000E+000	4,2510027E-001	42	-2,7392940E-005
2	0	0	1	1	1,204667410026601E+004	3,4109898E+000	3,4107909E+000	-1,180409057559140E-002	2,000000000000000E+000	4,2382139E-001	41	-4,0261286E-005
2	0	0	1	1	1,217662239869265E+004	3,3850002E+000	3,3848019E+000	-1,902227175798654E-002	2,000000000000000E+000	4,2186296E-001	41	-6,4386622E-005
2	0	0	1	1	1,230656979711936E+004	3,3590107E+000	3,3588161E+000	-3,336935491049845E-002	2,000000000000000E+000	4,1851270E-001	41	-1,1208153E-004
2	0	0	1	1	1,243651669554608E+004	3,3330212E+000	3,3328509E+000	-5,007579341036816E-002	2,000000000000000E+000	4,1306597E-001	41	-1,6689516E-004
2	0	0	1	1	1,256646499397277E+004	3,3070316E+000	3,3069158E+000	-6,439658444770058E-002	2,000000000000000E+000	4,0557480E-001	41	-2,1295408E-004
2	0	0	1	1	1,269641239239951E+004	3,2810416E+000	3,2808783E+000	-7,483668316235459E-002	2,000000000000000E+000	3,9646980E-001	41	-2,4553004E-004
2	0	0	1	1	1,282635919082617E+004	3,2550523E+000	3,2549281E+000	-8,177480642106927E-002	2,000000000000000E+000	3,8625234E-001	41	-2,6617112E-004
2	0	0	1	1	1,295630688925291E+004	3,2290626E+000	3,2289462E+000	-8,581164675666275E-002	2,000000000000000E+000	3,7532234E-001	41	-2,7708118E-004
2	0	0	1	1	1,308625438767963E+004	3,2030733E+000	3,2029274E+000	-8,801068411192625E-002	2,000000000000000E+000	3,6400011E-001	41	-2,8189181E-004
2	0	0	1	1	1,321620178610631E+004	3,1770837E+000	3,1769457E+000	-8,922533157949997E-002	2,000000000000000E+000	3,5246235E-001	41	-2,8346403E-004
2	0	0	1	1	1,334614948453298E+004	3,1510940E+000	3,1509881E+000	-8,930009464513744E-002	2,000000000000000E+000	3,4084910E-001	41	-2,8138355E-004
2	0	0	1	1	1,347609698295966E+004	3,1251044E+000	3,1249733E+000	-8,890764984034494E-002	2,000000000000000E+000	3,2925427E-001	41	-2,7783404E-004
2	0	0	1	1	1,360604478138637E+004	3,0991142E+000	3,0989873E+000	-8,830484556646190E-002	2,000000000000000E+000	3,1772324E-001	41	-2,7365561E-004
2	0	0	1	1	1,373599207981308E+004	3,0731249E+000	3,0729907E+000	-8,729349031380060E-002	2,000000000000000E+000	3,0630401E-001	41	-2,6825207E-004
2	0	0	1	1	1,386593947823977E+004	3,0471354E+000	3,0469837E+000	-8,605844787852179E-002	2,000000000000000E+000	2,9502913E-001	41	-2,6221870E-004
2	0	0	1	1	1,399588777666647E+004	3,0211456E+000	3,0210195E+000	-8,468611484283112E-002	2,000000000000000E+000	2,8392279E-001	41	-2,5583841E-004
2	0	0	1	1	1,412583457509318E+004	2,9951565E+000	2,9950469E+000	-8,329030395050618E-002	2,000000000000000E+000	2,7300429E-001	41	-2,4945836E-004
2	0	0	1	1	1,425578147351989E+004	2,9691668E+000	2,9690309E+000	-8,168540369408550E-002	2,000000000000000E+000	2,6227000E-001	41	-2,4252648E-004
2	0	0	1	1	1,438572977194656E+004	2,9431770E+000	2,9430523E+000	-8,008524893807489E-002	2,000000000000000E+000	2,5175235E-001	41	-2,3569507E-004
2	0	0	1	1	1,451567717037327E+004	2,9171877E+000	2,9170551E+000	-7,843543306180711E-002	2,000000000000000E+000	2,4144271E-001	41	-2,2880048E-004
2	0	0	1	1	1,464562406879999E+004	2,8911982E+000	2,8910694E+000	-7,663596180277077E-002	2,000000000000000E+000	2,3135661E-001	41	-2,2155988E-004
2	0	0	1	1	1,477557236722668E+004	2,8652081E+000	2,8650539E+000	-7,468775538179395E-002	2,000000000000000E+000	2,2151931E-001	41	-2,1398444E-004
2	0	0	1	1	1,490551976565341E+004	2,8392184E+000	2,8390384E+000	-7,283376903989644E-002	2,000000000000000E+000	2,1192467E-001	41	-2,0677787E-004
2	0	0	1	1	1,503546666408009E+004	2,8132288E+000	2,8130472E+000	-7,089026817091604E-002	2,000000000000000E+000	2,0257878E-001	41	-1,9941767E-004
2	0	0	1	1	1,514742476272459E+004	2,8090308E+000	2,8088467E+000	-6,261360122494786E-002	2,000000000000000E+000	1,9491574E-001	41	-1,7587200E-004
2	0	0	1	1	1,527737356115127E+004	2,8350203E+000	2,8348331E+000	-5,064497428216647E-002	2,000000000000000E+000	1,8762822E-001	41	-1,4357005E-004
2	0	0	1	1	1,540732155957795E+004	2,8610098E+000	2,8608217E+000	-4,192580945470487E-002	2,000000000000000E+000	1,8165451E-001	41	-1,1994227E-004
2	0	0	1	1	1,553726925800470E+004	2,8869994E+000	2,8867865E+000	-3,521866720090486E-002	2,000000000000000E+000	1,7666957E-001	41	-1,0166877E-004
2	0	0	1	1	1,566721795643136E+004	2,9129891E+000	2,9128001E+000	-2,975393182374442E-002	2,000000000000000E+000	1,7247055E-001	41	-8,6667256E-005
2	0	0	1	1	1,579716635485803E+004	2,9389787E+000	2,9387817E+000	-2,531391584473394E-002	2,000000000000000E+000	1,6891125E-001	41	-7,4392075E-005
2	0	0	1	1	1,592711425328474E+004	2,9649684E+000	2,9647288E+000	-2,155478445424858E-002	2,000000000000000E+000	1,6588198E-001	41	-6,3904088E-005
2	0	0	1	1	1,605706285171147E+004	2,9909577E+000	2,9907277E+000	-1,834020621401813E-002	2,000000000000000E+000	1,6330637E-001	41	-5,4850563E-005
2	0	0	1	1	1,618701115013810E+004	3,0169477E+000	3,0167191E+000	-1,556021135876023E-002	2,000000000000000E+000	1,6111887E-001	41	-4,6940786E-005
2	0	0	1	1	1,631695914856484E+004	3,0429373E+000	3,0426877E+000	-1,306507110566327E-002	2,000000000000000E+000	1,5927251E-001	41	-3,9752929E-005
2	0	0	1	1	1,644690724699153E+004	3,0689266E+000	3,0686955E+000	-1,089667312533521E-002	2,000000000000000E+000	1,5772742E-001	41	-3,3438573E-005
2	0	0	1	1	1,657685614541825E+004	3,0949163E+000	3,0947437E+000	-8,984427191515154E-003	2,000000000000000E+000	1,5644726E-001	41	-2,7804499E-005
2	0	0	1	1	1,670680414384487E+004	3,1209059E+000	3,1206827E+000	-7,290226951704559E-003	2,000000000000000E+000	1,5540132E-001	41	-2,2750486E-005
2	0	0	1	1	1,683675214227158E+004	3,1468954E+000	3,1466799E+000	-5,771769492751627E-003	2,000000000000000E+000	1,5456349E-001	41	-1,8161911E-005
2	0	0	1	1	1,696670044069836E+004	3,1728852E+000	3,1727259E+000	-4,418031354039908E-003	2,000000000000000E+000	1,5391304E-001	42	-1,4017202E-005
2	0	0	1	1	1,709664913912502E+004	3,1988747E+000	3,1987016E+000	-3,166970012445869E-003	2,000000000000000E+000	1,5343042E-001	42	-1,0130192E-005
2	0	0	1	1	1,722659713755164E+004	3,2248642E+000	3,2246616E+000	-2,042237800655995E-003	2,000000000000000E+000	1,5310119E-001	42	-6,5855256E-006
2	0	0	1	1	1,735654543597833E+004	3,2508540E+000	3,2506380E+000	-9,804724455760860E-004	2,000000000000000E+000	1,5291394E-001	42	-3,1871609E-006
2	1	0	1	1	1,748649403440503E+004	3,2768435E+000	3,2765911E+000	7,858122130111381E-005	2,000000000000000E+000	1,5286516E-001	44	2,5747852E-007
2	1	0	1	1	1,761644213283178E+004	3,3028333E+000	3,3025944E+000	1,194103432800991E-003	2,000000000000000E+000	1,5295671E-001	42	3,9436395E-006
2	1	0	1	1	1,774639033125842E+004	3,3288229E+000	3,3285584E+000	2,400134263001355E-003	2,000000000000000E+000	1,5319832E-001	42	7,9889869E-006
2	1	0	1	1	1,787633902968513E+004	3,3548121E+000	3,3545675E+000	3,790337434949442E-003	2,000000000000000E+000	1,5360779E-001	42	1,2714943E-005
2	1	0	1	1	1,800628702811179E+004	3,3808017E+000	3,3805301E+000	5,452908176674563E-003	2,000000000000000E+000	1,5421434E-001	42	1,8433720E-005
2	1	0	1	1	1,813623472653850E+004	3,4067914E+000	3,4065218E+000	7,597715415489287E-003	2,000000000000000E+000	1,5506586E-001	42	2,5881784E-005
2	1	0	1	1	1,826618332496518E+004	3,4327810E+000	3,4325502E+000	1,058159415770614E-002	2,000000000000000E+000	1,5624438E-001	41	3,6321853E-005
2	1	0	1	1	1,839613182339189E+004	3,4587708E+000	3,4585264E+000	1,538990472418977E-002	2,000000000000000E+000	1,5791316E-001	41	5,3226391E-005
2	1	0	1	1	1,852607972181856E+004	3,4847608E+000	3,4845300E+000	2,497120398249901E-002	2,000000000000000E+000	1,6047674E-001	41	8,7012908E-005
2	1	0	1	1	1,865602832024521E+004	3,5107503E+000	3,5104821E+000	3,955390968144840E-002	2,000000000000000E+000	1,6465321E-001	41	1,3885328E-004
2	1	0	1	1	1,878597661867194E+004	3,5367393E+000	3,5364439E+000	5,498540644515892E-002	2,000000000000000E+000	1,7081679E-001	41	1,9445280E-004
2	1	0	1	1	1,891592461709864E+004	3,5627289E+000	3,5624335E+000	6,978606611020255E-002	2,000000000000000E+000	1,7895128E-001	41	2,4860821E-004
2	1	0	1	1	1,904587331552533E+004	3,5887187E+000	3,5884104E+000	8,273441057881725E-002	2,000000000000000E+000	1,8890521E-001	41	2,9688503E-004
2	1	0	1	1	1,917582151395205E+004	3,6147082E+000	3,6144316E+000	9,245242926223206E-002	2,000000000000000E+000	2,0033360E-001	41	3,3416299E-004
2	1	0	1	1	1,930576961237871E+004	3,6406977E+000	3,6404083E+000	9,915304061010299E-002	2,000000000000000E+000	2,1283461E-001	41	3,6095755E-004
2	1	0	1	1	1,943571761080541E+004	3,6666870E+000	3,6664503E+000	1,026326517659328E-001	2,000000000000000E+000	2,2599602E-001	40	3,7629751E-004
2	1	0	1	1	1,956566590923209E+004	3,6926770E+000	3,6924667E+000	1,035475661360279E-001	2,000000000000000E+000	2,3942359E-001	40	3,8234596E-004
2	1	0	1	1	1,969561450765881E+004	3,7186668E+000	3,7184730E+000	1,027645394768170E-001	2,000000000000000E+000	2,5284931E-001	40	3,8212715E-004
2	1	0	1	1	1,982556260608546E+004	3,7446561E+000	3,7444344E+000	1,001710726325973E-001	2,000000000000000E+000	2,6605612E-001	40	3,7508400E-004
2	1	0	1	1	1,995551090451219E+004	3,7706456E+000	3,7704575E+000	9,703330150545830E-002	2,000000000000000E+000	2,7889425E-001	40	3,6585995E-004
2	1	0	1	1	2,008545950293884E+004	3,7966356E+000	3,7964380E+000	9,261005661596755E-002	2,000000000000000E+000	2,9123393E-001	40	3,5158833E-004
2	1	0	1	1	2,021540750136558E+004	3,8226249E+000	3,8224185E+000	8,763412445049856E-002	2,000000000000000E+000	3,0295917E-001	40	3,3497429E-004
2	1	0	1	1	2,034535579979225E+004	3,8486147E+000	3,8484111E+000	8,264355480750618E-002	2,000000000000000E+000	3,1403041E-001	40	3,1804637E-004
2	1	0	1	1	2,047530449821892E+004	3,8746042E+000	3,8744090E+000	7,777154447391854E-002	2,000000000000000E+000	3,2445771E-001	40	3,0131877E-004
2	1	0	1	1	2,060525249664561E+004	3,9005942E+000	3,9003944E+000	7,297626212400471E-002	2,000000000000000E+000	3,3425924E-001	40	2,8463622E-004
2	1	0	1	1	2,073520019507234E+004	3,9265835E+000	3,9264185E+000	6,817761960065338E-002	2,000000000000000E+000	3,4343722E-001	40	2,6769386E-004
2	1	0	1	1	2,086514879349901E+004	3,9525733E+000	3,9523716E+000	6,378353264937719E-002	2,000000000000000E+000	3,5202280E-001	40	2,5209622E-004
2	1	0	1	1	2,099509729192566E+004	3,9785626E+000	3,9783652E+000	5,976350396547980E-002	2,000000000000000E+000	3,6005947E-001	40	2,3776104E-004
2	1	0	1	1	2,112504569035233E+004	4,0045524E+000	4,0043511E+000	5,603263546321739E-002	2,000000000000000E+000	3,6758506E-001	40	2,2437435E-004
2	1	0	1	1	2,125499378877907E+004	4,0305414E+000	4,0303502E+000	5,240876504312630E-002	2,000000000000000E+000	3,7463525E-001	40	2,1122568E-004
2	1	0	1	1	2,138494258720579E+004	4,0565310E+000	4,0563159E+000	4,936336874162339E-002	2,000000000000000E+000	3,8124886E-001	40	2,0023342E-004
2	1	0	1	1	2,151489068563248E+004	4,0825200E+000	4,0823207E+000	4,636070891486528E-002	2,000000000000000E+000	3,8746509E-001	41	1,8925928E-004
2	1	0	1	1	2,164483988405913E+004	4,1085105E+000	4,1082950E+000	4,374532412162844E-002	2,000000000000000E+000	3,9332789E-001	41	1,7971870E-004
2	1	0	1	1	2,177478758248585E+004	4,1345000E+000	4,1342916E+000	4,147693671454089E-002	2,000000000000000E+000	3,9888218E-001	41	1,7147775E-004
2	1	0	1	1	2,190473568091250E+004	4,1604896E+000	4,1602936E+000	3,950212866213826E-002	2,000000000000000E+000	4,0414751E-001	41	1,6434045E-004
2	1	0	1	1	2,203468367933922E+004	4,1864791E+000	4,1863122E+000	3,784136043751918E-002	2,000000000000000E+000	4,0917835E-001	41	1,5841574E-004
2	1	0	1	1	2,216463137776591E+004	4,2124686E+000	4,2122469E+000	3,654223527031153E-002	2,000000000000000E+000	4,1402599E-001	41	1,5392492E-004
2	1	0	1	1	2,229458057619259E+004	4,2384582E+000	4,2382674E+000	3,555320689547825E-002	2,000000000000000E+000	4,1872495E-001	41	1,5068401E-004
2	1	0	1	1	2,242452867461933E+004	4,2644477E+000	4,2642779E+000	3,496469137779290E-002	2,000000000000000E+000	4,2331994E-001	41	1,4909916E-004
2	1	0	1	1	2,255447747304593E+004	4,2904382E+000	4,2902417E+000	3,479140993526979E-002	2,000000000000000E+000	4,2786515E-001	41	1,4926356E-004
2	1	0	1	0	2,266743127167842E+004	4,2868395E+000	4,2866302E+000	2,845689046636546E-002	3,000000000000000E+000	4,3150774E-001	41	1,2198417E-004
2	1	0	1	0	2,279738017010514E+004	4,2608495E+000	4,2606578E+000	2,286992156284928E-002	3,000000000000000E+000	4,3478379E-001	41	9,7440912E-005
2	1	0	1	0	2,292732576853188E+004	4,2348599E+000	4,2347012E+000	1,931546569872727E-002	3,000000000000000E+000	4,3749875E-001	41	8,1795224E-005
2	1	0	1	0	2,305727266695863E+004	4,2088699E+000	4,2087049E+000	1,661797010562202E-002	3,000000000000000E+000	4,3981898E-001	41	6,9940135E-005
2	1	0	1	0	2,318722026538523E+004	4,1828809E+000	4,1827312E+000	1,455085907301719E-002	3,000000000000000E+000	4,4183290E-001	41	6,0862330E-005
2	1	0	1	0	2,331716596381196E+004	4,1568913E+000	4,1567140E+000	1,284198450423937E-002	3,000000000000000E+000	4,4359660E-001	41	5,3380456E-005
2	1	0	1	0	2,344711166223869E+004	4,1309018E+000	4,1307559E+000	1,141454759735935E-002	3,000000000000000E+000	4,4515744E-001	41	4,7150708E-005
2	1	0	1	0	2,357705926066538E+004	4,1049123E+000	4,1047597E+000	1,019035711415961E-002	3,000000000000000E+000	4,4654691E-001	41	4,1828967E-005
2	1	0	1	0	2,370700615909207E+004	4,0789223E+000	4,0787501E+000	9,087593157259849E-003	3,000000000000000E+000	4,4778612E-001	41	3,7066020E-005
2	1	0	1	0	2,383695185751887E+004	4,0529323E+000	4,0527453E+000	8,116133692438118E-003	3,000000000000000E+000	4,4889054E-001	41	3,2892622E-005
2	1	0	1	0	2,396690065594550E+004	4,0269432E+000	4,0267930E+000	7,261180671110867E-003	3,000000000000000E+000	4,4987679E-001	41	2,9239272E-005
2	1	0	1	0	2,409684695437219E+004	4,0009537E+000	4,0007701E+000	6,524015788351517E-003	3,000000000000000E+000	4,5075968E-001	41	2,6101086E-005
2	1	0	1	0	2,422679385279899E+004	3,9749639E+000	3,9747612E+000	5,782840113391488E-003	3,000000000000000E+000	4,5154372E-001	41	2,2985409E-005
2	1	0	1	0	2,435674205122561E+004	3,9489746E+000	3,9488015E+000	5,331230391944445E-003	3,000000000000000E+000	4,5228139E-001	41	2,1051970E-005
2	1	0	1	0	2,448668954965231E+004	3,9229848E+000	3,9227550E+000	4,554401102940961E-003	3,000000000000000E+000	4,5290306E-001	42	1,7865799E-005
2	1	0	1	0	2,461663644807902E+004	3,8969955E+000	3,8967481E+000	4,039725417824949E-003	3,000000000000000E+000	4,5344871E-001	42	1,5741793E-005
2	1	0	1	0	2,474658404650571E+004	3,8710058E+000	3,8707862E+000	3,544099214946014E-003	3,000000000000000E+000	4,5392913E-001	42	1,3718451E-005
2	1	0	1	0	2,487653144493242E+004	3,8450160E+000	3,8447807E+000	3,090665363958446E-003	3,000000000000000E+000	4,5434925E-001	42	1,1882930E-005
2	1	0	1	0	2,500647934335913E+004	3,8190265E+000	3,8188348E+000	2,728947879814252E-003	3,000000000000000E+000	4,5471612E-001	42	1,0421401E-005
2	1	0	1	0	2,513642664178589E+004	3,7930369E+000	3,7928233E+000	2,310382762970423E-003	3,000000000000000E+000	4,5503056E-001	42	8,7628732E-006
2	1	0	1	0	2,526637404021254E+004	3,7670476E+000	3,7668524E+000	1,917757129012973E-003	3,000000000000000E+000	4,5529416E-001	42	7,2239081E-006
2	1	0	1	0	2,539632233863921E+004	3,7410576E+000	3,7408476E+000	1,548877918421226E-003	3,000000000000000E+000	4,5550865E-001	42	5,7941161E-006
2	1	0	1	0	2,552626923706592E+004	3,7150683E+000	3,7148914E+000	1,172142458523924E-003	3,000000000000000E+000	4,5567501E-001	42	4,3543819E-006
2	1	0	1	0	2,565621663549262E+004	3,6890790E+000	3,6888745E+000	8,036622295036498E-004	3,000000000000000E+000	4,5579326E-001	42	2,9646092E-006
2	1	0	1	0	2,578616493391932E+004	3,6630888E+000	3,6628323E+000	3,982352965162016E-004	3,000000000000000E+000	4,5586097E-001	43	1,4586691E-006
2	1	0	1	0	2,591611183234601E+004	3,6370990E+000	3,6369188E+000	5,453978092621778E-006	3,000000000000000E+000	4,5587534E-001	44	1,9835676E-008
2	0	0	1	0	2,604605863077272E+004	3,6111095E+000	3,6109791E+000	-5,189022407717028E-004	3,000000000000000E+000	4,5583326E-001	43	-1,8737452E-006
2	0	0	1	0	2,617600682919938E+004	3,5851204E+000	3,5849483E+000	-1,070115966651306E-003	3,000000000000000E+000	4,5572034E-001	42	-3,8363105E-006
2	0	0	1	0	2,630595432762615E+004	3,5591304E+000	3,5589356E+000	-1,716501320062553E-003	3,000000000000000E+000	4,5553043E-001	42	-6,1089177E-006
2	0	0	1	0	2,643590122605290E+004	3,5331411E+000	3,5329702E+000	-2,461121421110024E-003	3,000000000000000E+000	4,5525014E-001	42	-8,6950686E-006
2	0	0	1	0	2,656584942447951E+004	3,5071511E+000	3,5069978E+000	-3,399065907743403E-003	3,000000000000000E+000	4,5486170E-001	42	-1,1920517E-005
2	0	0	1	0	2,669579692290622E+004	3,4811616E+000	3,4810417E+000	-4,548319932771688E-003	3,000000000000000E+000	4,5433864E-001	42	-1,5832891E-005
2	0	0	1	0	2,682574382133293E+004	3,4551723E+000	3,4550433E+000	-6,138375910977763E-003	3,000000000000000E+000	4,5363912E-001	42	-2,1208354E-005
2	0	0	1	0	2,695569201975962E+004	3,4291825E+000	3,4290543E+000	-8,402932068286101E-003	3,000000000000000E+000	4,5269307E-001	42	-2,8814109E-005
2	0	0	1	0	2,708563951818633E+004	3,4031928E+000	3,4030085E+000	-1,205898875489886E-002	3,000000000000000E+000	4,5137334E-001	41	-4,1036841E-005
2	0	0	1	0	2,721558631661304E+004	3,3772032E+000	3,3770044E+000	-1,910536970790738E-002	3,000000000000000E+000	4,4939184E-001	41	-6,4518914E-005
2	0	0	1	0	2,734553401503980E+004	3,3512137E+000	3,3510106E+000	-3,168131056668642E-002	3,000000000000000E+000	4,4611919E-001	41	-1,0616441E-004
2	0	0	1	0	2,747548141346639E+004	3,3252244E+000	3,3250930E+000	-4,512617235076166E-002	3,000000000000000E+000	4,4110677E-001	41	-1,5004873E-004
2	0	0	1	0	2,760542931189312E+004	3,2992346E+000	3,2990742E+000	-5,729680222187805E-002	3,000000000000000E+000	4,3440726E-001	41	-1,8902640E-004
2	0	0	1	0	2,773537661031983E+004	3,2732451E+000	3,2730730E+000	-6,646995892554353E-002	3,000000000000000E+000	4,2632431E-001	41	-2,1756103E-004
2	0	0	1	0	2,786532400874652E+004	3,2472556E+000	3,2471108E+000	-7,283235461016480E-002	3,000000000000000E+000	4,1722432E-001	41	-2,3649473E-004
2	0	0	1	0	2,799527230717323E+004	3,2212656E+000	3,2211287E+000	-7,719867257166846E-002	3,000000000000000E+000	4,0744525E-001	41	-2,4866685E-004
2	0	0	1	0	2,812521920559995E+004	3,1952758E+000	3,1951222E+000	-7,990649630616153E-002	3,000000000000000E+000	3,9721590E-001	41	-2,5531102E-004
2	0	0	1	0	2,825516660402663E+004	3,1692863E+000	3,1691747E+000	-8,153021202293897E-002	3,000000000000000E+000	3,8670099E-001	41	-2,5838349E-004
2	0	0	1	0	2,838511480245332E+004	3,1432970E+000	3,1431851E+000	-8,237623920336690E-002	3,000000000000000E+000	3,7602761E-001	41	-2,5892377E-004
2	0	0	1	0	2,851506170088006E+004	3,1173072E+000	3,1171932E+000	-8,247653214806805E-002	3,000000000000000E+000	3,6530036E-001	41	-2,5709529E-004
2	0	0	1	0	2,864500859930681E+004	3,0913179E+000	3,0912049E+000	-8,206484645174883E-002	3,000000000000000E+000	3,5460535E-001	41	-2,5367926E-004
2	0	0	1	0	2,877495679773342E+004	3,0653284E+000	3,0652056E+000	-8,129712092357488E-002	3,000000000000000E+000	3,4397814E-001	41	-2,4919238E-004
2	0	0	1	0	2,890490429616014E+004	3,0393386E+000	3,0391908E+000	-8,046429599502944E-002	3,000000000000000E+000	3,3346096E-001	41	-2,4454633E-004
2	0	0	1	0	2,903485119458684E+004	3,0133491E+000	3,0132289E+000	-7,942283892970502E-002	3,000000000000000E+000	3,2307273E-001	41	-2,3931920E-004
2	0	0	1	0	2,916479939301353E+004	2,9873593E+000	2,9872165E+000	-7,825119211406761E-002	3,000000000000000E+000	3,1281930E-001	41	-2,3375325E-004
2	0	0	1	0	2,929474689144024E+004	2,9613700E+000	2,9612401E+000	-7,711245579275716E-002	3,000000000000000E+000	3,0271429E-001	41	-2,2834849E-004
2	0	0	1	0	2,942469368986695E+004	2,9353800E+000	2,9352434E+000	-7,587266081084587E-002	3,000000000000000E+000	2,9277030E-001	41	-2,2270472E-004
2	0	0	1	0	2,955464198829362E+004	2,9093907E+000	2,9092820E+000	-7,450507250065175E-002	3,000000000000000E+000	2,8299278E-001	41	-2,1675626E-004
2	0	0	1	0	2,968458938672033E+004	2,8834009E+000	2,8832603E+000	-7,296684973297740E-002	3,000000000000000E+000	2,7341691E-001	41	-2,1038242E-004
2	0	0	1	0	2,981453628514707E+004	2,8574111E+000	2,8572824E+000	-7,142696058352072E-002	3,000000000000000E+000	2,6403004E-001	41	-2,0408700E-004
2	0	0	1	0	2,994448398357374E+004	2,8314219E+000	2,8312643E+000	-6,978762268043115E-002	3,000000000000000E+000	2,5484452E-001	41	-1,9758720E-004
2	0	0	1	0	3,007443138200045E+004	2,8054321E+000	2,8052759E+000	-6,831497673467724E-002	3,000000000000000E+000	2,4586342E-001	41	-1,9164236E-004
2	0	0	1	0	3,018738958063279E+004	2,8170273E+000	2,8168960E+000	-5,743839841089704E-002	3,000000000000000E+000	2,3870572E-001	41	-1,6179799E-004
2	0	0	1	0	3,031733777905952E+004	2,8430169E+000	2,8428364E+000	-4,731152729380117E-002	3,000000000000000E+000	2,3194893E-001	41	-1,3449893E-004
2	0	0	1	0	3,044728587748623E+004	2,8690066E+000	2,8688321E+000	-3,971532386975771E-002	3,000000000000000E+000	2,2632018E-001	41	-1,1393660E-004
2	0	0	1	0	3,057723357591295E+004	2,8949962E+000	2,8948448E+000	-3,373510351514816E-002	3,000000000000000E+000	2,2156619E-001	41	-9,7657889E-005
2	0	0	1	0	3,070718217433960E+004	2,9209859E+000	2,9208081E+000	-2,877761443425293E-002	3,000000000000000E+000	2,1752584E-001	41	-8,4053885E-005
2	0	0	1	0	3,083713077276629E+004	2,9469755E+000	2,9467900E+000	-2,460229990531959E-002	3,000000000000000E+000	2,1407232E-001	41	-7,2497809E-005
2	0	0	1	0	3,096707847119300E+004	2,9729648E+000	2,9727759E+000	-2,110308358304025E-002	3,000000000000000E+000	2,1111438E-001	41	-6,2734740E-005
2	0	0	1	0	3,109702716961967E+004	2,9989548E+000	2,9987309E+000	-1,811168931774435E-002	3,000000000000000E+000	2,0857790E-001	41	-5,4312084E-005
2	0	0	1	0	3,122697576804640E+004	3,0249443E+000	3,0247204E+000	-1,548107503782184E-002	3,000000000000000E+000	2,0640662E-001	41	-4,6825924E-005
2	0	0	1	0	3,135692346647306E+004	3,0509336E+000	3,0507514E+000	-1,317665940751253E-002	3,000000000000000E+000	2,0455617E-001	41	-4,0198713E-005
2	0	0	1	0	3,148687206489977E+004	3,0769236E+000	3,0767126E+000	-1,110822781740139E-002	3,000000000000000E+000	2,0298910E-001	41	-3,4176825E-005
2	0	0	1	0	3,161682076332645E+004	3,1029136E+000	3,1027322E+000	-9,305751540204993E-003	3,000000000000000E+000	2,0167288E-001	41	-2,8873255E-005
2	0	0	1	0	3,174676836175320E+004	3,1289027E+000	3,1287222E+000	-7,689862251832089E-003	3,000000000000000E+000	2,0057796E-001	41	-2,4059442E-005
2	0	0	1	0	3,187671646017983E+004	3,1548922E+000	3,1546862E+000	-6,225176486283776E-003	3,000000000000000E+000	1,9968136E-001	41	-1,9638479E-005
2	0	0	1	0	3,200666515860660E+004	3,1808820E+000	3,1807170E+000	-4,907566516851980E-003	3,000000000000000E+000	1,9896567E-001	42	-1,5609579E-005
2	0	0	1	0	3,213661335703320E+004	3,2068715E+000	3,2067034E+000	-3,713280868354129E-003	3,000000000000000E+000	1,9841290E-001	42	-1,1907390E-005
2	0	0	1	0	3,226656135545997E+004	3,2328613E+000	3,2326641E+000	-2,583066380202996E-003	3,000000000000000E+000	1,9801199E-001	42	-8,3501864E-006
2	0	0	1	0	3,239650985388659E+004	3,2588508E+000	3,2586682E+000	-1,496330408811516E-003	3,000000000000000E+000	1,9775453E-001	42	-4,8760444E-006
2	0	0	1	0	3,252645835231332E+004	3,2848403E+000	3,2847002E+000	-4,132896992822987E-004	3,000000000000000E+000	1,9763863E-001	43	-1,3575327E-006
2	1	0	1	0	3,265640635073998E+004	3,3108299E+000	3,3105853E+000	7,272999405912835E-004	3,000000000000000E+000	1,9766498E-001	43	2,4077885E-006
2	1	0	1	0	3,278635464942321E+004	3,3368194E+000	3,3365648E+000	2,018093464473486E-003	3,000000000000000E+000	1,9785015E-001	42	6,7334995E-006
2	1	0	1	0	3,291630324966519E+004	3,3628094E+000	3,3625846E+000	3,464347220931934E-003	3,000000000000000E+000	1,9821136E-001	42	1,1649161E-005
2	1	0	1	0	3,304625134990737E+004	3,3887985E+000	3,3885531E+000	5,197107044576738E-003	3,000000000000000E+000	1,9877727E-001	42	1,7610673E-005
2	1	0	1	0	3,317619895014929E+004	3,4147880E+000	3,4145164E+000	7,408379052356306E-003	3,000000000000000E+000	1,9959809E-001	42	2,5296033E-005
2	1	0	1	0	3,330614765039139E+004	3,4407775E+000	3,4405639E+000	1,054252560364355E-002	3,000000000000000E+000	2,0075916E-001	41	3,6272235E-005
2	1	0	1	0	3,343609625063336E+004	3,4667678E+000	3,4665546E+000	1,559435901867295E-002	3,000000000000000E+000	2,0243403E-001	41	5,4058699E-005
2	1	0	1	0	3,356604395087552E+004	3,4927571E+000	3,4925325E+000	2,490827136319806E-002	3,000000000000000E+000	2,0502235E-001	41	8,6992950E-005
2	1	0	1	0	3,369599255111767E+004	3,5187471E+000	3,5184929E+000	3,769910424374323E-002	3,000000000000000E+000	2,0908295E-001	41	1,3264403E-004
2	1	0	1	0	3,382594125135953E+004	3,5447366E+000	3,5444949E+000	5,125885956557752E-002	3,000000000000000E+000	2,1486987E-001	41	1,8168676E-004
2	1	0	1	0	3,395588895160158E+004	3,5707257E+000	3,5704310E+000	6,438547409209769E-002	3,000000000000000E+000	2,2240156E-001	41	2,2988390E-004
2	1	0	1	0	3,408583755184384E+004	3,5967157E+000	3,5964272E+000	7,607715304950791E-002	3,000000000000000E+000	2,3156445E-001	41	2,7360595E-004
2	1	0	1	0	3,421578615208576E+004	3,6227050E+000	3,6224406E+000	8,515490105538204E-002	3,000000000000000E+000	2,4206387E-001	41	3,0846856E-004
2	1	0	1	0	3,434573385232774E+004	3,6486948E+000	3,6484051E+000	9,153170635050922E-002	3,000000000000000E+000	2,5358021E-001	41	3,3394474E-004
2	1	0	1	0	3,447568195256975E+004	3,6746843E+000	3,6744041E+000	9,514820321063677E-002	3,000000000000000E+000	2,6575097E-001	41	3,4961296E-004
2	1	0	1	0	3,460563055281201E+004	3,7006736E+000	3,7004082E+000	9,647805976769049E-002	3,000000000000000E+000	2,7824003E-001	41	3,5700822E-004
2	1	0	1	0	3,473557885305397E+004	3,7266636E+000	3,7263849E+000	9,560966592171938E-002	3,000000000000000E+000	2,9074746E-001	41	3,5627841E-004
2	1	0	1	0	3,486552685329592E+004	3,7526531E+000	3,7523808E+000	9,358614469391724E-002	3,000000000000000E+000	3,0306324E-001	41	3,5117086E-004
2	1	0	1	0	3,499547535353794E+004	3,7786422E+000	3,7783906E+000	9,018455670164838E-002	3,000000000000000E+000	3,1501618E-001	41	3,4075248E-004
2	1	0	1	0	3,512542375378008E+004	3,8046319E+000	3,8043551E+000	8,602235200871600E-002	3,000000000000000E+000	3,2647321E-001	41	3,2725956E-004
2	1	0	1	0	3,525537185402215E+004	3,8306215E+000	3,8303514E+000	8,169223926903024E-002	3,000000000000000E+000	3,3737996E-001	41	3,1290998E-004
2	1	0	1	0	3,538532015426410E+004	3,8566117E+000	3,8563411E+000	7,724046716888501E-002	3,000000000000000E+000	3,4772277E-001	41	2,9786560E-004
2	1	0	1	0	3,551526875450613E+004	3,8826013E+000	3,8823333E+000	7,268236160729136E-002	3,000000000000000E+000	3,5746911E-001	41	2,8217715E-004
2	1	0	1	0	3,564521675474825E+004	3,9085908E+000	3,9083207E+000	6,822081529798352E-002	3,000000000000000E+000	3,6663181E-001	41	2,6662883E-004
2	1	0	1	0	3,577516445499030E+004	3,9345803E+000	3,9343412E+000	6,383664297039449E-002	3,000000000000000E+000	3,7521669E-001	41	2,5115514E-004
2	1	0	1	0	3,590511315523228E+004	3,9605701E+000	3,9603364E+000	5,965397349759716E-002	3,000000000000000E+000	3,8325346E-001	41	2,3624981E-004
2	1	0	1	0	3,603506175547442E+004	3,9865594E+000	3,9863579E+000	5,579125650854455E-002	3,000000000000000E+000	3,9076683E-001	41	2,2240392E-004
2	1	0	1	0	3,616501005571650E+004	4,0125484E+000	4,0123444E+000	5,212561295975815E-002	3,000000000000000E+000	3,9778787E-001	41	2,0914590E-004
2	1	0	1	0	3,629495925595844E+004	4,0385380E+000	4,0383391E+000	4,872454865437537E-002	3,000000000000000E+000	4,0435115E-001	41	1,9676625E-004
2	1	0	1	0	3,642490735620074E+004	4,0645280E+000	4,0643201E+000	4,550106725234171E-002	3,000000000000000E+000	4,1047934E-001	41	1,8493090E-004
2	1	0	1	0	3,655485495644261E+004	4,0905180E+000	4,0903239E+000	4,262772179804919E-002	3,000000000000000E+000	4,1621193E-001	41	1,7436119E-004
2	1	0	1	0	3,668480305668456E+004	4,1165071E+000	4,1163340E+000	4,002565643466838E-002	3,000000000000000E+000	4,2159760E-001	41	1,6475897E-004
2	1	0	1	0	3,681475225692661E+004	4,1424966E+000	4,1423397E+000	3,751273848961488E-002	3,000000000000000E+000	4,2663914E-001	41	1,5539050E-004
2	1	0	1	0	3,694469995716872E+004	4,1684861E+000	4,1682777E+000	3,539901589063245E-002	3,000000000000000E+000	4,3138126E-001	41	1,4755293E-004
2	1	0	1	0	3,707464795741075E+004	4,1944757E+000	4,1942844E+000	3,363673143170298E-002	3,000000000000000E+000	4,3587306E-001	41	1,4108203E-004
2	1	0	1	0	3,720459725765279E+004	4,2204657E+000	4,2202821E+000	3,217397168412273E-002	3,000000000000000E+000	4,4015533E-001	41	1,3578324E-004
2	1	0	1	0	3,733454495789483E+004	4,2464552E+000	4,2462816E+000	3,109108053844067E-002	3,000000000000000E+000	4,4426927E-001	41	1,3202148E-004
2	1	0	1	0	3,746449295813683E+004	4,2724452E+000	4,2722869E+000	3,034899293499049E-002	3,000000000000000E+000	4,4826767E-001	41	1,2965960E-004
2	1	0	1	0	3,759444085837895E+004	4,2984347E+000	4,2982807E+000	3,017285466462389E-002	3,000000000000000E+000	4,5220551E-001	41	1,2969140E-004
2	1	0	1	1	3,770739695858932E+004	4,2788420E+000	4,2786851E+000	2,221622077317936E-002	3,000000000000000E+000	4,5504194E-001	41	9,5056210E-005
2	1	0	1	1	3,783734255883144E+004	4,2528524E+000	4,2526879E+000	1,815482296144377E-002	3,000000000000000E+000	4,5763424E-001	41	7,7206794E-005
2	1	0	1	1	3,796729025907349E+004	4,2268624E+000	4,2267041E+000	1,530332784650273E-002	3,000000000000000E+000	4,5978934E-001	41	6,4682637E-005
2	1	0	1	1	3,809723595931567E+004	4,2008739E+000	4,2007289E+000	1,314443502128690E-002	3,000000000000000E+000	4,6162164E-001	41	5,5216209E-005
2	1	0	1	1	3,822718275955750E+004	4,1748834E+000	4,1747594E+000	1,138987264635638E-002	3,000000000000000E+000	4,6320054E-001	41	4,7549976E-005
2	1	0	1	1	3,835713045979943E+004	4,1488938E+000	4,1487689E+000	9,905066085234587E-003	3,000000000000000E+000	4,6456900E-001	41	4,1093830E-005
2	1	0	1	1	3,848707606004179E+004	4,1229048E+000	4,1227632E+000	8,655452115431450E-003	3,000000000000000E+000	4,6576300E-001	41	3,5684378E-005
2	1	0	1	1	3,861702296028368E+004	4,0969152E+000	4,0967503E+000	7,574580517426210E-003	3,000000000000000E+000	4,6680653E-001	41	3,1031166E-005
2	1	0	1	1	3,874697056052578E+004	4,0709257E+000	4,0707593E+000	6,632763156506419E-003	3,000000000000000E+000	4,6771762E-001	41	2,7000382E-005
2	1	0	1	1	3,887691626076773E+004	4,0449362E+000	4,0447412E+000	5,802820790287148E-003	3,000000000000000E+000	4,6851328E-001	41	2,3470908E-005
2	1	0	1	1	3,900686296100976E+004	4,0189457E+000	4,0187411E+000	5,034544559198880E-003	3,000000000000000E+000	4,6920672E-001	41	2,0232532E-005
2	1	0	1	1	3,913681136125186E+004	3,9929569E+000	3,9927547E+000	4,389309442227263E-003	3,000000000000000E+000	4,6980748E-001	42	1,7525435E-005
2	1	0	1	1	3,926675826149387E+004	3,9669671E+000	3,9667678E+000	3,768694518895332E-003	3,000000000000000E+000	4,7032580E-001	42	1,4949536E-005
2	1	0	1	1	3,939670656173595E+004	3,9409781E+000	3,9407690E+000	3,232438329410559E-003	3,000000000000000E+000	4,7077015E-001	42	1,2738293E-005
2	1	0	1	1	3,952665396197792E+004	3,9149880E+000	3,9148283E+000	2,755713831764477E-003	3,000000000000000E+000	4,7114903E-001	42	1,0788147E-005
2	1	0	1	1	3,965660086222005E+004	3,8889983E+000	3,8888001E+000	2,315996777301356E-003	3,000000000000000E+000	4,7146869E-001	42	9,0064486E-006
2	1	0	1	1	3,978654856246198E+004	3,8630087E+000	3,8627810E+000	1,917701492047029E-003	3,000000000000000E+000	4,7173479E-001	42	7,4076611E-006
2	1	0	1	1	3,991649596270407E+004	3,8370194E+000	3,8368444E+000	1,569422076441856E-003	3,000000000000000E+000	4,7195247E-001	42	6,0216285E-006
2	1	0	1	1	4,004644336294616E+004	3,8110294E+000	3,8108294E+000	1,240268826958540E-003	3,000000000000000E+000	4,7212559E-001	42	4,7264530E-006
2	1	0	1	1	4,017639106318820E+004	3,7850399E+000	3,7848532E+000	9,581820112672407E-004	3,000000000000000E+000	4,7225922E-001	42	3,6265783E-006
2	1	0	1	1	4,030633856343024E+004	3,7590506E+000	3,7588475E+000	6,816502096960338E-004	3,000000000000000E+000	4,7235680E-001	42	2,5622192E-006
2	1	0	1	1	4,043628596367221E+004	3,7330606E+000	3,7328267E+000	4,234547629308047E-004	3,000000000000000E+000	4,7241971E-001	43	1,5806833E-006
2	1	0	1	1	4,056623366391438E+004	3,7070715E+000	3,7068582E+000	1,454747626616019E-004	3,000000000000000E+000	4,7244841E-001	43	5,3925430E-007
2	0	0	1	1	4,069718066415843E+004	3,6808817E+000	3,6807232E+000	-1,501337198411496E-004	3,000000000000000E+000	4,7244075E-001	43	-5,5260068E-007
2	0	0	1	1	4,082712756440032E+004	3,6548922E+000	3,6547248E+000	-4,838180890378402E-004	3,000000000000000E+000	4,7239271E-001	43	-1,7682220E-006
2	0	0	1	1	4,095707576464233E+004	3,6289027E+000	3,6287069E+000	-8,411148925951129E-004	3,000000000000000E+000	4,7229958E-001	42	-3,0521594E-006
2	0	0	1	1	4,108702326488437E+004	3,6029129E+000	3,6027260E+000	-1,257026080271203E-003	3,000000000000000E+000	4,7215554E-001	42	-4,5287206E-006
2	0	0	1	1	4,121697016512649E+004	3,5769234E+000	3,5767343E+000	-1,739704024355096E-003	3,000000000000000E+000	4,7195306E-001	42	-6,2224590E-006
2	0	0	1	1	4,134691836536862E+004	3,5509341E+000	3,5507326E+000	-2,319801204714762E-003	3,000000000000000E+000	4,7168142E-001	42	-8,2369934E-006
2	0	0	1	1	4,147686586561054E+004	3,5249441E+000	3,5248055E+000	-3,012790481990595E-003	3,000000000000000E+000	4,7132775E-001	42	-1,0619500E-005
2	0	0	1	1	4,160681316585257E+004	3,4989545E+000	3,4987929E+000	-3,884668165138147E-003	3,000000000000000E+000	4,7087353E-001	42	-1,3591649E-005
2	0	0	1	1	4,173676036609465E+004	3,4729650E+000	3,4727921E+000	-5,024957659120144E-003	3,000000000000000E+000	4,7028911E-001	42	-1,7450633E-005
2	0	0	1	1	4,186670836633677E+004	3,4469752E+000	3,4468262E+000	-6,573290632770276E-003	3,000000000000000E+000	4,6953171E-001	42	-2,2656990E-005
2	0	0	1	1	4,199665606657870E+004	3,4209857E+000	3,4208601E+000	-8,893558228514009E-003	3,000000000000000E+000	4,6852842E-001	42	-3,0423618E-005
2	0	0	1	1	4,212660296682082E+004	3,3949962E+000	3,3947873E+000	-1,277231585634900E-002	3,000000000000000E+000	4,6713433E-001	41	-4,3359294E-005
2	0	0	1	1	4,225655036706285E+004	3,3690069E+000	3,3688214E+000	-2,043192422509502E-002	3,000000000000000E+000	4,6502158E-001	41	-6,8831505E-005
2	0	0	1	1	4,238649866730487E+004	3,3430169E+000	3,3428292E+000	-3,219706429472080E-002	3,000000000000000E+000	4,6160862E-001	41	-1,0762929E-004
2	0	0	1	1	4,251644556754694E+004	3,3170273E+000	3,3168433E+000	-4,432162729160460E-002	3,000000000000000E+000	4,5661899E-001	41	-1,4700789E-004
2	0	0	1	1	4,264639296778897E+004	3,2910378E+000	3,2909107E+000	-5,495250278024638E-002	3,000000000000000E+000	4,5013964E-001	41	-1,8084378E-004
2	0	0	1	1	4,277634126803093E+004	3,2650480E+000	3,2649095E+000	-6,328692088251175E-002	3,000000000000000E+000	4,4242254E-001	41	-2,0662606E-004
2	0	0	1	1	4,290628806827299E+004	3,2390585E+000	3,2388942E+000	-6,929422281074260E-002	3,000000000000000E+000	4,3377888E-001	41	-2,2443666E-004
2	0	0	1	1	4,303623496851511E+004	3,2130687E+000	3,2129252E+000	-7,349716335359768E-002	3,000000000000000E+000	4,2447275E-001	41	-2,3614088E-004
2	0	0	1	1	4,316618376875710E+004	3,1870792E+000	3,1869383E+000	-7,620396420731476E-002	3,000000000000000E+000	4,1473538E-001	41	-2,4285734E-004
2	0	0	1	1	4,329613066899916E+004	3,1610897E+000	3,1609516E+000	-7,778482009917664E-002	3,000000000000000E+000	4,0471676E-001	41	-2,4587405E-004
2	0	0	1	1	4,342607756924123E+004	3,1351001E+000	3,1350005E+000	-7,879306987830403E-002	3,000000000000000E+000	3,9453453E-001	41	-2,4701632E-004
2	0	0	1	1	4,355602576948330E+004	3,1091108E+000	3,1090033E+000	-7,893873167309129E-002	3,000000000000000E+000	3,8427490E-001	41	-2,4542079E-004
2	0	0	1	1	4,368597326972522E+004	3,0831211E+000	3,0829980E+000	-7,882641255979547E-002	3,000000000000000E+000	3,7400955E-001	41	-2,4302167E-004
2	0	0	1	1	4,381592016996734E+004	3,0571315E+000	3,0570321E+000	-7,826042841553610E-002	3,000000000000000E+000	3,6379167E-001	41	-2,3924465E-004
2	0	0	1	1	4,394586837020935E+004	3,0311418E+000	3,0310056E+000	-7,744396342234627E-002	3,000000000000000E+000	3,5366681E-001	41	-2,3473309E-004
2	0	0	1	1	4,407581577045150E+004	3,0051522E+000	3,0050104E+000	-7,670180980194141E-002	3,000000000000000E+000	3,4365565E-001	41	-2,3048974E-004
2	0	0	1	1	4,420576307069347E+004	2,9791627E+000	2,9790559E+000	-7,553318350460536E-002	3,000000000000000E+000	3,3377498E-001	41	-2,2501757E-004
2	0	0	1	1	4,433571097093553E+004	2,9531729E+000	2,9530325E+000	-7,426576908598503E-002	3,000000000000000E+000	3,2403600E-001	41	-2,1930922E-004
2	0	0	1	1	4,446565837117762E+004	2,9271829E+000	2,9270244E+000	-7,309489041974221E-002	3,000000000000000E+000	3,1446022E-001	41	-2,1395052E-004
2	0	0	1	1	4,459560607141955E+004	2,9011939E+000	2,9010689E+000	-7,182746367872857E-002	3,000000000000000E+000	3,0504882E-001	41	-2,0837643E-004
2	0	0	1	1	4,472555297166167E+004	2,8752041E+000	2,8750758E+000	-7,047107847942555E-002	3,000000000000000E+000	2,9579526E-001	41	-2,0260969E-004
2	0	0	1	1	4,485550037190365E+004	2,8492148E+000	2,8490524E+000	-6,933484656778521E-002	3,000000000000000E+000	2,8671342E-001	41	-1,9753861E-004
2	0	0	1	1	4,498544867214578E+004	2,8232248E+000	2,8230746E+000	-6,768020789479889E-002	3,000000000000000E+000	2,7780464E-001	41	-1,9106627E-004
2	0	0	1	1	4,511539547238778E+004	2,7972355E+000	2,7971060E+000	-6,639121887828758E-002	3,000000000000000E+000	2,6908001E-001	41	-1,8570328E-004
2	0	0	0	1	4,520313917255122E+004	2,7795434E+000	2,7794337E+000	-6,546068919433964E-002	3,000000000000000E+000	2,6329145E-001	41	-1,8194364E-004