File: Dati/201009/CV_CNTmultiwalled_1_4_12layer_02_CV_C03.mpt
EC-Lab ASCII FILE
Nb header lines : 57

Cyclic Voltammetry

Run on channel : 3 (SN 6807)
User :
Electrode connection : standard
Ewe ctrl range : min = -5,00 V, max = 5,00 V
Ewe,I filtering : 50 kHz
Safety Limits :
	Do not start on E overload
Channel : Grounded
Acquisition started on : 10/09/2020 18:33:11
Saved on :
	File : CV_CNTmultiwalled_1_4_12layer_02_CV_C03.mpr
	Directory : C:\Users\labsuperfici\Desktop\Biologic\Users\Prisca Viviani\201009\
	Host : 10.78.33.0
Device : VSP-300 (SN 0638)
Address : USB
EC-Lab for windows v11.31 (software)
Internet server v11.30 (firmware)
Command interpretor v11.31 (firmware)
Electrode material :
Initial state :
Electrolyte :
Comments :
Cable : standard
Reference electrode : SCE Saturated Calomel Electrode (0,241 V)
Electrode surface area : 0,001 cm²
Characteristic mass : 0,001 g
Equivalent Weight : 0,000 g/eq.
Density : 0,000 g/cm3
Cycle Definition : Charge/Discharge alternance
Ei (V)              0,000
vs.                 Eoc
dE/dt               0,500
dE/dt unit          mV/s
E1 (V)              2,800
vs.                 Ref
Step percent        50
N                   10
E range min (V)     -5,000
E range max (V)     5,000
I Range             Auto
I Range min         Unset
I Range max         Unset
I Range init        Unset
Bandwidth           8
E2 (V)              4,300
vs.                 Ref
nc cycles           2
Reverse Scan        1
Ef (V)              0,000
vs.                 Eoc

mode	ox/red	error	control changes	counter inc.	time/s	control/V	Ewe/V	<I>/mA	cycle number	(Q-Qo)/C	I Range	P/W
2	0	0	1	0	4,520363917255215E+004	2,7795434E+000	2,7794564E+000	-6,686145812273026E-002	1,000000000000000E+000	0,0000000E+000	41	-1,8583851E-004
2	0	0	1	0	4,524662327263225E+004	2,8010340E+000	2,8009353E+000	-5,524561799904693E-002	1,000000000000000E+000	-2,5570239E-003	41	-1,5473941E-004
2	0	0	1	0	4,529860287272907E+004	2,8270237E+000	2,8268988E+000	-4,767266965733047E-002	1,000000000000000E+000	-5,2211406E-003	41	-1,3476581E-004
2	0	0	1	0	4,535058187282586E+004	2,8530133E+000	2,8529000E+000	-4,158468567396584E-002	1,000000000000000E+000	-7,5328504E-003	41	-1,1863695E-004
2	0	0	1	0	4,540256117292272E+004	2,8790028E+000	2,8788562E+000	-3,630946171244795E-002	1,000000000000000E+000	-9,5499996E-003	41	-1,0452972E-004
2	0	0	1	0	4,545454067301960E+004	2,9049921E+000	2,9048746E+000	-3,177635377316743E-002	1,000000000000000E+000	-1,1314616E-002	41	-9,2306320E-005
2	0	0	1	0	4,550651997311634E+004	2,9309821E+000	2,9308844E+000	-2,784161190606071E-002	1,000000000000000E+000	-1,2859711E-002	41	-8,1600541E-005
2	0	0	1	0	4,555849897321314E+004	2,9569719E+000	2,9568624E+000	-2,425392559636236E-002	1,000000000000000E+000	-1,4208889E-002	41	-7,1715520E-005
2	0	0	1	0	4,561047867331002E+004	2,9829609E+000	2,9828563E+000	-2,109891476214842E-002	1,000000000000000E+000	-1,5384007E-002	41	-6,2935032E-005
2	0	0	1	0	4,566245797340688E+004	3,0089512E+000	3,0088370E+000	-1,817769735660112E-002	1,000000000000000E+000	-1,6400218E-002	41	-5,4693730E-005
2	0	0	1	0	4,571443707350362E+004	3,0349400E+000	3,0348017E+000	-1,550878072136641E-002	1,000000000000000E+000	-1,7272167E-002	41	-4,7066074E-005
2	0	0	1	0	4,576641617360036E+004	3,0609300E+000	3,0607970E+000	-1,309382621407325E-002	1,000000000000000E+000	-1,8010853E-002	41	-4,0077543E-005
2	0	0	1	0	4,581839607369713E+004	3,0869193E+000	3,0868149E+000	-1,078249315141099E-002	1,000000000000000E+000	-1,8627530E-002	41	-3,3283559E-005
2	0	0	1	0	4,587037517379405E+004	3,1129093E+000	3,1127856E+000	-8,706578477403470E-003	1,000000000000000E+000	-1,9130001E-002	41	-2,7101712E-005
2	0	0	1	0	4,592235417389090E+004	3,1388986E+000	3,1387763E+000	-6,754167713901860E-003	1,000000000000000E+000	-1,9528087E-002	41	-2,1199821E-005
2	0	0	1	0	4,597433347398764E+004	3,1648884E+000	3,1648433E+000	-4,929178495810524E-003	1,000000000000000E+000	-1,9828506E-002	41	-1,5600077E-005
2	0	0	1	0	4,602631317408453E+004	3,1908777E+000	3,1907835E+000	-3,253229086743664E-003	1,000000000000000E+000	-2,0038001E-002	42	-1,0380350E-005
2	0	0	1	0	4,607829227418132E+004	3,2168674E+000	3,2167976E+000	-1,641833671963357E-003	1,000000000000000E+000	-2,0161875E-002	42	-5,2814466E-006
2	0	0	1	0	4,613027157427825E+004	3,2428572E+000	3,2427993E+000	-9,082596916897402E-005	1,000000000000000E+000	-2,0203648E-002	43	-2,9453039E-007
2	1	0	1	0	4,618225087437499E+004	3,2688468E+000	3,2687347E+000	1,450641604222293E-003	1,000000000000000E+000	-2,0165671E-002	42	4,7417625E-006
2	1	0	1	0	4,623423027447180E+004	3,2948365E+000	3,2947180E+000	2,998809291466956E-003	1,000000000000000E+000	-2,0047063E-002	42	9,8802311E-006
2	1	0	1	0	4,628620937456866E+004	3,3208258E+000	3,3207011E+000	4,634274925763834E-003	1,000000000000000E+000	-1,9845791E-002	42	1,5389041E-005
2	1	0	1	0	4,633818897466548E+004	3,3468158E+000	3,3466504E+000	6,440167294068664E-003	1,000000000000000E+000	-1,9555507E-002	42	2,1552989E-005
2	1	0	1	0	4,639016797476221E+004	3,3728049E+000	3,3726327E+000	8,516673206137609E-003	1,000000000000000E+000	-1,9165145E-002	42	2,8723611E-005
2	1	0	1	0	4,644214747485914E+004	3,3987947E+000	3,3986983E+000	1,099674340191245E-002	1,000000000000000E+000	-1,8657196E-002	41	3,7374615E-005
2	1	0	1	0	4,649412667495594E+004	3,4247842E+000	3,4246869E+000	1,403207849923224E-002	1,000000000000000E+000	-1,8006809E-002	41	4,8055477E-005
2	1	0	1	0	4,654610607505264E+004	3,4507740E+000	3,4506767E+000	1,803172242412487E-002	1,000000000000000E+000	-1,7175835E-002	41	6,2221647E-005
2	1	0	1	0	4,659808507514955E+004	3,4767635E+000	3,4766707E+000	2,367283769479264E-002	1,000000000000000E+000	-1,6099136E-002	41	8,2302664E-005
2	1	0	1	0	4,665006487524637E+004	3,5027530E+000	3,5026269E+000	3,251540568427430E-002	1,000000000000000E+000	-1,4651256E-002	41	1,1388933E-004
2	1	0	1	0	4,670204407534329E+004	3,5287428E+000	3,5286214E+000	4,475750777624469E-002	1,000000000000000E+000	-1,2649099E-002	41	1,5793230E-004
2	1	0	1	0	4,675402317543997E+004	3,5547323E+000	3,5546072E+000	5,869436889296842E-002	1,000000000000000E+000	-9,9584498E-003	41	2,0863542E-004
2	1	0	1	0	4,680600267553679E+004	3,5807219E+000	3,5805833E+000	7,340806529195421E-002	1,000000000000000E+000	-6,5205302E-003	41	2,6284371E-004
2	1	0	1	0	4,685798217563354E+004	3,6067116E+000	3,6065435E+000	8,816534358857187E-002	1,000000000000000E+000	-2,3149846E-003	41	3,1797215E-004
2	1	0	1	0	4,690996127573046E+004	3,6327014E+000	3,6325788E+000	1,021479627408173E-001	1,000000000000000E+000	2,6376944E-003	41	3,7106054E-004
2	1	0	1	0	4,696194027582731E+004	3,6586907E+000	3,6586034E+000	1,148456750922346E-001	1,000000000000000E+000	8,2876533E-003	40	4,2017479E-004
2	1	0	1	0	4,701392007592414E+004	3,6846802E+000	3,6846082E+000	1,261547648800456E-001	1,000000000000000E+000	1,4561323E-002	40	4,6483090E-004
2	1	0	1	0	4,706589927602094E+004	3,7106702E+000	3,7106252E+000	1,358636602802776E-001	1,000000000000000E+000	2,1383753E-002	40	5,0413911E-004
2	1	0	1	0	4,711787837611779E+004	3,7366595E+000	3,7365661E+000	1,439022783999877E-001	1,000000000000000E+000	2,8665643E-002	40	5,3770037E-004
2	1	0	1	0	4,716985767621465E+004	3,7626491E+000	3,7625697E+000	1,499984674858541E-001	1,000000000000000E+000	3,6320977E-002	40	5,6437968E-004
2	1	0	1	0	4,722183737631142E+004	3,7886388E+000	3,7885702E+000	1,546517515471488E-001	1,000000000000000E+000	4,4253316E-002	40	5,8590900E-004
2	1	0	1	0	4,727381647640816E+004	3,8146284E+000	3,8145459E+000	1,573522238679929E-001	1,000000000000000E+000	5,2368604E-002	40	6,0022727E-004
2	1	0	1	0	4,732579567650508E+004	3,8406177E+000	3,8405192E+000	1,578363530515268E-001	1,000000000000000E+000	6,0568240E-002	40	6,0617353E-004
2	1	0	1	0	4,737777507660165E+004	3,8666077E+000	3,8665268E+000	1,569933909520670E-001	1,000000000000000E+000	6,8750769E-002	40	6,0701917E-004
2	1	0	1	0	4,742975447669858E+004	3,8925972E+000	3,8925180E+000	1,545968337447108E-001	1,000000000000000E+000	7,6850295E-002	40	6,0177094E-004
2	1	0	1	0	4,748173357679549E+004	3,9185870E+000	3,9185052E+000	1,510492705380762E-001	1,000000000000000E+000	8,4803149E-002	40	5,9188734E-004
2	1	0	1	0	4,753371287689242E+004	3,9445765E+000	3,9445033E+000	1,466705673150202E-001	1,000000000000000E+000	9,2552811E-002	40	5,7854253E-004
2	1	0	1	0	4,758569217698905E+004	3,9705663E+000	3,9705522E+000	1,418495786683626E-001	1,000000000000000E+000	1,0005152E-001	40	5,6322117E-004
2	1	0	1	0	4,763767167708592E+004	3,9965558E+000	3,9965003E+000	1,366246817553520E-001	1,000000000000000E+000	1,0729419E-001	40	5,4602057E-004
2	1	0	1	0	4,768965147718269E+004	4,0225449E+000	4,0225101E+000	1,312341255955923E-001	1,000000000000000E+000	1,1425847E-001	40	5,2789057E-004
2	1	0	1	0	4,774163047727966E+004	4,0485344E+000	4,0484633E+000	1,255364402066385E-001	1,000000000000000E+000	1,2093711E-001	40	5,0822966E-004
2	1	0	1	0	4,779360947737633E+004	4,0745239E+000	4,0744643E+000	1,204205693184078E-001	1,000000000000000E+000	1,2733056E-001	40	4,9064931E-004
2	1	0	1	0	4,784558907747327E+004	4,1005139E+000	4,1004744E+000	1,151288397697556E-001	1,000000000000000E+000	1,3345350E-001	40	4,7208284E-004
2	1	0	1	0	4,789756857757003E+004	4,1265035E+000	4,1264734E+000	1,101982189944097E-001	1,000000000000000E+000	1,3931055E-001	40	4,5473003E-004
2	1	0	1	0	4,794954757766688E+004	4,1524930E+000	4,1524253E+000	1,051526404368026E-001	1,000000000000000E+000	1,4491378E-001	40	4,3663848E-004
2	1	0	1	0	4,800152687776365E+004	4,1784825E+000	4,1784420E+000	1,007181890926965E-001	1,000000000000000E+000	1,5027176E-001	40	4,2084511E-004
2	1	0	1	0	4,805350667786051E+004	4,2044721E+000	4,2043471E+000	9,646621638538755E-002	1,000000000000000E+000	1,5540023E-001	40	4,0557745E-004
2	1	0	1	0	4,810548567795730E+004	4,2304621E+000	4,2303309E+000	9,261206907247099E-002	1,000000000000000E+000	1,6031606E-001	40	3,9177970E-004
2	1	0	1	0	4,815746467805409E+004	4,2564511E+000	4,2562771E+000	8,882077879285777E-002	1,000000000000000E+000	1,6503352E-001	40	3,7804584E-004
2	1	0	1	0	4,820944427815091E+004	4,2824407E+000	4,2822876E+000	8,540205640720872E-002	1,000000000000000E+000	1,6956595E-001	40	3,6571617E-004
2	1	0	1	1	4,825462667823513E+004	4,2948356E+000	4,2946863E+000	7,623235661752337E-002	2,000000000000000E+000	1,7333372E-001	40	3,2739405E-004
2	1	0	1	1	4,830660587833193E+004	4,2688460E+000	4,2686863E+000	6,289443271865147E-002	2,000000000000000E+000	1,7690307E-001	40	2,6847661E-004
2	1	0	1	1	4,835858487842872E+004	4,2428565E+000	4,2427225E+000	5,411707557386147E-002	2,000000000000000E+000	1,7993177E-001	40	2,2960374E-004
2	1	0	1	1	4,841056387852575E+004	4,2168674E+000	4,2166648E+000	4,707376220898946E-002	2,000000000000000E+000	1,8255082E-001	41	1,9849428E-004
2	1	0	1	1	4,846254347862233E+004	4,1908770E+000	4,1907024E+000	4,120942222412065E-002	2,000000000000000E+000	1,8483791E-001	41	1,7269643E-004
2	1	0	1	1	4,851452197871928E+004	4,1648879E+000	4,1647096E+000	3,628505634193913E-002	2,000000000000000E+000	1,8684477E-001	41	1,5111672E-004
2	1	0	1	1	4,856650097881584E+004	4,1388984E+000	4,1387248E+000	3,197804096778692E-002	2,000000000000000E+000	1,8861060E-001	41	1,3234832E-004
2	1	0	1	1	4,861848067891283E+004	4,1129088E+000	4,1127505E+000	2,824447562588500E-002	2,000000000000000E+000	1,9017252E-001	41	1,1616248E-004
2	1	0	1	1	4,867045967900963E+004	4,0869188E+000	4,0867391E+000	2,494360872631514E-002	2,000000000000000E+000	1,9154808E-001	41	1,0193802E-004
2	1	0	1	1	4,872243807910639E+004	4,0609293E+000	4,0607233E+000	2,207491301581155E-002	2,000000000000000E+000	1,9276419E-001	41	8,9640111E-005
2	1	0	1	1	4,877441727920331E+004	4,0349398E+000	4,0347414E+000	1,950713426014937E-002	2,000000000000000E+000	1,9383836E-001	41	7,8706245E-005
2	1	0	1	1	4,882639677930018E+004	4,0089502E+000	4,0087605E+000	1,722011671723975E-002	2,000000000000000E+000	1,9478722E-001	41	6,9031325E-005
2	1	0	1	1	4,887837607939681E+004	3,9829612E+000	3,9827709E+000	1,520262715683166E-002	2,000000000000000E+000	1,9562432E-001	41	6,0548580E-005
2	1	0	1	1	4,893035527949373E+004	3,9569712E+000	3,9567866E+000	1,336369401347121E-002	2,000000000000000E+000	1,9636144E-001	41	5,2877287E-005
2	1	0	1	1	4,898233457959048E+004	3,9309819E+000	3,9308109E+000	1,174016721108587E-002	2,000000000000000E+000	1,9700900E-001	41	4,6148376E-005
2	1	0	1	1	4,903431367968745E+004	3,9049921E+000	3,9047935E+000	1,027320500183491E-002	2,000000000000000E+000	1,9757603E-001	41	4,0114744E-005
2	1	0	1	1	4,908629267978412E+004	3,8790026E+000	3,8787932E+000	8,941288786716656E-003	2,000000000000000E+000	1,9807073E-001	41	3,4681412E-005
2	1	0	1	1	4,913827187988104E+004	3,8530128E+000	3,8528194E+000	7,754266076268126E-003	2,000000000000000E+000	1,9850053E-001	41	2,9875788E-005
2	1	0	1	1	4,919025127997785E+004	3,8270233E+000	3,8268225E+000	6,656664122773326E-003	2,000000000000000E+000	1,9887090E-001	41	2,5473872E-005
2	1	0	1	1	4,924223028007464E+004	3,8010340E+000	3,8008277E+000	5,655536499627474E-003	2,000000000000000E+000	1,9918643E-001	41	2,1495720E-005
2	1	0	1	1	4,929420948017144E+004	3,7750442E+000	3,7747965E+000	4,703488982392035E-003	2,000000000000000E+000	1,9945134E-001	42	1,7754714E-005
2	1	0	1	1	4,934618878026842E+004	3,7490549E+000	3,7488110E+000	3,824116599578493E-003	2,000000000000000E+000	1,9966930E-001	42	1,4335890E-005
2	1	0	1	1	4,939816788036504E+004	3,7230651E+000	3,7228501E+000	2,992737481806722E-003	2,000000000000000E+000	1,9984265E-001	42	1,1141513E-005
2	1	0	1	1	4,945014728046197E+004	3,6970751E+000	3,6968825E+000	2,185205821844373E-003	2,000000000000000E+000	1,9997324E-001	42	8,0784494E-006
2	1	0	1	1	4,950212638055882E+004	3,6710858E+000	3,6708744E+000	1,375869542371393E-003	2,000000000000000E+000	2,0006163E-001	42	5,0506442E-006
2	1	0	1	1	4,955410548065556E+004	3,6450961E+000	3,6448314E+000	5,161567982341058E-004	2,000000000000000E+000	2,0010714E-001	43	1,8813046E-006
2	0	0	1	1	4,960608458075230E+004	3,6191068E+000	3,6189625E+000	-3,427381189898741E-004	2,000000000000000E+000	2,0010847E-001	43	-1,2403564E-006
2	0	0	1	1	4,965806388084940E+004	3,5931168E+000	3,5929351E+000	-1,325915868561553E-003	2,000000000000000E+000	2,0006117E-001	42	-4,7639296E-006
2	0	0	1	1	4,971004308094596E+004	3,5671275E+000	3,5669336E+000	-2,431684634164653E-003	2,000000000000000E+000	1,9996004E-001	42	-8,6736582E-006
2	0	0	1	1	4,976202208104287E+004	3,5411379E+000	3,5409870E+000	-3,682456727338485E-003	2,000000000000000E+000	1,9979812E-001	42	-1,3039531E-005
2	0	0	1	1	4,981400148113957E+004	3,5151479E+000	3,5150032E+000	-5,158109184289279E-003	2,000000000000000E+000	1,9956587E-001	42	-1,8130770E-005
2	0	0	1	1	4,986598068123648E+004	3,4891584E+000	3,4890232E+000	-6,919408649293034E-003	2,000000000000000E+000	1,9924980E-001	42	-2,4141977E-005
2	0	0	1	1	4,991795968133328E+004	3,4631686E+000	3,4630365E+000	-9,099333514498861E-003	2,000000000000000E+000	1,9883145E-001	42	-3,1511325E-005
2	0	0	1	1	4,996993908143020E+004	3,4371791E+000	3,4369876E+000	-1,192754051177969E-002	2,000000000000000E+000	1,9828352E-001	41	-4,0994808E-005
2	0	0	1	1	5,002191828152689E+004	3,4111896E+000	3,4110236E+000	-1,571716377840614E-002	2,000000000000000E+000	1,9756696E-001	41	-5,3611617E-005
2	0	0	1	1	5,007389738162374E+004	3,3852005E+000	3,3850114E+000	-2,129587994750526E-002	2,000000000000000E+000	1,9661027E-001	41	-7,2086797E-005
2	0	0	1	1	5,012587638172065E+004	3,3592105E+000	3,3590162E+000	-3,031557898727977E-002	2,000000000000000E+000	1,9528432E-001	41	-1,0183052E-004
2	0	0	1	1	5,017785568181740E+004	3,3332210E+000	3,3330700E+000	-4,317791582533004E-002	2,000000000000000E+000	1,9337903E-001	41	-1,4391502E-004
2	0	0	1	1	5,022983498191414E+004	3,3072314E+000	3,3071012E+000	-5,721977653699195E-002	2,000000000000000E+000	1,9076344E-001	41	-1,8923159E-004
2	0	0	1	1	5,028181408201111E+004	3,2812417E+000	3,2811046E+000	-7,104180800798160E-002	2,000000000000000E+000	1,8742004E-001	41	-2,3309560E-004
2	0	0	1	1	5,033379328210792E+004	3,2552521E+000	3,2551358E+000	-8,390330087907438E-002	2,000000000000000E+000	1,8337858E-001	41	-2,7311663E-004
2	0	0	1	1	5,038577258220472E+004	3,2292628E+000	3,2291684E+000	-9,480709066119442E-002	2,000000000000000E+000	1,7871799E-001	41	-3,0614805E-004
2	0	0	1	1	5,043775158230145E+004	3,2032731E+000	3,2030873E+000	-1,038628333427833E-001	2,000000000000000E+000	1,7353885E-001	40	-3,3268172E-004
2	0	0	1	1	5,048973088239832E+004	3,1772828E+000	3,1770885E+000	-1,113652634954161E-001	2,000000000000000E+000	1,6793421E-001	40	-3,5381730E-004
2	0	0	1	1	5,054171018249512E+004	3,1512938E+000	3,1511276E+000	-1,174120033246298E-001	2,000000000000000E+000	1,6197562E-001	40	-3,6998020E-004
2	0	0	1	1	5,059368918259186E+004	3,1253040E+000	3,1251247E+000	-1,222505670892517E-001	2,000000000000000E+000	1,5573879E-001	40	-3,8204825E-004
2	0	0	1	1	5,064566828268871E+004	3,0993149E+000	3,0991347E+000	-1,260434950736014E-001	2,000000000000000E+000	1,4928263E-001	40	-3,9062576E-004
2	0	0	1	1	5,069764748278557E+004	3,0733249E+000	3,0731490E+000	-1,291619686074749E-001	2,000000000000000E+000	1,4263783E-001	40	-3,9693396E-004
2	0	0	1	1	5,074962678288249E+004	3,0473356E+000	3,0471406E+000	-1,320442518920215E-001	2,000000000000000E+000	1,3583833E-001	40	-4,0235740E-004
2	0	0	1	1	5,080160588297923E+004	3,0213459E+000	3,0211227E+000	-1,339939558333858E-001	2,000000000000000E+000	1,2891711E-001	40	-4,0481219E-004
2	0	0	1	1	5,085358508307597E+004	2,9953561E+000	2,9951556E+000	-1,353955575776497E-001	2,000000000000000E+000	1,2191416E-001	40	-4,0553077E-004
2	0	0	1	1	5,090556438317290E+004	2,9693666E+000	2,9691551E+000	-1,360807592375299E-001	2,000000000000000E+000	1,1486676E-001	40	-4,0404487E-004
2	0	0	1	1	5,095754348326987E+004	2,9433773E+000	2,9432030E+000	-1,359592366294963E-001	2,000000000000000E+000	1,0779703E-001	40	-4,0015564E-004
2	0	0	1	1	5,100952268336655E+004	2,9173872E+000	2,9171968E+000	-1,356512466791314E-001	2,000000000000000E+000	1,0072657E-001	40	-3,9572138E-004
2	0	0	1	1	5,106150208346348E+004	2,8913977E+000	2,8911843E+000	-1,354320982400403E-001	2,000000000000000E+000	9,3666293E-002	40	-3,9155915E-004
2	0	0	1	1	5,111348108356027E+004	2,8654084E+000	2,8651993E+000	-1,350415063738090E-001	2,000000000000000E+000	8,6625941E-002	40	-3,8692084E-004
2	0	0	1	1	5,116546008365694E+004	2,8394186E+000	2,8392010E+000	-1,340727247632532E-001	2,000000000000000E+000	7,9624347E-002	40	-3,8065942E-004
2	0	0	1	1	5,121743948375364E+004	2,8134286E+000	2,8132012E+000	-1,333486717035630E-001	2,000000000000000E+000	7,2656900E-002	40	-3,7513665E-004
2	0	0	1	1	5,126262268383801E+004	2,8090310E+000	2,8087821E+000	-1,238637288132820E-001	2,000000000000000E+000	6,6736236E-002	40	-3,4790623E-004
2	0	0	1	1	5,131460228393460E+004	2,8350205E+000	2,8347864E+000	-1,054804512582077E-001	2,000000000000000E+000	6,0812913E-002	40	-2,9901456E-004
2	0	0	1	1	5,136658128403156E+004	2,8610103E+000	2,8608131E+000	-9,133585123243870E-002	2,000000000000000E+000	5,5707552E-002	40	-2,6129480E-004
2	0	0	1	1	5,141856038412848E+004	2,8869994E+000	2,8867586E+000	-7,963383636122745E-002	2,000000000000000E+000	5,1272642E-002	40	-2,2988366E-004
2	0	0	1	1	5,147053968422511E+004	2,9129891E+000	2,9127738E+000	-6,981440923356375E-002	2,000000000000000E+000	4,7397505E-002	40	-2,0335359E-004
2	0	0	1	1	5,152251898432203E+004	2,9389787E+000	2,9387493E+000	-6,120099263133627E-002	2,000000000000000E+000	4,4003870E-002	40	-1,7985438E-004
2	0	0	1	1	5,157449808441894E+004	2,9649682E+000	2,9647315E+000	-5,389041713196718E-002	2,000000000000000E+000	4,1021675E-002	40	-1,5977061E-004
2	0	0	1	1	5,162647768451576E+004	2,9909577E+000	2,9907691E+000	-4,731103625150146E-002	2,000000000000000E+000	3,8397342E-002	41	-1,4149639E-004
2	0	0	1	1	5,167845708461246E+004	3,0169475E+000	3,0167727E+000	-4,164871404659998E-002	2,000000000000000E+000	3,6091361E-002	41	-1,2564470E-004
2	0	0	1	1	5,173043608470936E+004	3,0429370E+000	3,0427291E+000	-3,656975370000115E-002	2,000000000000000E+000	3,4065031E-002	41	-1,1127185E-004
2	0	0	1	1	5,178241518480633E+004	3,0689268E+000	3,0687318E+000	-3,203927689503636E-002	2,000000000000000E+000	3,2287601E-002	41	-9,8319950E-005
2	0	0	1	1	5,183439508490311E+004	3,0949163E+000	3,0947309E+000	-2,790216184301822E-002	2,000000000000000E+000	3,0736156E-002	41	-8,6349683E-005
2	0	0	1	1	5,188637418499979E+004	3,1209061E+000	3,1206720E+000	-2,411378250793705E-002	2,000000000000000E+000	2,9389374E-002	41	-7,5251206E-005
2	0	0	1	1	5,193835328509659E+004	3,1468956E+000	3,1467021E+000	-2,073538581549600E-002	2,000000000000000E+000	2,8226651E-002	41	-6,5248081E-005
2	0	0	1	1	5,199033248519339E+004	3,1728852E+000	3,1727018E+000	-1,752366595279053E-002	2,000000000000000E+000	2,7236650E-002	41	-5,5597367E-005
2	0	0	1	1	5,204231228529022E+004	3,1988750E+000	3,1986623E+000	-1,453728410123492E-002	2,000000000000000E+000	2,6407568E-002	41	-4,6499863E-005
2	0	0	1	1	5,209429128538689E+004	3,2248642E+000	3,2246385E+000	-1,170858030616390E-002	2,000000000000000E+000	2,5729556E-002	41	-3,7755937E-005
2	0	0	1	1	5,214627068548393E+004	3,2508538E+000	3,2506683E+000	-8,984802522940663E-003	2,000000000000000E+000	2,5195459E-002	41	-2,9206612E-005
2	0	0	1	1	5,219824988558062E+004	3,2768438E+000	3,2766204E+000	-6,318833281452468E-003	2,000000000000000E+000	2,4800632E-002	41	-2,0704418E-005
2	0	0	1	1	5,225022938567749E+004	3,3028333E+000	3,3026526E+000	-3,629187653622114E-003	2,000000000000000E+000	2,4545178E-002	42	-1,1985946E-005
2	0	0	1	1	5,230220868577436E+004	3,3288229E+000	3,3286331E+000	-8,685116888568559E-004	2,000000000000000E+000	2,4430584E-002	42	-2,8909567E-006
2	1	0	1	1	5,235418798587116E+004	3,3548126E+000	3,3545828E+000	2,109761312950199E-003	2,000000000000000E+000	2,4464475E-002	42	7,0773690E-006
2	1	0	1	1	5,240616738596791E+004	3,3808017E+000	3,3805234E+000	5,377904630059577E-003	2,000000000000000E+000	2,4660144E-002	42	1,8180133E-005
2	1	0	1	1	5,245814648606488E+004	3,4067912E+000	3,4065197E+000	9,159085819932467E-003	2,000000000000000E+000	2,5038267E-002	42	3,1200605E-005
2	1	0	1	1	5,251012588616158E+004	3,4327807E+000	3,4325430E+000	1,371396252259183E-002	2,000000000000000E+000	2,5632285E-002	41	4,7073765E-005
2	1	0	1	1	5,256210508625838E+004	3,4587705E+000	3,4585333E+000	1,951779880178822E-002	2,000000000000000E+000	2,6491581E-002	41	6,7502959E-005
2	1	0	1	1	5,261408458635514E+004	3,4847605E+000	3,4845481E+000	2,751932286923363E-002	2,000000000000000E+000	2,7705558E-002	41	9,5892407E-005
2	1	0	1	1	5,266606388645223E+004	3,5107501E+000	3,5104926E+000	3,884717085189030E-002	2,000000000000000E+000	2,9419672E-002	41	1,3637271E-004
2	1	0	1	1	5,271804318654881E+004	3,5367398E+000	3,5364728E+000	5,289983041969359E-002	2,000000000000000E+000	3,1799495E-002	41	1,8707881E-004
2	1	0	1	1	5,277002218664577E+004	3,5627294E+000	3,5624745E+000	6,816335916583449E-002	2,000000000000000E+000	3,4948319E-002	41	2,4283023E-004
2	1	0	1	1	5,282200188674266E+004	3,5887184E+000	3,5884297E+000	8,397968473770434E-002	2,000000000000000E+000	3,8906965E-002	41	3,0135521E-004
2	1	0	1	1	5,287398118683952E+004	3,6147084E+000	3,6144290E+000	9,924931414057370E-002	2,000000000000000E+000	4,3682054E-002	41	3,5872959E-004
2	1	0	1	1	5,292596028693608E+004	3,6406982E+000	3,6404893E+000	1,129713687214198E-001	2,000000000000000E+000	4,9209658E-002	40	4,1127106E-004
2	1	0	1	1	5,297793938703300E+004	3,6666875E+000	3,6664610E+000	1,254915473373761E-001	2,000000000000000E+000	5,5423204E-002	40	4,6010988E-004
2	1	0	1	1	5,302991908712988E+004	3,6926770E+000	3,6924682E+000	1,364363857275344E-001	2,000000000000000E+000	6,2243465E-002	40	5,0378701E-004
2	1	0	1	1	5,308189838722657E+004	3,7186666E+000	3,7185061E+000	1,448665775399931E-001	2,000000000000000E+000	6,9568165E-002	40	5,3868728E-004
2	1	0	1	1	5,313387738732353E+004	3,7446566E+000	3,7444351E+000	1,507408653777591E-001	2,000000000000000E+000	7,7259891E-002	40	5,6443940E-004
2	1	0	1	1	5,318585668742028E+004	3,7706459E+000	3,7704561E+000	1,542189387452786E-001	2,000000000000000E+000	8,5195936E-002	40	5,8147573E-004
2	1	0	1	1	5,323783638751705E+004	3,7966356E+000	3,7964284E+000	1,554773391255888E-001	2,000000000000000E+000	9,3257383E-002	40	5,9025857E-004
2	1	0	1	1	5,328981548761390E+004	3,8226252E+000	3,8223903E+000	1,544825747226815E-001	2,000000000000000E+000	1,0132160E-001	40	5,9049268E-004
2	1	0	1	1	5,334179478771077E+004	3,8486149E+000	3,8483944E+000	1,520498925295497E-001	2,000000000000000E+000	1,0930374E-001	40	5,8514794E-004
2	1	0	1	1	5,339377408780763E+004	3,8746045E+000	3,8744164E+000	1,476328824649268E-001	2,000000000000000E+000	1,1710177E-001	40	5,7199126E-004
2	1	0	1	1	5,344575348790432E+004	3,9005940E+000	3,9003694E+000	1,419551166888025E-001	2,000000000000000E+000	1,2463681E-001	40	5,5367738E-004
2	1	0	1	1	5,349773258800118E+004	3,9265838E+000	3,9263656E+000	1,355001785524067E-001	2,000000000000000E+000	1,3185544E-001	40	5,3202326E-004
2	1	0	1	1	5,354971188809793E+004	3,9525731E+000	3,9523773E+000	1,288709766101297E-001	2,000000000000000E+000	1,3872600E-001	40	5,0934672E-004
2	1	0	1	1	5,360169138819474E+004	3,9785628E+000	3,9783709E+000	1,217933198284644E-001	2,000000000000000E+000	1,4523536E-001	40	4,8453899E-004
2	1	0	1	1	5,365367088829156E+004	4,0045519E+000	4,0043597E+000	1,147772314064367E-001	2,000000000000000E+000	1,5138395E-001	40	4,5960932E-004
2	1	0	1	1	5,370564988838835E+004	4,0305414E+000	4,0303569E+000	1,082377965767719E-001	2,000000000000000E+000	1,5717845E-001	40	4,3623694E-004
2	1	0	1	1	5,375762958848529E+004	4,0565314E+000	4,0563512E+000	1,018058985969714E-001	2,000000000000000E+000	1,6263247E-001	40	4,1296048E-004
2	1	0	1	1	5,380960898858201E+004	4,0825210E+000	4,0823460E+000	9,541576934617191E-002	2,000000000000000E+000	1,6775663E-001	40	3,8952017E-004
2	1	0	1	1	5,386158848867891E+004	4,1085105E+000	4,1083565E+000	8,927039079725496E-002	2,000000000000000E+000	1,7256029E-001	40	3,6675460E-004
2	1	0	1	1	5,391356748877582E+004	4,1345000E+000	4,1343355E+000	8,361937112659201E-002	2,000000000000000E+000	1,7706099E-001	40	3,4571055E-004
2	1	0	1	1	5,396554668887251E+004	4,1604900E+000	4,1603079E+000	7,823453747629039E-002	2,000000000000000E+000	1,8127300E-001	40	3,2547978E-004
2	1	0	1	1	5,401752608896932E+004	4,1864791E+000	4,1863260E+000	7,323405191901725E-002	2,000000000000000E+000	1,8521436E-001	40	3,0658161E-004
2	1	0	1	1	5,406950508906622E+004	4,2124686E+000	4,2122803E+000	6,871403602837889E-002	2,000000000000000E+000	1,8890582E-001	40	2,8944277E-004
2	1	0	1	1	5,412148468916293E+004	4,2384586E+000	4,2382970E+000	6,461518100975339E-002	2,000000000000000E+000	1,9237299E-001	40	2,7385831E-004
2	1	0	1	1	5,417346378925990E+004	4,2644477E+000	4,2642770E+000	6,126928895682404E-002	2,000000000000000E+000	1,9564393E-001	40	2,6126922E-004
2	1	0	1	1	5,422544368935667E+004	4,2904377E+000	4,2902708E+000	5,864535048624842E-002	2,000000000000000E+000	1,9876082E-001	40	2,5160445E-004
2	1	0	1	0	5,427062528944085E+004	4,2868395E+000	4,2866478E+000	4,585922339088144E-002	3,000000000000000E+000	2,0117889E-001	41	1,9658233E-004
2	1	0	1	0	5,432260478953761E+004	4,2608495E+000	4,2606654E+000	3,672570163874367E-002	3,000000000000000E+000	2,0330070E-001	41	1,5647593E-004
2	1	0	1	0	5,437458378963452E+004	4,2348604E+000	4,2347012E+000	3,046640685485236E-002	3,000000000000000E+000	2,0503430E-001	41	1,2901613E-004
2	1	0	1	0	5,442656338973134E+004	4,2088704E+000	4,2087045E+000	2,568277062006163E-002	3,000000000000000E+000	2,0648420E-001	41	1,0809119E-004
2	1	0	1	0	5,447854248982802E+004	4,1828809E+000	4,1827340E+000	2,195389684113508E-002	3,000000000000000E+000	2,0771426E-001	41	9,1827314E-005
2	1	0	1	0	5,453052088992507E+004	4,1568913E+000	4,1567240E+000	1,884023967813975E-002	3,000000000000000E+000	2,0876533E-001	41	7,8313678E-005
2	1	0	1	0	5,458250009002164E+004	4,1309018E+000	4,1307702E+000	1,623366229993567E-002	3,000000000000000E+000	2,0966956E-001	41	6,7057532E-005
2	1	0	1	0	5,463447909011843E+004	4,1049123E+000	4,1047602E+000	1,396645429196792E-002	3,000000000000000E+000	2,1044818E-001	41	5,7328944E-005
2	1	0	1	0	5,468645829021512E+004	4,0789223E+000	4,0787439E+000	1,205889333467836E-002	3,000000000000000E+000	2,1111946E-001	41	4,9185139E-005
2	1	0	1	0	5,473843719031216E+004	4,0529327E+000	4,0527682E+000	1,037096926843506E-002	3,000000000000000E+000	2,1169743E-001	41	4,2031133E-005
2	1	0	1	0	5,479041669040895E+004	4,0269432E+000	4,0267811E+000	8,904110322859371E-003	3,000000000000000E+000	2,1219417E-001	41	3,5854904E-005
2	1	0	1	0	5,484239599050581E+004	4,0009542E+000	4,0007806E+000	7,623025688849981E-003	3,000000000000000E+000	2,1261923E-001	41	3,0498053E-005
2	1	0	1	0	5,489437499060255E+004	3,9749644E+000	3,9747915E+000	6,469622679012965E-003	3,000000000000000E+000	2,1298076E-001	41	2,5715401E-005
2	1	0	1	0	5,494635429069947E+004	3,9489746E+000	3,9488070E+000	5,451195177514107E-003	3,000000000000000E+000	2,1328567E-001	41	2,1525717E-005
2	1	0	1	0	5,499833359079622E+004	3,9229851E+000	3,9227698E+000	4,525795122353654E-003	3,000000000000000E+000	2,1353979E-001	42	1,7753653E-005
2	1	0	1	0	5,505031259089307E+004	3,8969955E+000	3,8967812E+000	3,692917507108874E-003	3,000000000000000E+000	2,1374837E-001	42	1,4390492E-005
2	1	0	1	0	5,510229159098980E+004	3,8710063E+000	3,8708096E+000	2,942237003976250E-003	3,000000000000000E+000	2,1391627E-001	42	1,1388839E-005
2	1	0	1	0	5,515427089108690E+004	3,8450160E+000	3,8448057E+000	2,261530029576304E-003	3,000000000000000E+000	2,1404691E-001	42	8,6951432E-006
2	1	0	1	0	5,520625019118347E+004	3,8190269E+000	3,8188345E+000	1,636922066211813E-003	3,000000000000000E+000	2,1414374E-001	42	6,2511344E-006
2	1	0	1	0	5,525822929128038E+004	3,7930369E+000	3,7928388E+000	1,055892096582334E-003	3,000000000000000E+000	2,1420927E-001	42	4,0048285E-006
2	1	0	1	0	5,531020849137707E+004	3,7670472E+000	3,7668297E+000	4,795597565036840E-004	3,000000000000000E+000	2,1424569E-001	43	1,8064200E-006
2	1	0	1	0	5,536218779147399E+004	3,7410576E+000	3,7408836E+000	-3,742311711118305E-005	3,000000000000000E+000	2,1425422E-001	43	-1,3999552E-007
2	0	0	1	0	5,541416689157079E+004	3,7150683E+000	3,7149627E+000	-5,420220113716151E-004	3,000000000000000E+000	2,1423598E-001	43	-2,0135915E-006
2	0	0	1	0	5,546614609166770E+004	3,6890786E+000	3,6889129E+000	-1,073107240205244E-003	3,000000000000000E+000	2,1418993E-001	42	-3,9585989E-006
2	0	0	1	0	5,551812539176439E+004	3,6630888E+000	3,6629066E+000	-1,625145131323901E-003	3,000000000000000E+000	2,1411590E-001	42	-5,9527547E-006
2	0	0	1	0	5,557010449186130E+004	3,6370993E+000	3,6369462E+000	-2,243646405981826E-003	3,000000000000000E+000	2,1401151E-001	42	-8,1600210E-006
2	0	0	1	0	5,562208349195821E+004	3,6111095E+000	3,6109598E+000	-2,931272894810218E-003	3,000000000000000E+000	2,1387362E-001	42	-1,0584708E-005
2	0	0	1	0	5,567406289205491E+004	3,5851200E+000	3,5849683E+000	-3,742897432432390E-003	3,000000000000000E+000	2,1369639E-001	42	-1,3418169E-005
2	0	0	1	0	5,572604209215171E+004	3,5591304E+000	3,5590186E+000	-4,702452253837724E-003	3,000000000000000E+000	2,1347401E-001	42	-1,6736116E-005
2	0	0	1	0	5,577802109224861E+004	3,5331409E+000	3,5330281E+000	-5,837725243997394E-003	3,000000000000000E+000	2,1319690E-001	42	-2,0624848E-005
2	0	0	1	0	5,583000049234531E+004	3,5071514E+000	3,5070472E+000	-7,215555499770238E-003	3,000000000000000E+000	2,1285501E-001	42	-2,5305293E-005
2	0	0	1	0	5,588197969244217E+004	3,4811616E+000	3,4810636E+000	-8,953481910091836E-003	3,000000000000000E+000	2,1243280E-001	42	-3,1167641E-005
2	0	0	1	0	5,593395869253902E+004	3,4551725E+000	3,4549763E+000	-1,115153115082329E-002	3,000000000000000E+000	2,1190815E-001	41	-3,8528276E-005
2	0	0	1	0	5,598593799263588E+004	3,4291825E+000	3,4289963E+000	-1,411324217957519E-002	3,000000000000000E+000	2,1125148E-001	41	-4,8394257E-005
2	0	0	1	0	5,603791729273257E+004	3,4031932E+000	3,4030252E+000	-1,824191696311939E-002	3,000000000000000E+000	2,1041338E-001	41	-6,2077699E-005
2	0	0	1	0	5,608989629282942E+004	3,3772035E+000	3,3770101E+000	-2,476290204632059E-002	3,000000000000000E+000	2,0930530E-001	41	-8,3624567E-005
2	0	0	1	0	5,614187529292621E+004	3,3512139E+000	3,3510280E+000	-3,536966654781848E-002	3,000000000000000E+000	2,0775948E-001	41	-1,1852474E-004
2	0	0	1	0	5,619385469302314E+004	3,3252237E+000	3,3250539E+000	-4,933296047473512E-002	3,000000000000000E+000	2,0555680E-001	41	-1,6403475E-004
2	0	0	1	0	5,624583389311982E+004	3,2992349E+000	3,2990890E+000	-6,393463877364189E-002	3,000000000000000E+000	2,0260829E-001	41	-2,1092607E-004
2	0	0	1	0	5,629781289321673E+004	3,2732451E+000	3,2730868E+000	-7,771494593061901E-002	3,000000000000000E+000	1,9891867E-001	41	-2,5436777E-004
2	0	0	1	0	5,634979229331354E+004	3,2472551E+000	3,2471261E+000	-9,036641977478732E-002	3,000000000000000E+000	1,9453421E-001	41	-2,9343116E-004
2	0	0	1	0	5,640177149341034E+004	3,2212658E+000	3,2211757E+000	-1,010014719665694E-001	3,000000000000000E+000	1,8954569E-001	41	-3,2534348E-004
2	0	0	1	0	5,645375059350720E+004	3,1952763E+000	3,1950769E+000	-1,100251549710716E-001	3,000000000000000E+000	1,8404797E-001	40	-3,5153882E-004
2	0	0	1	0	5,650572989360400E+004	3,1692865E+000	3,1691058E+000	-1,171258703405736E-001	3,000000000000000E+000	1,7813668E-001	40	-3,7118426E-004
2	0	0	1	0	5,655770909370075E+004	3,1432970E+000	3,1430917E+000	-1,230312267348472E-001	3,000000000000000E+000	1,7188127E-001	40	-3,8669843E-004
2	0	0	1	0	5,660968819379783E+004	3,1173077E+000	3,1171076E+000	-1,274857386228976E-001	3,000000000000000E+000	1,6535644E-001	40	-3,9738676E-004
2	0	0	1	0	5,666166729389440E+004	3,0913179E+000	3,0911303E+000	-1,312913741117794E-001	3,000000000000000E+000	1,5862188E-001	40	-4,0583874E-004
2	0	0	1	0	5,671364649399137E+004	3,0653281E+000	3,0651171E+000	-1,344111403197671E-001	3,000000000000000E+000	1,5171379E-001	40	-4,1198588E-004
2	0	0	1	0	5,676562579408824E+004	3,0393388E+000	3,0390964E+000	-1,366216723117244E-001	3,000000000000000E+000	1,4466527E-001	40	-4,1520642E-004
2	0	0	1	0	5,681760479418491E+004	3,0133491E+000	3,0131378E+000	-1,382810042672308E-001	3,000000000000000E+000	1,3751794E-001	40	-4,1665972E-004
2	0	0	1	0	5,686958409428154E+004	2,9873593E+000	2,9871628E+000	-1,389666168163195E-001	3,000000000000000E+000	1,3030452E-001	40	-4,1511591E-004
2	0	0	1	0	5,692156339437864E+004	2,9613700E+000	2,9611123E+000	-1,396465571079617E-001	3,000000000000000E+000	1,2305397E-001	40	-4,1350914E-004
2	0	0	1	0	5,697354239447531E+004	2,9353802E+000	2,9351726E+000	-1,399581364806530E-001	3,000000000000000E+000	1,1578543E-001	40	-4,1080129E-004
2	0	0	1	0	5,702552169457229E+004	2,9093902E+000	2,9091833E+000	-1,393502053625848E-001	3,000000000000000E+000	1,0852570E-001	40	-4,0539529E-004
2	0	0	1	0	5,707750099466904E+004	2,8834009E+000	2,8831716E+000	-1,393491641081764E-001	3,000000000000000E+000	1,0128199E-001	40	-4,0176755E-004
2	0	0	1	0	5,712947999476580E+004	2,8574116E+000	2,8571997E+000	-1,387839600559846E-001	3,000000000000000E+000	9,4058186E-002	40	-3,9653349E-004
2	0	0	1	0	5,718145909486257E+004	2,8314221E+000	2,8312054E+000	-1,382993879416992E-001	3,000000000000000E+000	8,6858630E-002	40	-3,9155397E-004
2	0	0	1	0	5,723343829495949E+004	2,8054323E+000	2,8051927E+000	-1,375523078502462E-001	3,000000000000000E+000	7,9692453E-002	40	-3,8586074E-004
2	0	0	1	0	5,727862169504375E+004	2,8170273E+000	2,8168087E+000	-1,215145340647208E-001	3,000000000000000E+000	7,3791400E-002	40	-3,4228319E-004
2	0	0	1	0	5,733060109514039E+004	2,8430173E+000	2,8428040E+000	-1,047066356278432E-001	3,000000000000000E+000	6,7933522E-002	40	-2,9766044E-004
2	0	0	1	0	5,738258009523724E+004	2,8690066E+000	2,8687835E+000	-9,090552964397225E-002	3,000000000000000E+000	6,2862962E-002	40	-2,6078828E-004
2	0	0	1	0	5,743455919533409E+004	2,8949964E+000	2,8948145E+000	-7,968282003354571E-002	3,000000000000000E+000	5,8444198E-002	40	-2,3066698E-004
2	0	0	1	0	5,748653849543090E+004	2,9209857E+000	2,9207709E+000	-6,987527359953205E-002	3,000000000000000E+000	5,4567493E-002	40	-2,0408967E-004
2	0	0	1	0	5,753851779552759E+004	2,9469752E+000	2,9467359E+000	-6,156357801007734E-002	3,000000000000000E+000	5,1160704E-002	40	-1,8141160E-004
2	0	0	1	0	5,759049689562456E+004	2,9729650E+000	2,9727108E+000	-5,423110123698360E-002	3,000000000000000E+000	4,8160862E-002	40	-1,6121338E-004
2	0	0	1	0	5,764247649572132E+004	2,9989543E+000	2,9987471E+000	-4,767142683643250E-002	3,000000000000000E+000	4,5515597E-002	41	-1,4295455E-004
2	0	0	1	0	5,769445589581819E+004	3,0249443E+000	3,0247290E+000	-4,203056242029096E-002	3,000000000000000E+000	4,3188978E-002	41	-1,2713106E-004
2	0	0	1	0	5,774643489591498E+004	3,0509341E+000	3,0507700E+000	-3,689087829684468E-002	3,000000000000000E+000	4,1143682E-002	41	-1,1254559E-004
2	0	0	1	0	5,779841429601179E+004	3,0769236E+000	3,0767303E+000	-3,228617547032431E-002	3,000000000000000E+000	3,9350461E-002	41	-9,9335855E-005
2	0	0	1	0	5,785039389610855E+004	3,1029129E+000	3,1027112E+000	-2,813955979985372E-002	3,000000000000000E+000	3,7785269E-002	41	-8,7308930E-005
2	0	0	1	0	5,790237299620546E+004	3,1289027E+000	3,1287084E+000	-2,431572953341737E-002	3,000000000000000E+000	3,6427930E-002	41	-7,6076823E-005
2	0	0	1	0	5,795435209630243E+004	3,1548920E+000	3,1546786E+000	-2,078933692971857E-002	3,000000000000000E+000	3,5260592E-002	41	-6,5583677E-005
2	0	0	1	0	5,800633169639914E+004	3,1808815E+000	3,1806562E+000	-1,750781856748695E-002	3,000000000000000E+000	3,4269542E-002	41	-5,5686352E-005
2	0	0	1	0	5,805831109649595E+004	3,2068715E+000	3,2066722E+000	-1,444840162901975E-002	3,000000000000000E+000	3,3442363E-002	41	-4,6331286E-005
2	0	0	1	0	5,811029009659262E+004	3,2328613E+000	3,2326601E+000	-1,154423832227153E-002	3,000000000000000E+000	3,2770030E-002	41	-3,7318598E-005
2	0	0	1	0	5,816226949668949E+004	3,2588508E+000	3,2586002E+000	-8,733080745920645E-003	3,000000000000000E+000	3,2246832E-002	41	-2,8457618E-005
2	0	0	1	0	5,821424909678637E+004	3,2848403E+000	3,2846189E+000	-5,917491263191368E-003	3,000000000000000E+000	3,1869851E-002	41	-1,9436704E-005
2	0	0	1	0	5,826622819688334E+004	3,3108301E+000	3,3106551E+000	-3,075204121478319E-003	3,000000000000000E+000	3,1639419E-002	42	-1,0180940E-005
2	0	0	1	0	5,831820749697997E+004	3,3368194E+000	3,3366113E+000	-8,932163803227313E-005	3,000000000000000E+000	3,1559695E-002	43	-2,9803158E-007
2	1	0	1	0	5,837018679707678E+004	3,3628092E+000	3,3625622E+000	3,132011090904909E-003	3,000000000000000E+000	3,1640444E-002	42	1,0531582E-005
2	1	0	1	0	5,842216629717359E+004	3,3887985E+000	3,3884830E+000	6,749603676597882E-003	3,000000000000000E+000	3,1898815E-002	42	2,2870918E-005
2	1	0	1	0	5,847414529727050E+004	3,4147882E+000	3,4145441E+000	1,102093276329089E-002	3,000000000000000E+000	3,2361254E-002	41	3,7631460E-005
2	1	0	1	0	5,852612469736731E+004	3,4407778E+000	3,4405324E+000	1,619150150236828E-002	3,000000000000000E+000	3,3067130E-002	41	5,5707387E-005
2	1	0	1	0	5,857810389746411E+004	3,4667675E+000	3,4665258E+000	2,298543760940278E-002	3,000000000000000E+000	3,4082543E-002	41	7,9679616E-005
2	1	0	1	0	5,863008339756099E+004	3,4927573E+000	3,4924972E+000	3,273401682599808E-002	3,000000000000000E+000	3,5520118E-002	41	1,1432346E-004
2	1	0	1	0	5,868206269765773E+004	3,5187466E+000	3,5184736E+000	4,611215941817504E-002	3,000000000000000E+000	3,7559450E-002	41	1,6224441E-004
2	1	0	1	0	5,873404199775448E+004	3,5447369E+000	3,5444582E+000	6,165096456228764E-002	3,000000000000000E+000	4,0357668E-002	41	2,1851926E-004
2	1	0	1	0	5,878602109785145E+004	3,5707257E+000	3,5704057E+000	7,813197676282546E-002	3,000000000000000E+000	4,3991797E-002	41	2,7896286E-004
2	1	0	1	0	5,883800069794827E+004	3,5967157E+000	3,5964153E+000	9,469222679669054E-002	3,000000000000000E+000	4,8487775E-002	41	3,4055256E-004
2	1	0	1	0	5,888998009804497E+004	3,6227052E+000	3,6224942E+000	1,103819871905389E-001	3,000000000000000E+000	5,3824186E-002	40	3,9985811E-004
2	1	0	1	0	5,894195909814176E+004	3,6486950E+000	3,6484497E+000	1,253499663970374E-001	3,000000000000000E+000	5,9960403E-002	40	4,5733305E-004
2	1	0	1	0	5,899393819823884E+004	3,6746840E+000	3,6744163E+000	1,374253019924487E-001	3,000000000000000E+000	6,6800013E-002	40	5,0495774E-004
2	1	0	1	0	5,904591789833544E+004	3,7006738E+000	3,7004163E+000	1,477979388131585E-001	3,000000000000000E+000	7,4234679E-002	40	5,4691389E-004
2	1	0	1	0	5,909789719843236E+004	3,7266641E+000	3,7264373E+000	1,551506337775663E-001	3,000000000000000E+000	8,2115069E-002	40	5,7815912E-004
2	1	0	1	0	5,914987629852910E+004	3,7526531E+000	3,7524085E+000	1,601775600159763E-001	3,000000000000000E+000	9,0326369E-002	40	6,0105167E-004
2	1	0	1	0	5,920185569862591E+004	3,7786429E+000	3,7784119E+000	1,626684709238448E-001	3,000000000000000E+000	9,8733120E-002	40	6,1462849E-004
2	1	0	1	0	5,925383529872267E+004	3,8046327E+000	3,8044012E+000	1,623272719375923E-001	3,000000000000000E+000	1,0718878E-001	40	6,1755808E-004
2	1	0	1	0	5,930581429881975E+004	3,8306222E+000	3,8304155E+000	1,600355734879280E-001	3,000000000000000E+000	1,1558199E-001	40	6,1300275E-004
2	1	0	1	0	5,935779369891644E+004	3,8566110E+000	3,8563800E+000	1,555512912944490E-001	3,000000000000000E+000	1,2380331E-001	40	5,9986487E-004
2	1	0	1	0	5,940977329901315E+004	3,8826013E+000	3,8823838E+000	1,502671102942603E-001	3,000000000000000E+000	1,3176274E-001	40	5,8339461E-004
2	1	0	1	0	5,946175239911000E+004	3,9085910E+000	3,9083943E+000	1,434295137083454E-001	3,000000000000000E+000	1,3940383E-001	40	5,6057912E-004
2	1	0	1	0	5,951373139920668E+004	3,9345803E+000	3,9343839E+000	1,361987154882279E-001	3,000000000000000E+000	1,4668211E-001	40	5,3585804E-004
2	1	0	1	0	5,956571069930360E+004	3,9605699E+000	3,9603570E+000	1,290138922761130E-001	3,000000000000000E+000	1,5358163E-001	40	5,1094108E-004
2	1	0	1	0	5,961769039940042E+004	3,9865599E+000	3,9863710E+000	1,215134619632097E-001	3,000000000000000E+000	1,6010116E-001	40	4,8439775E-004
2	1	0	1	0	5,966966979949735E+004	4,0125489E+000	4,0123281E+000	1,146826189100314E-001	3,000000000000000E+000	1,6624556E-001	40	4,6014431E-004
2	1	0	1	0	5,972164929959411E+004	4,0385385E+000	4,0383444E+000	1,078565712041468E-001	3,000000000000000E+000	1,7203145E-001	40	4,3556199E-004
2	1	0	1	0	5,977362829969090E+004	4,0645280E+000	4,0643282E+000	1,012631761504623E-001	3,000000000000000E+000	1,7746772E-001	40	4,1156678E-004
2	1	0	1	0	5,982560789978772E+004	4,0905180E+000	4,0903230E+000	9,497850415650863E-002	3,000000000000000E+000	1,8256868E-001	40	3,8849274E-004
2	1	0	1	0	5,987758689988474E+004	4,1165071E+000	4,1163397E+000	8,893948333334345E-002	3,000000000000000E+000	1,8734975E-001	40	3,6610512E-004
2	1	0	1	0	5,992956639998133E+004	4,1424971E+000	4,1423402E+000	8,304724486493642E-002	3,000000000000000E+000	1,9182245E-001	40	3,4400995E-004
2	1	0	1	0	5,998154540007841E+004	4,1684861E+000	4,1683140E+000	7,752961104906653E-002	3,000000000000000E+000	1,9599868E-001	40	3,2316777E-004
2	1	0	1	0	6,003352500017500E+004	4,1944761E+000	4,1943231E+000	7,248588058101524E-002	3,000000000000000E+000	1,9990011E-001	40	3,0402921E-004
2	1	0	1	0	6,008550450027199E+004	4,2204661E+000	4,2202926E+000	6,770009477651801E-002	3,000000000000000E+000	2,0354591E-001	40	2,8571420E-004
2	1	0	1	0	6,013748350036860E+004	4,2464552E+000	4,2462826E+000	6,357237062488297E-002	3,000000000000000E+000	2,0696004E-001	40	2,6994626E-004
2	1	0	1	0	6,018946260046563E+004	4,2724452E+000	4,2722754E+000	6,017903011998194E-002	3,000000000000000E+000	2,1017684E-001	40	2,5710140E-004
2	1	0	1	0	6,024144210056239E+004	4,2984343E+000	4,2982697E+000	5,772500414528042E-002	3,000000000000000E+000	2,1324177E-001	40	2,4811763E-004
2	1	0	1	1	6,028662470064650E+004	4,2788424E+000	4,2786393E+000	4,191696281037942E-002	3,000000000000000E+000	2,1540608E-001	41	1,7934757E-004
2	1	0	1	1	6,033860370074329E+004	4,2528529E+000	4,2526264E+000	3,382167501687711E-002	3,000000000000000E+000	2,1735488E-001	41	1,4383096E-004
2	1	0	1	1	6,039058290084009E+004	4,2268629E+000	4,2267008E+000	2,809980624568198E-002	3,000000000000000E+000	2,1895152E-001	41	1,1876947E-004
2	1	0	1	1	6,044256190093688E+004	4,2008734E+000	4,2006879E+000	2,361440316817387E-002	3,000000000000000E+000	2,2028497E-001	41	9,9196739E-005
2	1	0	1	1	6,049454080103384E+004	4,1748843E+000	4,1747031E+000	2,006468534733966E-002	3,000000000000000E+000	2,2141300E-001	41	8,3764106E-005
2	1	0	1	1	6,054652000113059E+004	4,1488943E+000	4,1487212E+000	1,715732395265132E-002	3,000000000000000E+000	2,2237307E-001	41	7,1180955E-005
2	1	0	1	1	6,059849900122744E+004	4,1229048E+000	4,1227393E+000	1,467980039895719E-002	3,000000000000000E+000	2,2319424E-001	41	6,0520990E-005
2	1	0	1	1	6,065047850132431E+004	4,0969152E+000	4,0967293E+000	1,253866055436376E-002	3,000000000000000E+000	2,2389583E-001	41	5,1367497E-005
2	1	0	1	1	6,070245710142097E+004	4,0709252E+000	4,0707631E+000	1,071456069620058E-002	3,000000000000000E+000	2,2449444E-001	41	4,3616437E-005
2	1	0	1	1	6,075443610151776E+004	4,0449362E+000	4,0447659E+000	9,097327509731298E-003	3,000000000000000E+000	2,2500305E-001	41	3,6796562E-005
2	1	0	1	1	6,080641510161455E+004	4,0189466E+000	4,0187526E+000	7,653866608975615E-003	3,000000000000000E+000	2,2543244E-001	41	3,0758994E-005
2	1	0	1	1	6,085839490171149E+004	3,9929569E+000	3,9927766E+000	6,414846595459087E-003	3,000000000000000E+000	2,2579245E-001	41	2,5613050E-005
2	1	0	1	1	6,091037390180829E+004	3,9669673E+000	3,9668059E+000	5,289685600068206E-003	3,000000000000000E+000	2,2609176E-001	41	2,0983156E-005
2	1	0	1	1	6,096235330190510E+004	3,9409773E+000	3,9407368E+000	4,308172454069347E-003	3,000000000000000E+000	2,2633623E-001	42	1,6977374E-005
2	1	0	1	1	6,101433250200190E+004	3,9149880E+000	3,9147816E+000	3,433816950403117E-003	3,000000000000000E+000	2,2653335E-001	42	1,3442644E-005
2	1	0	1	1	6,106631160209875E+004	3,8889987E+000	3,8887806E+000	2,643775040766537E-003	3,000000000000000E+000	2,2668742E-001	42	1,0281061E-005
2	1	0	1	1	6,111829060219554E+004	3,8630097E+000	3,8628013E+000	1,944265955604915E-003	3,000000000000000E+000	2,2680290E-001	42	7,5103130E-006
2	1	0	1	1	6,117026990229241E+004	3,8370194E+000	3,8368294E+000	1,327520079500207E-003	3,000000000000000E+000	2,2688366E-001	42	5,0934682E-006
2	1	0	1	1	6,122224920238921E+004	3,8110297E+000	3,8108289E+000	7,387414801056609E-004	3,000000000000000E+000	2,2693332E-001	42	2,8152174E-006
2	1	0	1	1	6,127422830248624E+004	3,7850401E+000	3,7848115E+000	2,028474046710900E-004	3,000000000000000E+000	2,2695372E-001	43	7,6773921E-007
2	0	0	1	1	6,132620750258281E+004	3,7590504E+000	3,7588913E+000	-3,097651852647914E-004	3,000000000000000E+000	2,2694774E-001	43	-1,1643737E-006
2	0	0	1	1	6,137818680267961E+004	3,7330611E+000	3,7328832E+000	-8,043835983845901E-004	3,000000000000000E+000	2,2691575E-001	42	-3,0026699E-006
2	0	0	1	1	6,143016580277658E+004	3,7070715E+000	3,7068989E+000	-1,280434929436625E-003	3,000000000000000E+000	2,2685820E-001	42	-4,7464428E-006
2	0	0	1	1	6,148214510287321E+004	3,6810818E+000	3,6809077E+000	-1,787987835001264E-003	3,000000000000000E+000	2,2677504E-001	42	-6,5814183E-006
2	0	0	1	1	6,153412440297008E+004	3,6550920E+000	3,6549022E+000	-2,347992201769664E-003	3,000000000000000E+000	2,2666429E-001	42	-8,5816819E-006
2	0	0	1	1	6,158610340306698E+004	3,6291025E+000	3,6289353E+000	-2,946225585721537E-003	3,000000000000000E+000	2,2652335E-001	42	-1,0691662E-005
2	0	0	1	1	6,163808250316372E+004	3,6031132E+000	3,6029491E+000	-3,665575248839179E-003	3,000000000000000E+000	2,2634810E-001	42	-1,3206881E-005
2	0	0	1	1	6,169006170326058E+004	3,5771234E+000	3,5769680E+000	-4,507432946066009E-003	3,000000000000000E+000	2,2613229E-001	42	-1,6122944E-005
2	0	0	1	1	6,174204100335739E+004	3,5511336E+000	3,5509796E+000	-5,512352788044239E-003	3,000000000000000E+000	2,2586815E-001	42	-1,9574252E-005
2	0	0	1	1	6,179402010345412E+004	3,5251443E+000	3,5250258E+000	-6,748029758861324E-003	3,000000000000000E+000	2,2554669E-001	42	-2,3786979E-005
2	0	0	1	1	6,184599930355104E+004	3,4991548E+000	3,4990225E+000	-8,233455914881596E-003	3,000000000000000E+000	2,2515479E-001	42	-2,8809047E-005
2	0	0	1	1	6,189797860364779E+004	3,4731653E+000	3,4729469E+000	-1,013797715839543E-002	3,000000000000000E+000	2,2467564E-001	41	-3,5208657E-005
2	0	0	1	1	6,194995770374453E+004	3,4471755E+000	3,4469626E+000	-1,259721853061663E-002	3,000000000000000E+000	2,2408412E-001	41	-4,3422140E-005
2	0	0	1	1	6,200193690384144E+004	3,4211857E+000	3,4209754E+000	-1,595630495884342E-002	3,000000000000000E+000	2,2334220E-001	41	-5,4586126E-005
2	0	0	1	1	6,205391630393825E+004	3,3951960E+000	3,3949862E+000	-2,091424435433681E-002	3,000000000000000E+000	2,2238825E-001	41	-7,1003567E-005
2	0	0	1	1	6,210589530403516E+004	3,3692064E+000	3,3690436E+000	-2,890229533552441E-002	3,000000000000000E+000	2,2110829E-001	41	-9,7373093E-005
2	0	0	1	1	6,215787430413190E+004	3,3432171E+000	3,3430140E+000	-4,177264582295648E-002	3,000000000000000E+000	2,1928574E-001	41	-1,3964654E-004
2	0	0	1	1	6,220985370422876E+004	3,3172271E+000	3,3170514E+000	-5,694313458519440E-002	3,000000000000000E+000	2,1671779E-001	41	-1,8888331E-004
2	0	0	1	1	6,226183290432580E+004	3,2912378E+000	3,2910812E+000	-7,206699054445420E-002	3,000000000000000E+000	2,1335690E-001	41	-2,3717832E-004
2	0	0	1	1	6,231381190442242E+004	3,2652485E+000	3,2651055E+000	-8,642536455156186E-002	3,000000000000000E+000	2,0922275E-001	41	-2,8218795E-004
2	0	0	1	1	6,236579120451910E+004	3,2392588E+000	3,2391241E+000	-9,933747628360101E-002	3,000000000000000E+000	2,0437665E-001	41	-3,2176642E-004
2	0	0	1	1	6,241777050461620E+004	3,2132692E+000	3,2130790E+000	-1,102441483086947E-001	3,000000000000000E+000	1,9891372E-001	40	-3,5422316E-004
2	0	0	1	1	6,246974960471276E+004	3,1872795E+000	3,1870363E+000	-1,187037105212827E-001	3,000000000000000E+000	1,9296138E-001	40	-3,7831304E-004
2	0	0	1	1	6,252172870480979E+004	3,1612895E+000	3,1610713E+000	-1,256540858028858E-001	3,000000000000000E+000	1,8660206E-001	40	-3,9720151E-004
2	0	0	1	1	6,257370810490660E+004	3,1353004E+000	3,1351011E+000	-1,311469379805094E-001	3,000000000000000E+000	1,7992409E-001	40	-4,1115889E-004
2	0	0	1	1	6,262568710500328E+004	3,1093106E+000	3,1091051E+000	-1,359226541741373E-001	3,000000000000000E+000	1,7296852E-001	40	-4,2259780E-004
2	0	0	1	1	6,267766620510002E+004	3,0833213E+000	3,0830979E+000	-1,393597809133604E-001	3,000000000000000E+000	1,6580130E-001	40	-4,2965985E-004
2	0	0	1	1	6,272964570519701E+004	3,0573313E+000	3,0571406E+000	-1,419128253288600E-001	3,000000000000000E+000	1,5847667E-001	40	-4,3384745E-004
2	0	0	1	1	6,278162470529368E+004	3,0313418E+000	3,0310926E+000	-1,440723147682266E-001	3,000000000000000E+000	1,5103337E-001	40	-4,3669654E-004
2	0	0	1	1	6,283360380539077E+004	3,0053523E+000	3,0051115E+000	-1,453047920104442E-001	3,000000000000000E+000	1,4350162E-001	40	-4,3665711E-004
2	0	0	1	1	6,288558310548752E+004	2,9793622E+000	2,9791312E+000	-1,456271484672209E-001	3,000000000000000E+000	1,3592926E-001	40	-4,3384239E-004
2	0	0	1	1	6,293756230558420E+004	2,9533730E+000	2,9531865E+000	-1,463101733627248E-001	3,000000000000000E+000	1,2834252E-001	40	-4,3208123E-004
2	0	0	1	1	6,298954140568094E+004	2,9273834E+000	2,9271538E+000	-1,459070834341758E-001	3,000000000000000E+000	1,2074954E-001	40	-4,2709248E-004
2	0	0	1	1	6,304152070577792E+004	2,9013937E+000	2,9011803E+000	-1,453674371175122E-001	3,000000000000000E+000	1,1317018E-001	40	-4,2173715E-004
2	0	0	1	1	6,309349990587460E+004	2,8754039E+000	2,8751733E+000	-1,450154906357806E-001	3,000000000000000E+000	1,0561612E-001	40	-4,1694468E-004
2	0	0	1	1	6,314547900597157E+004	2,8494148E+000	2,8491786E+000	-1,442873502816537E-001	3,000000000000000E+000	9,8095261E-002	40	-4,1110042E-004
2	0	0	1	1	6,319745800606837E+004	2,8234251E+000	2,8232100E+000	-1,438144030717332E-001	3,000000000000000E+000	9,0604082E-002	40	-4,0601825E-004
2	0	0	1	1	6,324943760616513E+004	2,7974350E+000	2,7972226E+000	-1,427803504509584E-001	3,000000000000000E+000	8,3147973E-002	40	-3,9938843E-004
2	0	0	0	1	6,328493480623118E+004	2,7795434E+000	2,7793345E+000	-1,423606897438452E-001	3,000000000000000E+000	7,8078598E-002	40	-3,9566797E-004